,standardDur,audNoise,order,preDur,postDur,isiDur,trial_num,totalDur,delta_dur_percents,deltaDurS,testDurS,intensities,current_stair,responses,is_correct,response_rts,stair_num_reversal,stair_is_reversal,response_keys,conflictDur,recordedOnsetVisualTest,recordedOffsetVisualTest,recordedDurVisualTest,recordedOnsetVisualStandard,recordedOffsetVisualStandard,recordedDurVisualStandard,modalityCue
0,0.49851,1.2,1,0.38219,0.1994,0.84747,0,2.10205,-0.65,-0.32403,0.17448,5,2U1D,2.0,True,5.541,0,False,right,0.08309,0.3113,0.6286,0.3173,1.3703,2.0943,0.7239,A
1,0.49851,1.2,1,0.36558,0.44035,0.89732,1,3.0243,0.65,0.32403,0.82254,5,2D1U,1.0,True,4.441,0,False,left,-0.24926,0.2977,1.2643,0.9667,2.2225,2.6141,0.3916,A
2,0.49851,0.1,1,0.22433,0.32403,0.54005,2,1.7614,-0.65,-0.32403,0.17448,5,2U1D,2.0,True,2.897,0,False,right,0.08309,0.1371,0.4788,0.3417,0.8954,1.6453,0.7499,A
3,0.49851,0.1,2,0.36558,0.34065,0.63145,3,2.65873,0.65,0.32403,0.82254,5,2D1U,2.0,True,1.593,0,False,right,-0.24926,1.5382,2.28,0.7418,0.4049,0.8219,0.417,A
4,0.49851,1.2,1,0.20771,0.32403,0.88901,4,2.86643,0.9,0.44866,0.94717,5,lapse_rate,1.0,True,1.171,0,False,left,0.08309,0.1439,1.2358,1.0919,2.0185,2.7436,0.7251,A
5,0.49851,1.2,1,0.42374,0.24095,0.86409,5,2.25162,-0.55,-0.27418,0.22433,5,2U1D,2.0,True,20.187,0,False,right,-0.24926,0.3549,0.7213,0.3664,1.6466,2.0384,0.3918,A
6,0.49851,1.2,2,0.35727,0.21602,0.4902,6,2.50917,0.9,0.44866,0.94717,5,lapse_rate,1.0,False,1.046,0,False,left,0.08309,1.5281,2.4027,0.8746,0.2449,0.9698,0.7249,A
7,0.49851,1.2,1,0.34065,0.30742,0.45697,7,2.37624,0.55,0.27418,0.77269,5,2D1U,1.0,True,0.811,0,False,left,-0.24926,0.2714,1.1881,0.9167,1.7045,2.0963,0.3918,A
8,0.49851,0.1,1,0.41543,0.39881,0.4902,8,2.57564,0.55,0.27418,0.77269,5,2D1U,1.0,True,1.795,0,False,left,0.08309,0.3307,1.2725,0.9418,1.6396,2.3895,0.7499,A
9,0.49851,1.2,2,0.25756,0.31572,0.83085,9,1.95249,-0.9,-0.44866,0.04985,5,lapse_rate,1.0,True,0.68,0,False,left,-0.24926,1.6066,1.5826,-0.024,0.3153,0.7073,0.392,A
10,0.49851,0.1,1,0.33234,0.42374,0.70623,10,2.18515,-0.55,-0.27418,0.22433,5,2U1D,2.0,True,0.109,0,False,right,0.08309,0.2463,0.638,0.3917,1.2213,1.9711,0.7498,A
11,0.49851,0.1,2,0.23264,0.36558,0.47359,11,1.62017,-0.9,-0.44866,0.04985,5,lapse_rate,1.0,True,0.517,0,False,left,-0.24926,1.2527,1.2195,-0.0332,0.2777,0.6943,0.4166,A
12,0.49851,1.2,2,0.21602,0.23264,0.88901,12,2.55902,0.45,0.22433,0.72284,5,2D1U,1.0,False,1.921,0,False,left,0.08309,1.7883,2.4382,0.6499,0.1048,0.8301,0.7253,A
13,0.49851,1.2,1,0.36558,0.26587,0.60652,13,2.01066,-0.45,-0.22433,0.27418,5,2U1D,1.0,False,0.383,0,False,left,-0.24926,0.3026,0.7194,0.4167,1.3859,1.7778,0.392,A
14,0.49851,0.1,1,0.33234,0.24926,0.70623,14,2.02729,-0.51,-0.25756,0.24095,5,2U1D,2.0,True,0.35,1,True,right,0.08309,0.2526,0.6613,0.4088,1.2441,1.9939,0.7498,A
15,0.49851,0.1,2,0.29911,0.28249,0.82254,15,2.65873,0.51,0.25756,0.75608,5,2D1U,2.0,True,0.25,1,True,right,-0.24926,1.6635,2.3385,0.675,0.3389,0.7555,0.4165,A
16,0.49851,1.2,1,0.38219,0.3905,0.54836,16,2.76673,0.9,0.44866,0.94717,5,lapse_rate,1.0,True,0.433,0,False,left,0.08309,0.3139,1.4059,1.092,1.8473,2.5722,0.7248,A
17,0.49851,1.2,1,0.32403,0.21602,0.45697,17,2.25161,0.51,0.25756,0.75608,5,2D1U,1.0,True,0.407,1,True,left,-0.24926,0.2556,1.1559,0.9003,1.6727,2.0637,0.391,A
18,0.49851,1.2,1,0.40712,0.40712,0.63145,18,2.89137,0.9,0.44866,0.94717,5,lapse_rate,1.0,True,0.442,0,False,left,0.08309,0.342,1.4336,1.0916,1.9581,2.6833,0.7252,A
19,0.49851,1.2,2,0.40712,0.3905,0.65637,19,2.19345,-0.51,-0.25756,0.24095,5,2U1D,1.0,True,0.453,1,True,left,-0.24926,1.5817,1.749,0.1674,0.4657,0.857,0.3913,A
20,0.49851,0.1,2,0.34065,0.26587,0.61483,20,2.45932,0.474,0.24095,0.73946,5,2D1U,2.0,True,0.124,2,True,right,0.08309,1.6658,2.3241,0.6583,0.2155,0.9667,0.7513,A
21,0.49851,0.1,1,0.21602,0.27418,0.44035,21,1.69493,-0.474,-0.24095,0.26587,5,2U1D,2.0,True,0.223,2,True,right,-0.24926,0.1323,0.5658,0.4335,1.049,1.4662,0.4172,A
22,0.49851,0.1,2,0.41543,0.41543,0.58991,22,2.86645,0.9,0.44866,0.94717,5,lapse_rate,2.0,True,0.366,0,False,right,0.08309,1.7154,2.5821,0.8667,0.2909,1.0407,0.7498,A
23,0.49851,1.2,2,0.38219,0.25756,0.73946,23,2.82489,0.9,0.44866,0.94717,5,lapse_rate,1.0,False,0.349,0,False,left,-0.24926,1.6452,2.5195,0.8743,0.4447,0.8367,0.392,A
24,0.49851,1.2,1,0.36558,0.33234,0.63976,24,2.10206,-0.474,-0.24095,0.26587,5,2U1D,1.0,False,1.0,2,True,left,0.08309,0.2977,0.7055,0.4078,1.2393,1.9644,0.7251,A
25,0.49851,1.2,2,0.31572,0.38219,0.78931,25,2.72519,0.474,0.24095,0.73946,5,2D1U,2.0,True,1.717,2,True,right,-0.24926,1.6258,2.2929,0.6671,0.3765,0.7674,0.3909,A
26,0.49851,0.1,1,0.44035,0.37388,0.63145,26,2.66703,0.438,0.21602,0.72284,5,2D1U,1.0,True,0.309,2,False,left,0.08309,0.3609,1.2529,0.8921,1.7613,2.5113,0.7499,A
27,0.49851,1.2,1,0.41543,0.27418,0.54836,27,1.78633,-0.9,-0.44866,0.04985,5,lapse_rate,1.0,False,1.882,0,False,left,-0.24926,0.3482,0.5402,0.192,1.1486,1.5403,0.3917,A
28,0.49851,0.1,1,0.42374,0.21602,0.39881,28,1.77803,-0.51,-0.25756,0.24095,5,2U1D,2.0,True,0.126,3,True,right,0.08309,0.3252,0.7292,0.404,1.0065,1.7541,0.7476,A
29,0.49851,1.2,2,0.44866,0.24095,0.5816,29,2.49256,0.438,0.21602,0.72284,5,2D1U,1.0,False,0.259,2,False,left,-0.24926,1.5532,2.2025,0.6494,0.511,0.9026,0.3917,A
30,0.49851,1.2,1,0.22433,0.34065,0.88901,30,2.19345,-0.51,-0.25756,0.24095,5,2U1D,1.0,False,2.142,3,True,left,0.08309,0.1603,0.5435,0.3832,1.3266,2.0525,0.7259,A
31,0.49851,1.2,1,0.1994,0.24926,0.68961,31,2.58395,0.9,0.44866,0.94717,5,lapse_rate,1.0,True,26.268,0,False,left,-0.24926,0.1323,1.2236,1.0913,1.9734,2.3654,0.3919,A
32,0.49851,1.2,1,0.39881,0.36558,0.5816,32,2.79167,0.9,0.44866,0.94717,5,lapse_rate,1.0,True,0.178,0,False,left,0.08309,0.3333,1.4254,1.0921,1.9002,2.6251,0.7248,A
33,0.49851,0.1,1,0.34896,0.31572,0.64807,33,2.55072,0.474,0.24095,0.73946,5,2D1U,1.0,True,0.175,3,True,left,-0.24926,0.2631,1.1715,0.9083,1.8632,2.28,0.4168,A
34,0.49851,0.1,2,0.29911,0.22433,0.66468,34,1.91096,-0.546,-0.27418,0.22433,5,2U1D,1.0,True,0.291,3,False,left,0.08309,1.6732,1.815,0.1418,0.1732,0.9227,0.7495,A
35,0.49851,1.2,2,0.28249,0.28249,0.69792,35,2.50087,0.474,0.24095,0.73946,5,2D1U,1.0,False,0.2,3,True,left,-0.24926,1.4984,2.1659,0.6675,0.3402,0.7317,0.3915,A
36,0.49851,1.2,1,0.38219,0.40712,0.69792,36,2.21007,-0.546,-0.27418,0.22433,5,2U1D,2.0,True,0.113,3,False,right,0.08309,0.3151,0.6816,0.3665,1.2734,1.9986,0.7252,A
37,0.49851,0.1,2,0.20771,0.37388,0.80593,37,1.93588,-0.9,-0.44866,0.04985,5,lapse_rate,1.0,True,0.25,0,False,left,-0.24926,1.5601,1.5284,-0.0316,0.2518,0.6684,0.4166,A
38,0.49851,0.1,1,0.34896,0.21602,0.79762,38,2.10206,-0.51,-0.25756,0.24095,5,2U1D,2.0,True,0.213,4,True,right,0.08309,0.2643,0.6712,0.4069,1.3466,2.0961,0.7494,A
39,0.49851,0.1,2,0.26587,0.29911,0.62314,39,2.44271,0.51,0.25756,0.75608,5,2D1U,2.0,True,0.229,3,False,right,-0.24926,1.4339,2.109,0.6751,0.309,0.7262,0.4173,A
40,0.49851,0.1,2,0.31572,0.24926,0.51513,40,1.62847,-0.9,-0.44866,0.04985,5,lapse_rate,1.0,True,0.422,0,False,left,0.08309,1.5419,1.5093,-0.0326,0.1926,0.9429,0.7503,A
41,0.49851,1.2,1,0.3905,0.20771,0.62314,41,2.47594,0.51,0.25756,0.75608,5,2D1U,2.0,False,1.008,3,False,right,-0.24926,0.323,1.2226,0.8996,1.9065,2.2976,0.3911,A
42,0.49851,1.2,2,0.38219,0.37388,0.65637,42,2.1519,-0.51,-0.25756,0.24095,5,2U1D,2.0,False,0.217,4,True,right,0.08309,1.7214,1.8886,0.1672,0.2713,0.9962,0.7248,A
43,0.49851,1.2,1,0.33234,0.22433,0.77269,43,2.77504,0.9,0.44866,0.94717,5,lapse_rate,1.0,True,0.865,0,False,left,-0.24926,0.2645,1.356,1.0914,2.1899,2.5805,0.3906,A
44,0.49851,1.2,2,0.35727,0.44866,0.43204,44,1.78633,-0.9,-0.44866,0.04985,5,lapse_rate,2.0,False,2.313,0,False,right,0.08309,1.474,1.4492,-0.0248,0.2485,0.9736,0.7251,A
45,0.49851,0.1,1,0.24926,0.21602,0.47359,45,1.66171,-0.546,-0.27418,0.22433,5,2U1D,2.0,True,0.226,5,True,right,-0.24926,0.1689,0.5606,0.3916,1.0779,1.4939,0.416,A
46,0.49851,0.1,1,0.44035,0.30742,0.53175,46,2.55072,0.546,0.27418,0.77269,5,2D1U,1.0,True,0.623,3,False,left,0.08309,0.3543,1.2958,0.9414,1.7036,2.4539,0.7503,A
47,0.49851,1.2,2,0.20771,0.24926,0.83916,47,2.74181,0.9,0.44866,0.94717,5,lapse_rate,1.0,False,1.123,0,False,left,-0.24926,1.5678,2.4427,0.8749,0.2677,0.6597,0.392,A
48,0.49851,1.2,1,0.23264,0.20771,0.39881,48,2.11036,0.546,0.27418,0.77269,5,2D1U,2.0,False,2.866,3,False,right,0.08309,0.166,1.082,0.916,1.3734,2.0985,0.7251,A
49,0.49851,1.2,1,0.21602,0.37388,0.60652,49,1.91926,-0.546,-0.27418,0.22433,5,2U1D,1.0,False,0.298,5,True,left,-0.24926,0.1478,0.5142,0.3664,1.1805,1.5724,0.3919,A
50,0.49851,0.1,2,0.27418,0.33234,0.78931,50,2.84151,0.9,0.44866,0.94717,5,lapse_rate,2.0,True,0.842,0,False,right,0.08309,1.7736,2.6395,0.8659,0.148,0.898,0.75,A
51,0.49851,0.1,1,0.42374,0.39881,0.63145,51,2.16022,-0.582,-0.2908,0.20771,5,2U1D,2.0,True,0.239,5,False,right,-0.24926,0.3391,0.714,0.3749,1.3889,1.8059,0.417,A
52,0.49851,0.1,2,0.1994,0.41543,0.60652,52,2.50917,0.582,0.2908,0.78931,5,2D1U,2.0,True,0.112,3,False,right,0.08309,1.5188,2.2279,0.7091,0.0768,0.827,0.7502,A
53,0.49851,1.2,2,0.44035,0.38219,0.81424,53,2.9246,0.582,0.2908,0.78931,5,2D1U,1.0,False,0.216,3,False,left,-0.24926,1.7707,2.4873,0.7166,0.4959,0.8874,0.3915,A
54,0.49851,1.2,1,0.31572,0.39881,0.46528,54,1.88603,-0.582,-0.2908,0.20771,5,2U1D,1.0,False,1.2,5,False,left,0.08309,0.2533,0.6033,0.35,0.9618,1.6862,0.7244,A
55,0.49851,1.2,2,0.34065,0.2908,0.4902,55,1.67001,-0.9,-0.44866,0.04985,5,lapse_rate,1.0,True,0.775,0,False,left,-0.24926,1.3513,1.3264,-0.0249,0.4015,0.7933,0.3918,A
56,0.49851,0.1,2,0.23264,0.22433,0.88901,56,2.65042,0.618,0.30742,0.80593,5,2D1U,2.0,True,0.182,3,False,right,0.08309,1.8305,2.5552,0.7247,0.1051,0.8555,0.7504,A
57,0.49851,0.1,2,0.40712,0.24926,0.80593,57,2.15192,-0.618,-0.30742,0.1911,5,2U1D,1.0,True,0.325,5,False,left,-0.24926,1.7592,1.8665,0.1073,0.4503,0.8673,0.4169,A
58,0.49851,0.1,1,0.3905,0.28249,0.54005,58,1.7614,-0.9,-0.44866,0.04985,5,lapse_rate,2.0,True,0.147,0,False,right,0.08309,0.311,0.5276,0.2166,0.9438,1.6943,0.7504,A
59,0.49851,1.2,1,0.33234,0.29911,0.52344,59,2.45933,0.618,0.30742,0.80593,5,2D1U,1.0,True,0.809,3,False,left,-0.24926,0.2675,1.2174,0.9499,1.8011,2.1924,0.3913,A
60,0.49851,0.1,2,0.40712,0.2908,0.84747,60,2.99107,0.9,0.44866,0.94717,5,lapse_rate,2.0,True,0.113,0,False,right,0.08309,1.9674,2.8338,0.8664,0.2833,1.0343,0.751,A
61,0.49851,1.2,2,0.38219,0.42374,0.47359,61,1.96913,-0.618,-0.30742,0.1911,5,2U1D,1.0,True,0.141,5,False,left,-0.24926,1.3763,1.4931,0.1168,0.4426,0.8351,0.3924,A
62,0.49851,0.1,2,0.21602,0.44866,0.86409,62,2.07713,-0.9,-0.44866,0.04985,5,lapse_rate,1.0,True,1.103,0,False,left,0.08309,1.788,1.7547,-0.0333,0.088,0.838,0.7501,A
63,0.49851,0.1,2,0.22433,0.31572,0.76438,63,2.01065,-0.582,-0.2908,0.20771,5,2U1D,1.0,True,11.22,6,True,left,-0.24926,1.5307,1.6556,0.1249,0.2637,0.6805,0.4168,A
64,0.49851,0.1,1,0.28249,0.25756,0.57329,64,2.40116,0.582,0.2908,0.78931,5,2D1U,1.0,True,0.655,4,True,left,0.08309,0.1989,1.1573,0.9584,1.6072,2.3573,0.7501,A
65,0.49851,1.2,1,0.20771,0.42374,0.54005,65,1.87772,-0.582,-0.2908,0.20771,5,2U1D,1.0,False,1.033,6,True,left,-0.24926,0.1435,0.4937,0.3501,1.0934,1.4849,0.3915,A
66,0.49851,1.2,1,0.38219,0.35727,0.88901,66,3.07415,0.9,0.44866,0.94717,5,lapse_rate,2.0,False,0.656,0,False,right,0.08309,0.3114,1.4028,1.0914,2.1863,2.9113,0.725,A
