,standardDur,riseDur,order,preDur,postDur,isiDur,trial_num,totalDur,delta_dur_percents,deltaDurS,testDurS,intensities,current_stair,responses,is_correct,response_rts,stair_num_reversal,stair_is_reversal,response_keys,conflictDur,recordedOnsetVisualTest,recordedOffsetVisualTest,recordedDurVisualTest,recordedOnsetVisualStandard,recordedOffsetVisualStandard,recordedDurVisualStandard,modalityPostCue
0,0.4997,1.1993,2,0.4831,0.5414,0.558,0,2.2071,-0.75,-0.3748,0.1249,5,3U1D,1.0,True,0.509,0,False,left,-0.05,1.6528,1.7278,0.075,0.4112,1.0527,0.6415,A
1,0.4997,0.0999,2,0.5414,0.4581,0.7163,1,2.3154,-0.8,-0.3998,0.0999,5,lapse_rate,1.0,True,4.587,0,False,left,0.05,1.8704,1.9204,0.05,0.4703,1.1118,0.6415,A
2,0.4997,1.1993,1,0.6496,0.4498,0.6413,2,3.1149,0.75,0.3748,0.8745,5,3D1U,1.0,True,1.955,0,False,left,0.0,0.6087,1.5748,0.966,2.1745,2.766,0.5915,V
3,0.4997,0.0999,2,0.4914,0.5664,0.5664,3,3.0234,0.8,0.3998,0.8995,5,lapse_rate,2.0,True,2.401,0,False,right,-0.05,1.6694,2.5191,0.8497,0.4193,1.0612,0.6419,V
4,0.4997,1.1993,1,0.5664,0.5997,0.683,4,2.4737,-0.75,-0.3748,0.1249,5,2U1D,2.0,True,1.956,0,False,right,0.05,0.5227,0.7395,0.2168,1.3564,1.998,0.6417,A
5,0.4997,0.0999,1,0.4831,0.5081,0.8495,5,2.4653,-0.75,-0.3748,0.1249,5,3U1D,2.0,True,1.736,0,False,right,0.0,0.44,0.6564,0.2164,1.4648,2.0564,0.5916,A
6,0.4997,0.0999,2,0.6247,0.583,0.6247,6,3.2066,0.75,0.3748,0.8745,5,2D1U,2.0,True,2.345,0,False,right,-0.05,1.8609,2.6859,0.825,0.5527,1.1944,0.6417,A
7,0.4997,0.0999,2,0.4747,0.4747,0.633,7,2.9566,0.75,0.3748,0.8745,5,2D1U,2.0,True,0.175,0,False,right,0.05,1.7204,2.5449,0.8245,0.4036,1.0452,0.6416,A
8,0.4997,1.1993,1,0.4081,0.633,0.4997,8,2.1654,-0.75,-0.3748,0.1249,5,3U1D,2.0,True,1.853,0,False,right,0.0,0.363,0.5799,0.2169,1.038,1.6298,0.5918,V
9,0.4997,1.1993,2,0.5913,0.4248,0.6163,9,2.232,-0.8,-0.3998,0.0999,5,lapse_rate,1.0,True,1.767,0,False,left,-0.05,1.8197,1.8696,0.0499,0.5197,1.1615,0.6418,V
10,0.4997,1.1993,1,0.4747,0.4081,0.7829,10,2.2903,-0.75,-0.3748,0.1249,5,2U1D,1.0,False,2.416,0,False,left,0.05,0.4323,0.6489,0.2166,1.3659,2.0074,0.6415,V
11,0.4997,1.1993,2,0.4997,0.4414,0.8829,11,3.1982,0.75,0.3748,0.8745,5,3D1U,2.0,True,1.503,0,False,right,0.0,1.9767,2.8014,0.8247,0.4596,1.0513,0.5916,A
12,0.4997,0.0999,2,0.4164,0.4664,0.5081,12,1.9406,-0.9,-0.4498,0.05,5,2U1D,1.0,True,2.125,0,False,left,-0.05,1.5364,1.5364,0.0,0.3449,0.9868,0.6419,V
13,0.4997,0.0999,1,0.5913,0.5081,0.8412,13,3.3148,0.75,0.3748,0.8745,5,3D1U,1.0,True,2.322,0,False,left,0.05,0.5468,1.5137,0.9669,2.2889,2.9303,0.6415,A
14,0.4997,0.0999,2,0.5664,0.4664,0.533,14,2.2654,-0.6,-0.2998,0.1999,5,3U1D,1.0,True,4.505,0,False,left,0.0,1.6891,1.8392,0.15,0.5223,1.1138,0.5915,A
15,0.4997,1.1993,2,0.6163,0.5414,0.8829,15,2.6402,-0.8,-0.3998,0.0999,5,lapse_rate,1.0,True,1.782,0,False,left,-0.05,2.1159,2.1656,0.0498,0.5491,1.191,0.6419,A
16,0.4997,1.1993,1,0.4747,0.4498,0.8745,16,3.0983,0.6,0.2998,0.7996,5,2D1U,1.0,True,2.807,0,False,left,0.05,0.4347,1.3266,0.8919,2.1349,2.7765,0.6416,A
17,0.4997,1.1993,1,0.4081,0.633,0.7829,17,2.5236,-0.6,-0.2998,0.1999,5,3U1D,2.0,True,1.134,0,False,right,0.0,0.3627,0.6543,0.2916,1.3965,1.9877,0.5912,A
18,0.4997,1.1993,1,0.583,0.4664,0.8079,18,3.1566,0.6,0.2998,0.7996,5,3D1U,1.0,True,0.48,0,False,left,-0.05,0.5404,1.4317,0.8913,2.1732,2.8146,0.6414,V
19,0.4997,1.1993,2,0.5081,0.3998,0.7829,19,2.2904,-0.8,-0.3998,0.0999,5,lapse_rate,1.0,True,3.059,0,False,left,0.05,1.9063,1.9562,0.05,0.4399,1.0815,0.6416,A
20,0.4997,0.0999,2,0.4331,0.5997,0.658,20,2.2405,-0.9,-0.4498,0.05,5,2U1D,1.0,True,2.409,0,False,left,0.0,1.6838,1.6838,0.0,0.3927,0.9841,0.5914,A
21,0.4997,0.0999,2,0.5664,0.5164,0.533,21,2.9151,0.6,0.2998,0.7996,5,2D1U,2.0,True,2.955,0,False,right,-0.05,1.7149,2.4648,0.75,0.498,1.14,0.6419,V
22,0.4997,0.0999,1,0.5997,0.5081,0.5664,22,2.2655,-0.81,-0.4081,0.0916,5,2U1D,2.0,True,1.653,1,True,right,0.05,0.5561,0.7392,0.1831,1.2394,1.8812,0.6417,A
23,0.4997,1.1993,1,0.5664,0.6413,0.5913,23,2.4986,-0.6,-0.2998,0.1999,5,3U1D,2.0,True,1.343,0,False,right,0.0,0.5236,0.8154,0.2917,1.3653,1.9569,0.5917,V
24,0.4997,0.0999,1,0.4498,0.4997,0.583,24,2.1321,-0.8,-0.3998,0.0999,5,lapse_rate,2.0,True,0.512,0,False,right,-0.05,0.4066,0.598,0.1914,1.1145,1.7564,0.6418,A
25,0.4997,1.1993,2,0.633,0.5497,0.5164,25,2.9234,0.45,0.2249,0.7246,5,2D1U,2.0,True,0.291,0,False,right,0.05,1.762,2.4371,0.6751,0.5618,1.2037,0.6419,V
26,0.4997,1.1993,1,0.6413,0.4498,0.7996,26,3.19,0.6,0.2998,0.7996,5,3D1U,1.0,True,1.678,0,False,left,0.0,0.6016,1.4928,0.8912,2.2513,2.8427,0.5914,V
27,0.4997,0.0999,1,0.5664,0.4997,0.5997,27,2.2571,-0.81,-0.4081,0.0916,5,2U1D,2.0,True,0.824,1,True,right,-0.05,0.5235,0.7068,0.1833,1.2401,1.8817,0.6416,A
28,0.4997,0.0999,1,0.4248,0.5164,0.6746,28,2.8401,0.45,0.2249,0.7246,5,2D1U,2.0,False,0.934,0,False,right,0.05,0.3819,1.1984,0.8164,1.8066,2.4484,0.6418,V
29,0.4997,0.0999,2,0.4164,0.5414,0.5497,29,2.8068,0.6,0.2998,0.7996,5,3D1U,2.0,True,1.027,0,False,right,0.0,1.5585,2.3082,0.7497,0.375,0.9667,0.5917,V
30,0.4997,0.0999,2,0.5164,0.583,0.5081,30,2.2071,-0.8,-0.3998,0.0999,5,lapse_rate,1.0,True,0.32,0,False,left,-0.05,1.6379,1.6877,0.0499,0.4461,1.0878,0.6417,A
31,0.4997,1.1993,1,0.5747,0.4664,0.5747,31,2.3904,-0.45,-0.2249,0.2749,5,3U1D,2.0,True,0.272,0,False,right,0.05,0.5339,0.9006,0.3667,1.4088,2.0506,0.6418,A
32,0.4997,1.1993,1,0.4664,0.6413,0.8829,32,2.6319,-0.72,-0.3581,0.1416,5,2U1D,2.0,True,0.659,1,False,right,0.0,0.4219,0.6553,0.2334,1.4971,2.0884,0.5913,A
33,0.4997,1.1993,1,0.558,0.4914,0.8579,33,2.6819,-0.45,-0.2249,0.2749,5,3U1D,2.0,True,0.575,0,False,right,-0.05,0.5186,0.8853,0.3667,1.6771,2.3188,0.6417,A
34,0.4997,0.0999,2,0.5913,0.533,0.8995,34,3.2481,0.45,0.2249,0.7246,5,3D1U,2.0,True,0.436,0,False,right,0.05,2.1076,2.7829,0.6754,0.5247,1.1661,0.6414,V
35,0.4997,0.0999,2,0.5164,0.5497,0.5497,35,3.015,0.8,0.3998,0.8995,5,lapse_rate,2.0,True,0.16,0,False,right,0.0,1.6606,2.5103,0.8497,0.4769,1.0689,0.592,A
36,0.4997,0.0999,2,0.533,0.558,0.5414,36,2.8983,0.54,0.2665,0.7662,5,2D1U,1.0,False,2.117,1,True,left,-0.05,1.6856,2.402,0.7164,0.4604,1.1022,0.6418,A
37,0.4997,0.0999,2,0.4498,0.6496,0.7329,37,3.1482,0.63,0.3165,0.8162,5,2D1U,1.0,False,1.186,1,False,left,0.05,1.7979,2.5649,0.767,0.3811,1.0226,0.6415,V
38,0.4997,1.1993,2,0.4081,0.4747,0.7496,38,2.407,-0.45,-0.2249,0.2749,5,3U1D,1.0,True,0.468,0,False,left,0.0,1.7462,1.9706,0.2245,0.3627,0.9543,0.5916,V
39,0.4997,1.1993,2,0.5164,0.633,0.8745,39,3.2482,0.45,0.2249,0.7246,5,3D1U,1.0,False,1.191,0,False,left,-0.05,2.003,2.6777,0.6747,0.4447,1.086,0.6414,V
40,0.4997,0.0999,2,0.533,0.5414,0.5997,40,2.2737,-0.8,-0.3998,0.0999,5,lapse_rate,1.0,True,0.496,0,False,left,0.05,1.7499,1.8,0.0502,0.4666,1.1082,0.6416,V
41,0.4997,1.1993,1,0.4498,0.608,0.8745,41,2.5736,-0.72,-0.3581,0.1416,5,2U1D,1.0,False,2.037,1,False,left,0.0,0.4047,0.638,0.2333,1.4715,2.0632,0.5916,A
42,0.4997,0.0999,1,0.4831,0.4581,0.6496,42,2.2071,-0.774,-0.3831,0.1166,5,2U1D,2.0,True,1.653,2,True,right,-0.05,0.4364,0.6442,0.2079,1.228,1.8696,0.6416,A
43,0.4997,0.0999,2,0.4997,0.6247,0.6496,43,2.3736,-0.8,-0.3998,0.0999,5,lapse_rate,2.0,False,2.02,0,False,right,0.05,1.7625,1.8123,0.0498,0.429,1.0705,0.6415,A
44,0.4997,0.0999,2,0.558,0.4997,0.8079,44,3.2232,0.72,0.3581,0.8579,5,2D1U,2.0,True,1.954,1,False,right,0.0,1.9534,2.7615,0.8081,0.5118,1.1034,0.5917,A
45,0.4997,0.0999,1,0.4164,0.5497,0.7829,45,2.5985,-0.3,-0.1499,0.3498,5,3U1D,2.0,True,2.066,0,False,right,-0.05,0.3732,0.8148,0.4417,1.531,2.1731,0.6421,V
46,0.4997,1.1993,2,0.4914,0.5081,0.8995,46,3.1649,0.54,0.2665,0.7662,5,3D1U,1.0,False,2.713,1,True,left,0.05,2.0057,2.7224,0.7167,0.4227,1.0643,0.6416,V
47,0.4997,1.1993,2,0.608,0.6163,0.533,47,3.1565,0.8,0.3998,0.8995,5,lapse_rate,2.0,True,0.231,0,False,right,0.0,1.7278,2.5781,0.8503,0.5616,1.1532,0.5917,A
48,0.4997,1.1993,1,0.3998,0.5497,0.7662,48,3.0733,0.72,0.3581,0.8579,5,2D1U,2.0,False,1.098,1,False,right,-0.05,0.3526,1.3026,0.95,2.0027,2.6448,0.6421,A
49,0.4997,1.1993,1,0.4914,0.4914,0.658,49,2.2571,-0.774,-0.3831,0.1166,5,2U1D,2.0,True,1.619,2,True,right,0.05,0.4502,0.6589,0.2087,1.2501,1.8918,0.6417,A
50,0.4997,0.0999,1,0.4747,0.6496,0.5747,50,3.0149,0.63,0.3165,0.8162,5,3D1U,1.0,True,1.054,1,False,left,0.0,0.4291,1.3376,0.9085,1.8704,2.4624,0.592,V
51,0.4997,0.0999,2,0.4248,0.5913,0.7329,51,2.5985,-0.3,-0.1499,0.3498,5,3U1D,1.0,True,0.223,0,False,left,-0.05,1.7767,2.0761,0.2994,0.3597,1.001,0.6414,V
52,0.4997,0.0999,2,0.5497,0.4747,0.7662,52,3.1065,0.63,0.3165,0.8162,5,3D1U,2.0,True,0.162,1,False,right,0.05,1.9338,2.7006,0.7668,0.4838,1.1257,0.6418,A
53,0.4997,1.1993,2,0.6496,0.5164,0.533,53,2.3403,-0.72,-0.3581,0.1416,5,2U1D,1.0,True,2.467,3,True,left,0.0,1.771,1.8626,0.0916,0.6046,1.1962,0.5916,A
54,0.4997,0.0999,1,0.6247,0.6163,0.6996,54,2.5402,-0.8,-0.3998,0.0999,5,lapse_rate,2.0,True,1.831,0,False,right,-0.05,0.5792,0.7707,0.1915,1.4042,2.0457,0.6416,V
55,0.4997,1.1993,2,0.633,0.4414,0.7163,55,2.6402,-0.3,-0.1499,0.3498,5,3U1D,2.0,False,1.576,0,False,right,0.05,1.9613,2.261,0.2997,0.561,1.2027,0.6417,V
56,0.4997,1.1993,2,0.5247,0.5497,0.533,56,3.0149,0.81,0.4081,0.9078,5,2D1U,2.0,True,0.159,1,False,right,0.0,1.645,2.5032,0.8582,0.4782,1.07,0.5917,A
57,0.4997,0.0999,2,0.5913,0.4414,0.5247,57,2.8733,0.63,0.3165,0.8162,5,3D1U,1.0,False,0.273,1,False,left,-0.05,1.7283,2.4945,0.7662,0.52,1.1615,0.6415,A
58,0.4997,0.0999,1,0.5247,0.5664,0.7996,58,3.2982,0.81,0.4081,0.9078,5,2D1U,1.0,True,2.16,1,False,left,0.05,0.4852,1.4851,0.9999,2.2186,2.8602,0.6417,V
59,0.4997,0.0999,1,0.4581,0.5081,0.608,59,2.2155,-0.72,-0.3581,0.1416,5,2U1D,2.0,True,1.052,3,True,right,0.0,0.4109,0.6444,0.2335,1.2107,1.8022,0.5915,V
60,0.4997,1.1993,2,0.4498,0.533,0.5414,60,2.3321,-0.39,-0.1916,0.3082,5,3U1D,2.0,False,1.15,1,True,right,-0.05,1.6053,1.8635,0.2583,0.3801,1.022,0.6418,V
61,0.4997,0.0999,1,0.608,0.6413,0.5997,61,3.2482,0.8,0.3998,0.8995,5,lapse_rate,1.0,True,0.268,0,False,left,0.05,0.5662,1.5577,0.9915,2.0909,2.7328,0.6419,V
62,0.4997,1.1993,2,0.5664,0.5247,0.7996,62,2.557,-0.666,-0.3332,0.1666,5,2U1D,1.0,True,1.147,3,False,left,0.0,1.9518,2.0685,0.1166,0.5181,1.1098,0.5917,V
63,0.4997,1.1993,1,0.4164,0.6413,0.5247,63,2.9566,0.756,0.3748,0.8745,5,2D1U,1.0,True,0.778,2,True,left,-0.05,0.3747,1.3412,0.9666,1.7995,2.4412,0.6417,V
64,0.4997,0.0999,1,0.6163,0.5081,0.8912,64,3.3732,0.72,0.3581,0.8579,5,3D1U,1.0,True,1.578,1,False,left,0.05,0.5749,1.5248,0.9499,2.3495,2.991,0.6416,A
65,0.4997,1.1993,2,0.5997,0.5747,0.6663,65,3.2399,0.8,0.3998,0.8995,5,lapse_rate,2.0,True,0.665,0,False,right,0.0,1.8539,2.7035,0.8496,0.5538,1.1454,0.5917,A
66,0.4997,0.0999,1,0.5497,0.6163,0.7829,66,2.7068,-0.48,-0.2415,0.2582,5,3U1D,2.0,True,2.387,1,False,right,-0.05,0.5025,0.8522,0.3497,1.5693,2.2108,0.6415,V
67,0.4997,0.0999,2,0.5747,0.633,0.608,67,3.1733,0.72,0.3581,0.8579,5,3D1U,1.0,False,2.183,1,False,left,0.05,1.7982,2.6068,0.8086,0.5066,1.1485,0.6419,V
68,0.4997,1.1993,1,0.5913,0.4248,0.8579,68,2.5403,-0.666,-0.3332,0.1666,5,2U1D,1.0,False,3.39,3,False,left,0.0,0.5456,0.8035,0.258,1.6205,2.212,0.5915,A
69,0.4997,1.1993,1,0.4831,0.5747,0.5081,69,2.3238,-0.48,-0.2415,0.2582,5,3U1D,2.0,True,0.583,1,False,right,-0.05,0.442,0.7921,0.3501,1.234,1.8752,0.6412,A
70,0.4997,1.1993,1,0.4248,0.4498,0.7579,70,3.0067,0.756,0.3748,0.8745,5,2D1U,1.0,True,1.421,2,True,left,0.05,0.3799,1.3465,0.9666,2.0382,2.6801,0.6419,V
71,0.4997,0.0999,2,0.5414,0.4081,0.5164,71,2.8651,0.8,0.3998,0.8995,5,lapse_rate,2.0,True,1.413,0,False,right,0.0,1.6471,2.4975,0.8504,0.4973,1.089,0.5917,A
72,0.4997,0.0999,1,0.533,0.4414,0.5664,72,2.2987,-0.48,-0.2415,0.2582,5,3U1D,2.0,True,1.892,1,False,right,-0.05,0.4931,0.843,0.3498,1.3431,1.9846,0.6415,V
73,0.4997,1.1993,2,0.633,0.4498,0.5247,73,3.0067,0.8,0.3998,0.8995,5,lapse_rate,2.0,True,0.895,0,False,right,0.05,1.7707,2.6204,0.8497,0.5621,1.2039,0.6418,V
74,0.4997,0.0999,1,0.4581,0.4914,0.5247,74,2.8234,0.702,0.3498,0.8495,5,2D1U,2.0,False,1.752,2,False,right,0.0,0.4117,1.353,0.9413,1.8368,2.4282,0.5915,A
75,0.4997,0.0999,2,0.4331,0.4747,0.7829,75,2.332,-0.72,-0.3581,0.1416,5,2U1D,2.0,False,3.153,4,True,right,-0.05,1.8337,1.9254,0.0917,0.3672,1.0088,0.6417,V
76,0.4997,1.1993,2,0.5164,0.6163,0.608,76,3.1482,0.81,0.4081,0.9078,5,3D1U,2.0,True,2.22,1,False,right,0.05,1.741,2.5992,0.8582,0.4493,1.091,0.6416,A
77,0.4997,1.1993,2,0.5247,0.608,0.7829,77,2.6985,-0.426,-0.2165,0.2832,5,3U1D,1.0,True,0.606,2,True,left,0.0,1.8988,2.1322,0.2333,0.4819,1.0738,0.5919,A
78,0.4997,1.1993,2,0.4831,0.4581,0.5497,78,2.8984,0.81,0.4081,0.9078,5,3D1U,2.0,True,0.261,1,False,right,-0.05,1.6455,2.5035,0.858,0.4117,1.0535,0.6417,V
79,0.4997,0.0999,1,0.4581,0.4914,0.7496,79,3.0733,0.756,0.3748,0.8745,5,2D1U,2.0,False,0.372,3,True,right,0.05,0.417,1.3838,0.9668,2.0668,2.709,0.6421,A
80,0.4997,0.0999,1,0.4164,0.4414,0.7496,80,2.207,-0.8,-0.3998,0.0999,5,lapse_rate,2.0,True,0.823,0,False,right,0.0,0.3738,0.5652,0.1914,1.2736,1.8651,0.5915,V
81,0.4997,0.0999,1,0.5997,0.4414,0.8329,81,2.4903,-0.774,-0.3831,0.1166,5,2U1D,2.0,True,2.566,4,False,right,-0.05,0.5584,0.7667,0.2083,1.5332,2.1747,0.6415,A
82,0.4997,0.0999,2,0.4081,0.6496,0.6996,82,3.1648,0.81,0.4081,0.9078,5,3D1U,2.0,True,1.286,1,False,right,0.05,1.7244,2.5827,0.8583,0.3411,0.9828,0.6417,V
83,0.4997,1.1993,2,0.5747,0.4498,0.6247,83,3.0567,0.81,0.4081,0.9078,5,2D1U,2.0,True,2.608,3,False,right,0.0,1.793,2.6513,0.8583,0.5346,1.1263,0.5918,A
84,0.4997,0.0999,1,0.5497,0.4498,0.7329,84,3.1316,0.8,0.3998,0.8995,5,lapse_rate,1.0,True,1.975,0,False,left,-0.05,0.507,1.4988,0.9919,2.1655,2.8067,0.6412,V
85,0.4997,1.1993,1,0.4164,0.558,0.7746,85,2.3653,-0.774,-0.3831,0.1166,5,2U1D,1.0,False,1.313,4,False,left,0.05,0.3716,0.58,0.2084,1.2882,1.9301,0.6418,A
86,0.4997,1.1993,1,0.5164,0.4248,0.608,86,2.3321,-0.426,-0.2165,0.2832,5,3U1D,2.0,True,0.589,2,True,right,0.0,0.4751,0.85,0.3749,1.4168,2.0083,0.5915,A
87,0.4997,0.0999,1,0.6163,0.4331,0.7413,87,2.5736,-0.426,-0.2165,0.2832,5,3U1D,2.0,True,0.748,2,True,right,-0.05,0.5725,0.9473,0.3748,1.6226,2.2642,0.6416,V
88,0.4997,0.0999,1,0.6413,0.4331,0.8579,88,3.3065,0.756,0.3748,0.8745,5,3D1U,1.0,True,1.165,2,True,left,0.05,0.6,1.5666,0.9666,2.3581,3.0,0.6418,V
89,0.4997,0.0999,2,0.6163,0.4081,0.8912,89,3.3148,0.8,0.3998,0.8995,5,lapse_rate,2.0,True,0.208,0,False,right,0.0,2.0958,2.9454,0.8496,0.5709,1.1625,0.5915,V
90,0.4997,0.0999,1,0.4331,0.4914,0.6746,90,2.1821,-0.828,-0.4164,0.0833,5,2U1D,2.0,True,3.346,4,False,right,-0.05,0.3904,0.5654,0.1751,1.1737,1.8151,0.6414,V
91,0.4997,1.1993,2,0.6247,0.4997,0.6996,91,3.2315,0.81,0.4081,0.9078,5,2D1U,2.0,True,3.622,3,False,right,0.05,1.9383,2.7972,0.8588,0.5555,1.1969,0.6414,V
92,0.4997,1.1993,1,0.4331,0.5664,0.6996,92,2.5153,-0.372,-0.1832,0.3165,5,3U1D,1.0,False,1.209,2,False,left,0.0,0.3884,0.7969,0.4086,1.4555,2.0465,0.591,V
93,0.4997,1.1993,2,0.4581,0.5497,0.8662,93,3.2482,0.756,0.3748,0.8745,5,3D1U,2.0,True,0.577,2,True,right,-0.05,1.943,2.7679,0.8249,0.393,1.0347,0.6417,V
94,0.4997,1.1993,1,0.5664,0.4581,0.8329,94,3.2566,0.8,0.3998,0.8995,5,lapse_rate,1.0,True,1.002,0,False,left,0.05,0.5235,1.5151,0.9916,2.2818,2.9235,0.6416,V
95,0.4997,0.0999,1,0.6413,0.6163,0.7246,95,3.3564,0.756,0.3748,0.8745,5,2D1U,1.0,True,0.913,4,True,left,0.0,0.5977,1.564,0.9664,2.2474,2.8388,0.5914,V
96,0.4997,0.0999,1,0.4664,0.4331,0.5247,96,2.0072,-0.828,-0.4164,0.0833,5,2U1D,2.0,True,0.931,4,False,right,-0.05,0.4247,0.5993,0.1746,1.0572,1.6995,0.6423,V
97,0.4997,1.1993,2,0.4997,0.608,0.6413,97,3.1482,0.8,0.3998,0.8995,5,lapse_rate,2.0,True,0.162,0,False,right,0.05,1.755,2.6049,0.85,0.4303,1.0716,0.6413,V
98,0.4997,0.0999,1,0.4081,0.4831,0.5497,98,2.0572,-0.774,-0.3831,0.1166,5,2U1D,2.0,True,0.23,5,True,right,0.0,0.3655,0.5734,0.2079,1.0819,1.674,0.5921,A
99,0.4997,1.1993,1,0.5414,0.5164,0.8662,99,3.2982,0.756,0.3748,0.8745,5,2D1U,1.0,True,0.739,4,True,left,-0.05,0.498,1.4647,0.9668,2.2648,2.9064,0.6416,V
100,0.4997,1.1993,2,0.4664,0.5664,0.6413,100,3.0483,0.756,0.3748,0.8745,5,3D1U,2.0,True,0.168,2,True,right,0.05,1.7202,2.5449,0.8247,0.3956,1.037,0.6414,V
101,0.4997,1.1993,1,0.5164,0.4914,0.683,101,2.4737,-0.426,-0.2165,0.2832,5,3U1D,2.0,True,0.578,3,True,right,0.0,0.4764,0.8515,0.3752,1.4928,2.0842,0.5914,V
102,0.4997,0.0999,1,0.5414,0.5081,0.5497,102,2.2155,-0.774,-0.3831,0.1166,5,2U1D,2.0,True,0.164,5,True,right,-0.05,0.5006,0.7085,0.2079,1.192,1.8339,0.6419,A
103,0.4997,0.0999,1,0.4414,0.558,0.5247,103,2.1237,-0.8,-0.3998,0.0999,5,lapse_rate,2.0,True,0.599,0,False,right,0.05,0.3963,0.5882,0.1919,1.0461,1.6884,0.6423,V
104,0.4997,0.0999,1,0.5081,0.5164,0.8829,104,3.2566,0.702,0.3498,0.8495,5,2D1U,1.0,True,1.867,4,False,left,0.0,0.4677,1.4091,0.9414,2.251,2.8427,0.5917,A
105,0.4997,0.0999,1,0.6413,0.4747,0.7496,105,3.2148,0.702,0.3498,0.8495,5,3D1U,2.0,False,2.408,2,False,right,-0.05,0.5976,1.5391,0.9415,2.2222,2.8642,0.642,V
106,0.4997,1.1993,2,0.4831,0.5414,0.6163,106,2.4237,-0.426,-0.2165,0.2832,5,3U1D,1.0,True,0.741,3,True,left,0.05,1.715,1.9483,0.2333,0.4152,1.0568,0.6417,V
107,0.4997,1.1993,1,0.6247,0.633,0.8329,107,2.7319,-0.72,-0.3581,0.1416,5,2U1D,2.0,True,0.284,5,False,right,0.0,0.5816,0.815,0.2334,1.6068,2.1984,0.5916,A
108,0.4997,1.1993,2,0.4664,0.5997,0.7829,108,2.6319,-0.426,-0.2165,0.2832,5,3U1D,2.0,False,1.409,3,True,right,-0.05,1.8679,2.1012,0.2333,0.4012,1.0428,0.6416,A
109,0.4997,0.0999,2,0.4997,0.608,0.5497,109,3.0316,0.756,0.3748,0.8745,5,3D1U,2.0,True,0.517,3,True,right,0.05,1.6666,2.4916,0.825,0.4333,1.0749,0.6417,A
110,0.4997,1.1993,1,0.5081,0.4581,0.5664,110,2.9318,0.8,0.3998,0.8995,5,lapse_rate,2.0,False,1.417,0,False,right,0.0,0.463,1.4543,0.9914,1.9794,2.5713,0.5919,A
111,0.4997,0.0999,1,0.633,0.5747,0.5664,111,3.1233,0.702,0.3498,0.8495,5,2D1U,1.0,True,2.626,4,False,left,-0.05,0.5923,1.5343,0.942,2.0344,2.6759,0.6416,A
112,0.4997,0.0999,2,0.5164,0.4997,0.6247,112,3.015,0.756,0.3748,0.8745,5,3D1U,2.0,True,0.413,3,True,right,0.05,1.754,2.579,0.825,0.4459,1.0871,0.6412,A
113,0.4997,1.1993,2,0.5664,0.5747,0.558,113,3.0234,0.648,0.3248,0.8246,5,2D1U,1.0,False,1.81,4,False,left,0.0,1.7128,2.488,0.7752,0.5211,1.1129,0.5918,V
114,0.4997,1.1993,2,0.5497,0.4914,0.8829,114,2.6819,-0.48,-0.2415,0.2582,5,3U1D,1.0,True,0.872,3,False,left,-0.05,2.0442,2.2526,0.2084,0.4772,1.1191,0.6419,A
115,0.4997,0.0999,2,0.5664,0.5414,0.7579,115,3.2649,0.8,0.3998,0.8995,5,lapse_rate,2.0,True,0.161,0,False,right,0.05,1.9377,2.7881,0.8504,0.4963,1.1379,0.6416,V
116,0.4997,1.1993,2,0.608,0.558,0.7996,116,2.6069,-0.72,-0.3581,0.1416,5,2U1D,1.0,True,0.639,5,False,left,0.0,1.9947,2.0866,0.0919,0.5615,1.1532,0.5917,A
117,0.4997,0.0999,1,0.5747,0.5247,0.7996,117,3.2482,0.702,0.3498,0.8495,5,2D1U,1.0,True,2.434,5,True,left,-0.05,0.5344,1.4763,0.9419,2.2094,2.8511,0.6417,V
118,0.4997,0.0999,2,0.4498,0.5997,0.6163,118,2.3321,-0.666,-0.3332,0.1666,5,2U1D,1.0,True,1.123,5,False,left,0.05,1.6845,1.8009,0.1164,0.385,1.0262,0.6412,V
119,0.4997,0.0999,2,0.5497,0.4997,0.6663,119,3.0899,0.756,0.3748,0.8745,5,3D1U,2.0,True,0.506,3,True,right,0.0,1.8085,2.6335,0.825,0.5084,1.1003,0.5918,A
120,0.4997,1.1993,2,0.5081,0.4581,0.5497,120,2.2738,-0.48,-0.2415,0.2582,5,3U1D,1.0,True,1.682,3,False,left,-0.05,1.6706,1.879,0.2084,0.4375,1.0789,0.6414,A
121,0.4997,1.1993,1,0.4248,0.5747,0.658,121,3.0567,0.8,0.3998,0.8995,5,lapse_rate,2.0,False,1.067,0,False,right,0.05,0.3837,1.3753,0.9916,1.967,2.6084,0.6414,V
122,0.4997,1.1993,1,0.4997,0.5747,0.5913,122,3.0149,0.702,0.3498,0.8495,5,2D1U,1.0,True,0.44,5,True,left,0.0,0.4522,1.3938,0.9415,1.9435,2.5354,0.5919,A
123,0.4997,1.1993,2,0.4914,0.5997,0.6247,123,2.3821,-0.666,-0.3332,0.1666,5,2U1D,2.0,False,0.825,5,False,right,-0.05,1.735,1.8514,0.1164,0.4261,1.0681,0.6421,A
124,0.4997,1.1993,1,0.5247,0.6163,0.608,124,3.1482,0.8,0.3998,0.8995,5,lapse_rate,1.0,True,1.575,0,False,left,0.05,0.4814,1.473,0.9916,2.015,2.6562,0.6412,V
125,0.4997,0.0999,1,0.558,0.5997,0.6913,125,3.1982,0.702,0.3498,0.8495,5,3D1U,2.0,False,0.54,4,True,right,0.0,0.5137,1.4549,0.9412,2.1056,2.6971,0.5915,A
126,0.4997,0.0999,1,0.5247,0.5081,0.5747,126,2.3654,-0.48,-0.2415,0.2582,5,3U1D,2.0,True,2.403,3,False,right,-0.05,0.4789,0.8291,0.3501,1.3372,1.979,0.6418,A
127,0.4997,0.0999,2,0.4747,0.608,0.8579,127,2.7235,-0.426,-0.2165,0.2832,5,3U1D,1.0,True,1.991,4,True,left,0.05,1.9453,2.1783,0.233,0.4038,1.0456,0.6418,A
128,0.4997,1.1993,1,0.633,0.6247,0.5664,128,3.1484,0.648,0.3248,0.8246,5,2D1U,1.0,True,0.16,6,True,left,0.0,0.5861,1.5026,0.9165,2.0276,2.6193,0.5918,A
129,0.4997,1.1993,2,0.4997,0.6163,0.8329,129,3.3231,0.756,0.3748,0.8745,5,3D1U,2.0,True,0.165,5,True,right,-0.05,1.9461,2.7711,0.825,0.4292,1.071,0.6418,V
130,0.4997,1.1993,1,0.633,0.4914,0.7829,130,2.5486,-0.72,-0.3581,0.1416,5,2U1D,2.0,True,0.162,6,True,right,0.05,0.5926,0.826,0.2333,1.5427,2.1843,0.6416,V
131,0.4997,1.1993,2,0.4831,0.4081,0.5664,131,2.0572,-0.8,-0.3998,0.0999,5,lapse_rate,1.0,True,1.024,0,False,left,0.0,1.6431,1.693,0.0499,0.4432,1.0346,0.5914,V
132,0.4997,0.0999,1,0.4581,0.4331,0.8162,132,2.3487,-0.72,-0.3581,0.1416,5,2U1D,2.0,True,0.163,6,True,right,-0.05,0.4126,0.6459,0.2333,1.3957,2.0375,0.6418,A
133,0.4997,0.0999,2,0.5664,0.558,0.5747,133,2.482,-0.426,-0.2165,0.2832,5,3U1D,2.0,False,0.654,4,True,right,0.05,1.753,1.9863,0.2333,0.4945,1.1364,0.6419,V
134,0.4997,0.0999,1,0.4331,0.5247,0.5497,134,2.8318,0.648,0.3248,0.8246,5,2D1U,1.0,True,0.942,6,True,left,0.0,0.3893,1.306,0.9167,1.8143,2.4057,0.5913,V
135,0.4997,1.1993,2,0.4664,0.5164,0.5913,135,2.9483,0.756,0.3748,0.8745,5,3D1U,1.0,False,0.671,5,True,left,-0.05,1.6771,2.502,0.8249,0.402,1.0436,0.6416,V
136,0.4997,0.0999,2,0.4331,0.558,0.5913,136,2.9816,0.8,0.3998,0.8995,5,lapse_rate,1.0,False,0.742,0,False,left,0.05,1.6374,2.4875,0.85,0.3624,1.0041,0.6417,A
137,0.4997,1.1993,1,0.6413,0.5497,0.8829,137,3.4814,0.81,0.4081,0.9078,5,3D1U,1.0,True,0.541,5,False,left,0.0,0.6017,1.6018,1.0001,2.4431,3.0348,0.5917,A
138,0.4997,1.1993,2,0.633,0.4248,0.7996,138,3.1567,0.594,0.2998,0.7996,5,2D1U,1.0,False,1.624,6,False,left,-0.05,2.0446,2.7945,0.7499,0.5613,1.203,0.6417,A
139,0.4997,0.0999,2,0.533,0.5081,0.8079,139,2.5153,-0.666,-0.3332,0.1666,5,2U1D,1.0,True,2.457,7,True,left,0.05,1.9591,2.0757,0.1166,0.4678,1.1093,0.6415,A
140,0.4997,0.0999,2,0.533,0.633,0.8495,140,2.7734,-0.48,-0.2415,0.2582,5,3U1D,2.0,False,2.796,5,True,right,0.0,1.9696,2.1776,0.208,0.4856,1.0778,0.5922,V
141,0.4997,1.1993,1,0.4914,0.4081,0.8912,141,2.3903,-0.8,-0.3998,0.0999,5,lapse_rate,2.0,True,0.559,0,False,right,-0.05,0.4473,0.6386,0.1913,1.4637,2.1054,0.6418,V
142,0.4997,0.0999,1,0.5497,0.5497,0.7996,142,3.2233,0.648,0.3248,0.8246,5,2D1U,2.0,False,0.936,7,True,right,0.05,0.5088,1.4254,0.9166,2.1586,2.8004,0.6418,V
143,0.4997,1.1993,1,0.4831,0.4081,0.7163,143,2.2071,-0.8,-0.3998,0.0999,5,lapse_rate,2.0,True,0.179,0,False,right,0.0,0.4389,0.6304,0.1915,1.3053,1.8972,0.5919,V
144,0.4997,1.1993,1,0.633,0.5747,0.7329,144,2.6735,-0.534,-0.2665,0.2332,5,3U1D,2.0,True,0.382,5,False,right,-0.05,0.5911,0.916,0.3249,1.5825,2.224,0.6416,V
145,0.4997,1.1993,2,0.4414,0.608,0.8745,145,2.5902,-0.666,-0.3332,0.1666,5,2U1D,1.0,True,0.965,7,True,left,0.05,1.928,2.0455,0.1174,0.3699,1.0114,0.6415,A
146,0.4997,1.1993,1,0.5747,0.4747,0.6663,146,3.1232,0.81,0.4081,0.9078,5,3D1U,1.0,True,3.123,5,False,left,0.0,0.5313,1.5312,0.9999,2.1559,2.7476,0.5917,A
147,0.4997,0.0999,1,0.3998,0.4747,0.6663,147,2.1404,-0.8,-0.3998,0.0999,5,lapse_rate,2.0,True,0.198,0,False,right,-0.05,0.3546,0.5461,0.1914,1.1463,1.7879,0.6416,A
148,0.4997,0.0999,1,0.5664,0.4664,0.5247,148,2.2904,-0.534,-0.2665,0.2332,5,3U1D,2.0,True,0.292,5,False,right,0.05,0.5209,0.8454,0.3246,1.3039,1.9457,0.6418,V
149,0.4997,0.0999,2,0.583,0.5497,0.658,149,3.1982,0.81,0.4081,0.9078,5,3D1U,2.0,True,0.822,5,False,right,0.0,1.8285,2.687,0.8586,0.5365,1.1285,0.5919,V
150,0.4997,0.0999,2,0.5747,0.4414,0.633,150,2.3404,-0.612,-0.3082,0.1916,5,2U1D,1.0,True,0.766,7,False,left,-0.05,1.8214,1.9632,0.1418,0.5048,1.1464,0.6416,A
151,0.4997,1.1993,2,0.3998,0.6163,0.7079,151,3.0732,0.702,0.3498,0.8495,5,2D1U,2.0,True,1.932,7,False,right,0.05,1.7205,2.5205,0.8,0.3291,0.9707,0.6416,A
152,0.4997,1.1993,2,0.4081,0.4914,0.6496,152,2.9233,0.756,0.3748,0.8745,5,3D1U,2.0,True,0.613,6,True,right,0.0,1.6473,2.4722,0.8249,0.3638,0.9556,0.5918,A
153,0.4997,1.1993,1,0.4997,0.4664,0.5747,153,2.2321,-0.612,-0.3082,0.1916,5,2U1D,1.0,False,3.265,7,False,left,-0.05,0.4538,0.7379,0.2841,1.2459,1.8874,0.6415,A
154,0.4997,0.0999,1,0.6163,0.633,0.7579,154,3.3564,0.702,0.3498,0.8495,5,2D1U,1.0,True,2.108,7,False,left,0.05,0.5749,1.5166,0.9417,2.2082,2.8496,0.6415,V
155,0.4997,0.0999,1,0.5913,0.5997,0.6746,155,2.5985,-0.534,-0.2665,0.2332,5,3U1D,2.0,True,0.488,5,False,right,0.0,0.5456,0.8705,0.325,1.5038,2.0952,0.5914,A
156,0.4997,1.1993,1,0.4248,0.4248,0.8745,156,2.3237,-0.8,-0.3998,0.0999,5,lapse_rate,2.0,True,2.04,0,False,right,-0.05,0.3795,0.5708,0.1913,1.3792,2.0207,0.6416,A
157,0.4997,0.0999,1,0.5081,0.583,0.7996,157,2.557,-0.666,-0.3332,0.1666,5,2U1D,2.0,True,2.431,8,True,right,0.05,0.4693,0.7273,0.258,1.4609,2.1024,0.6415,V
158,0.4997,1.1993,1,0.4747,0.633,0.7496,158,3.1816,0.648,0.3248,0.8246,5,2D1U,2.0,False,0.163,8,True,right,0.0,0.431,1.3473,0.9163,2.0553,2.6475,0.5922,A
159,0.4997,1.1993,1,0.4914,0.5247,0.7163,159,3.1066,0.756,0.3748,0.8745,5,3D1U,1.0,True,0.323,6,True,left,-0.05,0.4453,1.4123,0.9669,2.0623,2.7039,0.6417,V
160,0.4997,1.1993,2,0.5414,0.5164,0.8912,160,3.3482,0.8,0.3998,0.8995,5,lapse_rate,1.0,False,0.934,0,False,left,0.05,2.0479,2.8974,0.8495,0.4731,1.1146,0.6415,V
161,0.4997,1.1993,2,0.583,0.633,0.6746,161,2.6485,-0.48,-0.2415,0.2582,5,3U1D,1.0,True,1.301,6,True,left,0.0,1.8453,2.0538,0.2086,0.537,1.1286,0.5916,A
162,0.4997,0.0999,2,0.5997,0.533,0.7912,162,2.5902,-0.666,-0.3332,0.1666,5,2U1D,1.0,True,0.163,8,True,left,-0.05,2.0061,2.1227,0.1166,0.531,1.1727,0.6417,V
163,0.4997,0.0999,2,0.5913,0.633,0.7246,163,3.2981,0.702,0.3498,0.8495,5,2D1U,1.0,False,1.635,9,True,left,0.05,1.9311,2.7313,0.8002,0.5229,1.1644,0.6415,V
164,0.4997,0.0999,1,0.6496,0.6413,0.6413,164,2.6901,-0.48,-0.2415,0.2582,5,3U1D,2.0,True,0.162,6,True,right,0.0,0.6029,0.9531,0.3502,1.553,2.1446,0.5916,A
165,0.4997,1.1993,1,0.5747,0.4664,0.7996,165,3.2399,0.8,0.3998,0.8995,5,lapse_rate,1.0,True,0.701,0,False,left,-0.05,0.5303,1.5223,0.992,2.2556,2.8973,0.6417,V
166,0.4997,1.1993,1,0.5081,0.5497,0.7079,166,3.1399,0.756,0.3748,0.8745,5,3D1U,1.0,True,1.159,6,True,left,0.05,0.465,1.4317,0.9667,2.0732,2.7149,0.6417,V
167,0.4997,1.1993,2,0.6163,0.583,0.8412,167,3.4147,0.756,0.3748,0.8745,5,2D1U,2.0,True,0.162,9,False,right,0.0,2.0489,2.8736,0.8247,0.5738,1.1652,0.5914,V
168,0.4997,1.1993,2,0.6163,0.5414,0.7829,168,3.2898,0.702,0.3498,0.8495,5,3D1U,2.0,True,0.577,6,False,right,-0.05,2.0122,2.812,0.7998,0.5455,1.1873,0.6418,V
169,0.4997,1.1993,2,0.558,0.4581,0.6163,169,2.232,-0.8,-0.3998,0.0999,5,lapse_rate,1.0,True,0.89,0,False,left,0.05,1.7901,1.8402,0.0501,0.4907,1.132,0.6413,V
170,0.4997,0.0999,2,0.5497,0.5997,0.6663,170,2.507,-0.612,-0.3082,0.1916,5,2U1D,1.0,True,0.44,9,True,left,0.0,1.8092,1.9502,0.1411,0.5083,1.1006,0.5922,A
171,0.4997,0.0999,1,0.608,0.4498,0.658,171,2.4737,-0.48,-0.2415,0.2582,5,3U1D,2.0,True,0.507,6,True,right,-0.05,0.5671,0.917,0.3499,1.5085,2.1502,0.6417,A
172,0.4997,0.0999,2,0.6413,0.4498,0.633,172,3.0983,0.756,0.3748,0.8745,5,2D1U,2.0,True,0.317,9,False,right,0.05,1.893,2.718,0.825,0.5764,1.2181,0.6417,A
173,0.4997,1.1993,2,0.4664,0.4747,0.6746,173,2.9649,0.702,0.3498,0.8495,5,3D1U,2.0,True,0.462,6,False,right,0.0,1.7332,2.5331,0.8,0.4247,1.0163,0.5916,A
174,0.4997,1.1993,2,0.608,0.6163,0.6746,174,2.5902,-0.612,-0.3082,0.1916,5,2U1D,2.0,False,0.941,9,True,right,-0.05,1.9005,2.0422,0.1417,0.5422,1.1838,0.6417,A
175,0.4997,0.0999,2,0.4081,0.4581,0.5747,175,2.8401,0.8,0.3998,0.8995,5,lapse_rate,2.0,True,0.284,0,False,right,0.05,1.5988,2.4491,0.8502,0.3406,0.982,0.6414,V
176,0.4997,1.1993,1,0.4914,0.633,0.8079,176,2.7152,-0.426,-0.2165,0.2832,5,3U1D,2.0,True,1.163,6,False,right,0.0,0.4511,0.8261,0.375,1.5928,2.1845,0.5917,V
177,0.4997,0.0999,1,0.4414,0.533,0.608,177,2.2487,-0.666,-0.3332,0.1666,5,2U1D,2.0,True,1.263,10,True,right,-0.05,0.3952,0.6535,0.2583,1.1956,1.8368,0.6413,A
178,0.4997,0.0999,2,0.4664,0.5913,0.7996,178,2.6402,-0.426,-0.2165,0.2832,5,3U1D,1.0,True,4.1,6,False,left,0.05,1.8815,2.1151,0.2336,0.3986,1.0398,0.6412,V
179,0.4997,0.0999,2,0.5664,0.4081,0.8829,179,3.2066,0.702,0.3498,0.8495,5,2D1U,2.0,True,0.164,10,True,right,0.0,2.0402,2.8398,0.7996,0.5232,1.1149,0.5916,A
180,0.4997,1.1993,2,0.5497,0.608,0.533,180,2.2903,-0.8,-0.3998,0.0999,5,lapse_rate,1.0,True,2.367,0,False,left,-0.05,1.6953,1.7456,0.0503,0.4789,1.1204,0.6415,A
181,0.4997,1.1993,1,0.4664,0.533,0.6663,181,3.0149,0.702,0.3498,0.8495,5,3D1U,1.0,True,0.759,6,False,left,0.05,0.4218,1.3631,0.9413,1.9633,2.6045,0.6412,A
182,0.4997,1.1993,1,0.4331,0.583,0.8829,182,3.2233,0.648,0.3248,0.8246,5,3D1U,1.0,True,1.526,6,False,left,0.0,0.3907,1.3073,0.9166,2.1489,2.7407,0.5918,A
183,0.4997,1.1993,1,0.5164,0.4164,0.8579,183,2.5736,-0.426,-0.2165,0.2832,5,3U1D,2.0,True,1.442,6,False,right,-0.05,0.4713,0.8464,0.3751,1.6379,2.2793,0.6414,V
184,0.4997,0.0999,2,0.5081,0.5164,0.7912,184,3.1649,0.702,0.3498,0.8495,5,2D1U,1.0,False,3.12,10,True,left,0.05,1.9127,2.7129,0.8002,0.4373,1.0792,0.6419,A
185,0.4997,0.0999,1,0.4164,0.5414,0.8495,185,2.4736,-0.666,-0.3332,0.1666,5,2U1D,2.0,True,2.974,10,True,right,0.0,0.3696,0.6278,0.2582,1.4369,2.0282,0.5913,A
186,0.4997,0.0999,2,0.608,0.4414,0.5497,186,2.9983,0.8,0.3998,0.8995,5,lapse_rate,2.0,True,0.913,0,False,right,-0.05,1.7723,2.6223,0.8501,0.5388,1.1806,0.6418,A
187,0.4997,0.0999,1,0.5414,0.3998,0.6496,187,2.407,-0.372,-0.1832,0.3165,5,3U1D,1.0,False,0.351,6,False,left,0.05,0.4941,0.9023,0.4083,1.4858,2.1272,0.6414,V
188,0.4997,1.1993,2,0.4664,0.4498,0.5747,188,2.8152,0.648,0.3248,0.8246,5,3D1U,2.0,True,0.772,6,False,right,0.0,1.6281,2.4035,0.7754,0.42,1.0119,0.5919,A
189,0.4997,1.1993,1,0.4831,0.4997,0.8745,189,3.2315,0.756,0.3748,0.8745,5,2D1U,1.0,True,0.516,11,True,left,-0.05,0.4363,1.403,0.9667,2.211,2.8527,0.6417,V
190,0.4997,0.0999,1,0.4164,0.3998,0.8745,190,3.0899,0.8,0.3998,0.8995,5,lapse_rate,1.0,True,1.175,0,False,left,0.05,0.3752,1.3669,0.9917,2.1752,2.8166,0.6414,A
191,0.4997,1.1993,1,0.4831,0.5913,0.8329,191,2.5986,-0.612,-0.3082,0.1916,5,2U1D,2.0,True,1.402,11,True,right,0.0,0.4352,0.7181,0.283,1.51,2.1016,0.5915,A
192,0.4997,1.1993,1,0.5747,0.4747,0.5913,192,2.2403,-0.8,-0.3998,0.0999,5,lapse_rate,2.0,True,0.392,0,False,right,-0.05,0.532,0.7234,0.1914,1.2486,1.8906,0.642,V
193,0.4997,0.0999,2,0.558,0.558,0.6913,193,3.1815,0.756,0.3748,0.8745,5,2D1U,2.0,True,0.717,11,True,right,0.05,1.8626,2.6876,0.825,0.4875,1.1298,0.6423,V
194,0.4997,0.0999,2,0.4498,0.633,0.8912,194,2.7569,-0.426,-0.2165,0.2832,5,3U1D,1.0,True,2.239,7,True,left,0.0,1.9304,2.1637,0.2332,0.4057,0.997,0.5913,V
195,0.4997,0.0999,2,0.4997,0.5664,0.6413,195,2.3987,-0.612,-0.3082,0.1916,5,2U1D,1.0,True,1.479,11,True,left,-0.05,1.758,1.8993,0.1413,0.433,1.0746,0.6415,V
196,0.4997,1.1993,1,0.608,0.4664,0.658,196,3.0567,0.648,0.3248,0.8246,5,3D1U,1.0,True,3.195,6,False,left,0.05,0.5665,1.4834,0.9168,2.075,2.7166,0.6416,A
197,0.4997,0.0999,1,0.558,0.5414,0.683,197,2.382,-0.8,-0.3998,0.0999,5,lapse_rate,2.0,True,6.387,0,False,right,0.0,0.5152,0.7071,0.1919,1.3489,1.9406,0.5917,A
198,0.4997,1.1993,2,0.5664,0.4081,0.6746,198,2.9983,0.702,0.3498,0.8495,5,2D1U,2.0,True,0.638,12,True,right,-0.05,1.8575,2.6573,0.7998,0.4986,1.1407,0.6421,A
199,0.4997,1.1993,2,0.533,0.583,0.7246,199,2.6235,-0.426,-0.2165,0.2832,5,3U1D,1.0,True,0.388,7,True,left,0.05,1.8724,2.1059,0.2335,0.4642,1.1059,0.6417,A
200,0.4997,0.0999,2,0.4997,0.4914,0.558,200,2.2737,-0.558,-0.2749,0.2249,5,2U1D,1.0,True,1.933,11,False,left,0.0,1.6454,1.8203,0.1749,0.4538,1.0456,0.5918,V
201,0.4997,0.0999,2,0.633,0.5497,0.7829,201,3.2649,0.594,0.2998,0.7996,5,3D1U,2.0,True,1.837,6,False,right,-0.05,2.0319,2.7819,0.75,0.5651,1.2069,0.6419,A
202,0.4997,1.1993,1,0.4747,0.4414,0.7413,202,3.0566,0.8,0.3998,0.8995,5,lapse_rate,1.0,True,2.6,0,False,left,0.05,0.4302,1.4216,0.9914,2.0968,2.7383,0.6415,V
203,0.4997,0.0999,1,0.3998,0.4164,0.4997,203,2.6152,0.594,0.2998,0.7996,5,3D1U,2.0,False,2.728,6,False,right,0.0,0.3551,1.2465,0.8914,1.7048,2.2966,0.5918,A
204,0.4997,1.1993,1,0.5747,0.5247,0.8995,204,2.7235,-0.558,-0.2749,0.2249,5,2U1D,2.0,True,1.133,11,False,right,-0.05,0.5329,0.8496,0.3167,1.6826,2.3243,0.6417,V
205,0.4997,1.1993,2,0.5414,0.4914,0.6913,205,3.0733,0.702,0.3498,0.8495,5,2D1U,1.0,False,2.47,12,True,left,0.05,1.8487,2.6485,0.7998,0.4736,1.1156,0.6419,V
206,0.4997,1.1993,1,0.4831,0.4664,0.7329,206,2.4653,-0.426,-0.2165,0.2832,5,3U1D,2.0,True,0.742,7,True,right,0.0,0.4423,0.8174,0.375,1.5092,2.1009,0.5917,A
207,0.4997,0.0999,2,0.5164,0.5081,0.8745,207,3.2732,0.756,0.3748,0.8745,5,2D1U,2.0,True,0.404,13,True,right,-0.05,2.0064,2.8308,0.8244,0.448,1.0897,0.6416,A
208,0.4997,1.1993,1,0.4414,0.633,0.5747,208,3.0483,0.8,0.3998,0.8995,5,lapse_rate,2.0,False,0.605,0,False,right,0.05,0.3985,1.3901,0.9915,1.8983,2.5403,0.642,A
209,0.4997,0.0999,2,0.5747,0.4831,0.7829,209,2.5903,-0.504,-0.2499,0.2499,5,2U1D,1.0,True,0.161,11,False,left,0.0,1.9489,2.1485,0.1996,0.5319,1.1233,0.5915,V
210,0.4997,0.0999,2,0.4331,0.558,0.6746,210,2.99,0.648,0.3248,0.8246,5,3D1U,2.0,True,0.826,7,True,right,-0.05,1.7217,2.4966,0.7749,0.3633,1.0049,0.6416,A
211,0.4997,1.1993,1,0.4164,0.4581,0.8745,211,2.5652,-0.372,-0.1832,0.3165,5,3U1D,1.0,False,2.519,8,True,left,0.05,0.3734,0.7817,0.4082,1.5899,2.2316,0.6417,A
212,0.4997,1.1993,2,0.608,0.4414,0.5913,212,2.965,0.648,0.3248,0.8246,5,3D1U,2.0,True,0.166,7,True,right,0.0,1.79,2.5651,0.7751,0.5654,1.1569,0.5915,V
213,0.4997,1.1993,1,0.4997,0.5081,0.533,213,2.2904,-0.504,-0.2499,0.2499,5,2U1D,2.0,True,0.491,11,False,right,-0.05,0.4531,0.7949,0.3418,1.2615,1.9032,0.6417,V
214,0.4997,0.0999,1,0.5664,0.5913,0.7163,214,3.2482,0.756,0.3748,0.8745,5,2D1U,1.0,True,1.506,13,True,left,0.05,0.523,1.4896,0.9667,2.1396,2.7812,0.6416,A
215,0.4997,0.0999,1,0.6163,0.558,0.658,215,3.2315,0.8,0.3998,0.8995,5,lapse_rate,1.0,True,2.833,0,False,left,0.0,0.5732,1.5647,0.9915,2.1813,2.7727,0.5914,V
216,0.4997,0.0999,2,0.5664,0.608,0.7746,216,2.7319,-0.426,-0.2165,0.2832,5,3U1D,1.0,True,0.183,9,True,left,-0.05,1.9533,2.1867,0.2334,0.4952,1.1369,0.6417,A
217,0.4997,0.0999,1,0.6413,0.558,0.633,217,3.1566,0.648,0.3248,0.8246,5,3D1U,1.0,True,1.428,7,True,left,0.05,0.5957,1.5123,0.9166,2.0788,2.7206,0.6417,V
218,0.4997,1.1993,2,0.3998,0.4331,0.7912,218,2.2237,-0.8,-0.3998,0.0999,5,lapse_rate,1.0,True,2.259,0,False,left,0.0,1.7854,1.8353,0.05,0.3604,0.9521,0.5918,A
219,0.4997,1.1993,2,0.5997,0.4831,0.6913,219,3.1233,0.702,0.3498,0.8495,5,2D1U,1.0,False,2.905,14,True,left,-0.05,1.9029,2.703,0.8002,0.5277,1.1696,0.6419,V
220,0.4997,1.1993,1,0.4498,0.5164,0.8579,220,2.607,-0.426,-0.2165,0.2832,5,3U1D,2.0,True,8.792,9,True,right,0.05,0.4091,0.7838,0.3747,1.5759,2.2176,0.6417,V
221,0.4997,1.1993,2,0.4414,0.633,0.7246,221,2.5736,-0.45,-0.2249,0.2749,5,2U1D,2.0,False,0.738,11,False,right,0.0,1.7567,1.9815,0.2248,0.3978,0.9896,0.5918,A
222,0.4997,0.0999,1,0.533,0.6413,0.7496,222,3.2981,0.756,0.3748,0.8745,5,2D1U,2.0,False,3.974,15,True,right,-0.05,0.4933,1.4599,0.9667,2.1434,2.7846,0.6411,A
223,0.4997,0.0999,1,0.6413,0.5414,0.7662,223,2.7318,-0.426,-0.2165,0.2832,5,3U1D,2.0,True,0.438,9,True,right,0.05,0.6007,0.9755,0.3748,1.6756,2.3172,0.6416,V
224,0.4997,0.0999,1,0.4831,0.4664,0.5081,224,2.8568,0.8,0.3998,0.8995,5,lapse_rate,1.0,True,0.669,0,False,left,0.0,0.4389,1.4304,0.9916,1.897,2.489,0.5919,A
225,0.4997,0.0999,1,0.608,0.5081,0.8745,225,3.2899,0.594,0.2998,0.7996,5,3D1U,1.0,True,1.002,8,True,left,-0.05,0.5629,1.4547,0.8918,2.2628,2.9044,0.6416,A
226,0.4997,1.1993,1,0.4164,0.4997,0.7579,226,2.4236,-0.504,-0.2499,0.2499,5,2U1D,2.0,True,0.161,12,True,right,0.05,0.3755,0.7174,0.3419,1.4091,2.0507,0.6417,V
227,0.4997,1.1993,1,0.6413,0.4581,0.5664,227,2.482,-0.372,-0.1832,0.3165,5,3U1D,2.0,True,1.221,10,True,right,0.0,0.5985,1.0066,0.4081,1.5315,2.1234,0.5919,V
228,0.4997,0.0999,2,0.5247,0.4248,0.683,228,3.0317,0.8,0.3998,0.8995,5,lapse_rate,2.0,True,0.161,0,False,right,-0.05,1.8198,2.6698,0.85,0.4533,1.0948,0.6415,V
229,0.4997,1.1993,2,0.4248,0.5247,0.6247,229,2.9817,0.81,0.4081,0.9078,5,2D1U,2.0,True,0.801,15,False,right,0.05,1.6636,2.522,0.8584,0.3553,0.9969,0.6416,A
230,0.4997,0.0999,2,0.533,0.533,0.558,230,2.3736,-0.504,-0.2499,0.2499,5,2U1D,1.0,True,0.325,12,True,left,0.0,1.6768,1.8769,0.2001,0.4853,1.077,0.5917,A
231,0.4997,0.0999,2,0.5164,0.533,0.7079,231,3.0566,0.594,0.2998,0.7996,5,3D1U,2.0,True,0.162,8,True,right,-0.05,1.8429,2.5929,0.7501,0.451,1.0927,0.6417,A
232,0.4997,0.0999,1,0.5164,0.633,0.608,232,2.5736,-0.372,-0.1832,0.3165,5,3U1D,2.0,True,0.833,10,True,right,0.05,0.4757,0.8843,0.4086,1.4258,2.0675,0.6417,V
233,0.4997,0.0999,1,0.6413,0.4248,0.8662,233,3.3315,0.8,0.3998,0.8995,5,lapse_rate,1.0,True,0.276,0,False,left,0.0,0.5976,1.5891,0.9915,2.4136,3.0055,0.5919,A
234,0.4997,1.1993,1,0.6163,0.4164,0.7829,234,3.2231,0.81,0.4081,0.9078,5,2D1U,1.0,True,1.034,15,False,left,-0.05,0.575,1.5746,0.9997,2.2911,2.933,0.6419,V
235,0.4997,1.1993,2,0.6247,0.4747,0.583,235,2.457,-0.45,-0.2249,0.2749,5,2U1D,1.0,True,0.227,13,True,left,0.05,1.8228,2.048,0.2252,0.5563,1.1978,0.6415,A
236,0.4997,1.1993,2,0.5164,0.633,0.8995,236,3.3482,0.594,0.2998,0.7996,5,3D1U,1.0,False,1.866,8,True,left,0.0,2.0081,2.758,0.7499,0.4751,1.0667,0.5916,V
237,0.4997,0.0999,1,0.4498,0.5247,0.583,237,2.9567,0.8,0.3998,0.8995,5,lapse_rate,1.0,True,0.824,0,False,left,-0.05,0.4094,1.4011,0.9917,1.9178,2.5594,0.6415,A
238,0.4997,0.0999,1,0.6413,0.4581,0.5414,238,2.457,-0.372,-0.1832,0.3165,5,3U1D,2.0,True,0.489,10,True,right,0.05,0.594,1.0025,0.4084,1.4775,2.1188,0.6413,V
239,0.4997,0.0999,1,0.5664,0.633,0.633,239,3.1567,0.648,0.3248,0.8246,5,3D1U,1.0,True,2.032,9,True,left,0.0,0.5223,1.4388,0.9165,2.0304,2.622,0.5915,A
240,0.4997,0.0999,2,0.4081,0.633,0.658,240,3.0733,0.756,0.3748,0.8745,5,2D1U,2.0,True,1.126,16,True,right,-0.05,1.6789,2.5042,0.8253,0.3375,0.9791,0.6415,A
241,0.4997,1.1993,1,0.5081,0.533,0.5497,241,2.3654,-0.45,-0.2249,0.2749,5,2U1D,2.0,True,0.412,13,True,right,0.05,0.4668,0.8335,0.3666,1.3169,1.9585,0.6416,A
242,0.4997,1.1993,1,0.6163,0.5497,0.5247,242,2.4902,-0.396,-0.1999,0.2998,5,2U1D,2.0,True,0.95,13,False,right,0.0,0.5737,0.9655,0.3918,1.4487,2.0404,0.5916,A
243,0.4997,1.1993,2,0.558,0.4831,0.6663,243,2.5486,-0.318,-0.1582,0.3415,5,3U1D,2.0,False,0.621,10,False,right,-0.05,1.8431,2.1343,0.2912,0.4931,1.1349,0.6417,A
244,0.4997,1.1993,2,0.5997,0.533,0.5081,244,3.04,0.8,0.3998,0.8995,5,lapse_rate,2.0,True,0.86,0,False,right,0.05,1.726,2.576,0.85,0.5344,1.1758,0.6414,V
245,0.4997,0.0999,2,0.4747,0.6496,0.8162,245,3.2648,0.648,0.3248,0.8246,5,3D1U,2.0,True,1.719,9,True,right,0.0,1.8826,2.6575,0.7748,0.4327,1.0245,0.5918,A
246,0.4997,0.0999,2,0.6496,0.5913,0.8579,246,3.473,0.756,0.3748,0.8745,5,2D1U,2.0,True,1.431,16,True,right,-0.05,2.12,2.9451,0.825,0.5781,1.2201,0.6419,V
247,0.4997,0.0999,2,0.5497,0.4831,0.7413,247,2.5736,-0.396,-0.1999,0.2998,5,2U1D,1.0,True,3.906,13,False,left,0.05,1.9076,2.1579,0.2502,0.4827,1.1242,0.6415,A
248,0.4997,1.1993,2,0.5414,0.4747,0.583,248,2.9483,0.702,0.3498,0.8495,5,2D1U,2.0,True,0.164,16,False,right,0.0,1.711,2.511,0.8,0.4943,1.086,0.5917,V
249,0.4997,1.1993,2,0.6163,0.4081,0.7496,249,2.3736,-0.8,-0.3998,0.0999,5,lapse_rate,1.0,True,0.266,0,False,left,-0.05,1.9826,2.0327,0.0502,0.5496,1.1913,0.6417,A
250,0.4997,1.1993,1,0.4498,0.633,0.6496,250,3.0567,0.648,0.3248,0.8246,5,3D1U,1.0,True,1.563,9,True,left,0.05,0.4075,1.3237,0.9162,1.9071,2.5487,0.6415,V
251,0.4997,1.1993,1,0.5081,0.5664,0.7746,251,2.6653,-0.372,-0.1832,0.3165,5,3U1D,2.0,True,0.586,11,True,right,0.0,0.4684,0.8769,0.4085,1.61,2.202,0.5919,A
252,0.4997,0.0999,1,0.6413,0.533,0.8246,252,3.3481,0.702,0.3498,0.8495,5,2D1U,1.0,True,0.811,16,False,left,-0.05,0.6014,1.5435,0.942,2.3017,2.9434,0.6417,V
253,0.4997,0.0999,2,0.558,0.583,0.5247,253,2.4986,-0.342,-0.1749,0.3332,5,2U1D,2.0,False,0.834,13,False,right,0.05,1.695,1.9783,0.2832,0.4866,1.1285,0.6419,V
254,0.4997,0.0999,1,0.5664,0.608,0.8412,254,2.8318,-0.372,-0.1832,0.3165,5,3U1D,2.0,True,0.434,11,True,right,0.0,0.5211,0.9294,0.4084,1.7296,2.3211,0.5915,V
255,0.4997,0.0999,1,0.533,0.5081,0.7079,255,2.3486,-0.8,-0.3998,0.0999,5,lapse_rate,2.0,True,1.057,0,False,right,-0.05,0.4888,0.6802,0.1914,1.322,1.9639,0.6418,A
256,0.4997,1.1993,2,0.4747,0.6247,0.8412,256,3.2399,0.594,0.2998,0.7996,5,3D1U,2.0,True,1.605,10,True,right,0.05,1.931,2.6807,0.7498,0.4059,1.0477,0.6419,V
257,0.4997,1.1993,2,0.5497,0.6247,0.5164,257,3.0151,0.648,0.3248,0.8246,5,2D1U,2.0,True,1.361,16,False,right,0.0,1.6572,2.4324,0.7752,0.5078,1.0991,0.5912,V
258,0.4997,1.1993,1,0.4914,0.633,0.7662,258,2.7068,-0.372,-0.1832,0.3165,5,3U1D,2.0,True,4.182,11,True,right,-0.05,0.4494,0.858,0.4086,1.5576,2.1997,0.6421,V
259,0.4997,0.0999,1,0.583,0.5997,0.7079,259,3.1899,0.594,0.2998,0.7996,5,3D1U,1.0,True,0.163,10,True,left,0.05,0.5423,1.4344,0.8921,2.0758,2.7174,0.6415,V
260,0.4997,0.0999,1,0.4997,0.6163,0.8412,260,2.7567,-0.396,-0.1999,0.2998,5,2U1D,2.0,True,1.945,14,True,right,0.0,0.4558,0.8476,0.3917,1.6474,2.2387,0.5914,A
261,0.4997,1.1993,1,0.608,0.4248,0.5913,261,3.0233,0.8,0.3998,0.8995,5,lapse_rate,1.0,True,0.201,0,False,left,-0.05,0.5611,1.5528,0.9917,2.0779,2.7192,0.6414,A
262,0.4997,0.0999,2,0.6163,0.6163,0.8662,262,3.4231,0.648,0.3248,0.8246,5,2D1U,2.0,True,0.307,16,False,right,0.05,2.0996,2.8747,0.7751,0.5496,1.1911,0.6415,A
263,0.4997,1.1993,2,0.533,0.583,0.8162,263,3.2315,0.594,0.2998,0.7996,5,3D1U,2.0,True,0.164,10,True,right,0.0,1.9376,2.6881,0.7504,0.4881,1.0797,0.5916,A
264,0.4997,0.0999,1,0.633,0.6413,0.5664,264,3.2399,0.8,0.3998,0.8995,5,lapse_rate,1.0,True,0.162,0,False,left,-0.05,0.5912,1.5827,0.9915,2.0831,2.7246,0.6416,A
265,0.4997,1.1993,1,0.4248,0.558,0.7829,265,2.6069,-0.318,-0.1582,0.3415,5,3U1D,2.0,True,0.267,12,True,right,0.05,0.385,0.818,0.433,1.535,2.1766,0.6416,A
266,0.4997,1.1993,2,0.4831,0.608,0.7496,266,2.6402,-0.396,-0.1999,0.2998,5,2U1D,2.0,False,1.831,14,True,right,0.0,1.8261,2.0761,0.25,0.4427,1.0345,0.5918,V
267,0.4997,0.0999,2,0.5081,0.633,0.5913,267,3.1316,0.8,0.3998,0.8995,5,lapse_rate,2.0,True,0.492,0,False,right,-0.05,1.7117,2.5618,0.8501,0.4365,1.0784,0.6419,A
268,0.4997,0.0999,2,0.4498,0.608,0.5997,268,2.9234,0.54,0.2665,0.7662,5,3D1U,2.0,True,0.348,10,False,right,0.05,1.663,2.3798,0.7168,0.3798,1.0211,0.6413,V
269,0.4997,0.0999,1,0.5414,0.5997,0.6247,269,2.5404,-0.45,-0.2249,0.2749,5,2U1D,2.0,True,0.893,14,False,right,0.0,0.4965,0.8632,0.3667,1.4466,2.0379,0.5913,A
270,0.4997,0.0999,1,0.5081,0.3998,0.7496,270,2.4987,-0.318,-0.1582,0.3415,5,3U1D,2.0,True,1.562,12,True,right,-0.05,0.4649,0.8982,0.4334,1.5815,2.2231,0.6416,V
271,0.4997,1.1993,1,0.5664,0.4747,0.7079,271,3.0483,0.594,0.2998,0.7996,5,2D1U,1.0,True,1.192,16,False,left,0.05,0.5234,1.4149,0.8916,2.0565,2.698,0.6414,V
272,0.4997,0.0999,2,0.5414,0.6413,0.6746,272,2.4569,-0.8,-0.3998,0.0999,5,lapse_rate,1.0,True,0.265,0,False,left,0.0,1.8064,1.8564,0.05,0.4981,1.0896,0.5915,V
273,0.4997,1.1993,2,0.533,0.5081,0.6496,273,2.9566,0.54,0.2665,0.7662,5,3D1U,2.0,True,0.285,10,False,right,-0.05,1.7945,2.5113,0.7168,0.4608,1.103,0.6421,V
274,0.4997,1.1993,2,0.4747,0.558,0.6163,274,2.4236,-0.45,-0.2249,0.2749,5,2U1D,1.0,True,0.395,14,False,left,0.05,1.7093,1.9343,0.225,0.4096,1.0513,0.6417,V
275,0.4997,0.0999,2,0.633,0.608,0.6746,275,3.2149,0.594,0.2998,0.7996,5,2D1U,2.0,True,0.284,16,False,right,0.0,1.9009,2.651,0.7501,0.5927,1.1843,0.5917,A
276,0.4997,0.0999,1,0.533,0.5247,0.8079,276,2.7068,-0.318,-0.1582,0.3415,5,3U1D,2.0,True,1.056,12,True,right,-0.05,0.4867,0.9203,0.4336,1.6619,2.3036,0.6417,V
277,0.4997,0.0999,1,0.5997,0.4081,0.7912,277,2.6652,-0.264,-0.1333,0.3665,5,3U1D,2.0,True,0.363,12,False,right,0.05,0.5555,1.0142,0.4586,1.7388,2.3807,0.6418,V
278,0.4997,0.0999,2,0.4331,0.5913,0.6247,278,2.2487,-0.8,-0.3998,0.0999,5,lapse_rate,1.0,True,0.162,0,False,left,0.0,1.6505,1.7005,0.05,0.3919,0.9835,0.5916,A
279,0.4997,1.1993,1,0.558,0.4997,0.8662,279,3.1898,0.54,0.2665,0.7662,5,2D1U,2.0,False,0.601,16,False,right,-0.05,0.5138,1.3726,0.8588,2.1728,2.8139,0.6411,A
280,0.4997,1.1993,1,0.6413,0.558,0.5164,280,2.5152,-0.396,-0.1999,0.2998,5,2U1D,2.0,True,0.275,15,True,right,0.05,0.6001,0.9919,0.3917,1.4419,2.0834,0.6415,V
281,0.4997,1.1993,1,0.4331,0.5913,0.7996,281,3.0899,0.54,0.2665,0.7662,5,3D1U,2.0,False,0.6,10,False,right,0.0,0.3893,1.2481,0.8587,2.0061,2.5977,0.5915,A
282,0.4997,1.1993,1,0.6413,0.5081,0.6413,282,3.1899,0.8,0.3998,0.8995,5,lapse_rate,1.0,True,1.825,0,False,left,-0.05,0.6011,1.5929,0.9918,2.168,2.8096,0.6416,A
283,0.4997,0.0999,1,0.4664,0.533,0.8329,283,3.1316,0.594,0.2998,0.7996,5,3D1U,2.0,False,3.383,11,True,right,0.05,0.4253,1.3167,0.8915,2.0836,2.7253,0.6417,A
284,0.4997,0.0999,2,0.5747,0.633,0.558,284,3.065,0.594,0.2998,0.7996,5,2D1U,2.0,True,1.581,17,True,right,0.0,1.726,2.476,0.75,0.534,1.1258,0.5918,V
285,0.4997,0.0999,1,0.6496,0.5081,0.5997,285,2.5569,-0.396,-0.1999,0.2998,5,2U1D,2.0,True,1.606,15,True,right,-0.05,0.609,1.0006,0.3916,1.5338,2.1756,0.6418,A
286,0.4997,1.1993,2,0.4914,0.608,0.6413,286,2.6069,-0.264,-0.1333,0.3665,5,3U1D,1.0,True,1.727,12,False,left,0.05,1.7443,2.061,0.3166,0.4193,1.0611,0.6418,V
287,0.4997,1.1993,2,0.4581,0.4997,0.5081,287,2.7902,0.648,0.3248,0.8246,5,3D1U,1.0,False,3.201,11,False,left,0.0,1.56,2.335,0.7751,0.4181,1.01,0.5918,V
288,0.4997,1.1993,1,0.5414,0.4498,0.6663,288,2.5237,-0.264,-0.1333,0.3665,5,3U1D,2.0,True,3.055,12,False,right,-0.05,0.4967,0.9554,0.4587,1.5553,2.1969,0.6416,V
289,0.4997,0.0999,2,0.5247,0.4831,0.6996,289,3.0067,0.594,0.2998,0.7996,5,2D1U,2.0,True,0.738,17,True,right,0.05,1.8385,2.5885,0.75,0.4551,1.0966,0.6415,A
290,0.4997,0.0999,2,0.6247,0.4581,0.6996,290,2.6153,-0.342,-0.1749,0.3332,5,2U1D,1.0,True,0.436,15,False,left,0.0,1.9121,2.1952,0.283,0.5787,1.1705,0.5917,A
291,0.4997,0.0999,1,0.6496,0.6163,0.7996,291,2.6651,-0.8,-0.3998,0.0999,5,lapse_rate,2.0,True,0.443,0,False,right,-0.05,0.6058,0.7974,0.1916,1.5307,2.1722,0.6414,V
292,0.4997,0.0999,2,0.6247,0.583,0.5497,292,3.0233,0.54,0.2665,0.7662,5,2D1U,2.0,True,0.16,18,True,right,0.05,1.7936,2.5102,0.7166,0.5601,1.2014,0.6413,V
293,0.4997,1.1993,2,0.4581,0.5997,0.6663,293,2.557,-0.342,-0.1749,0.3332,5,2U1D,1.0,True,0.166,15,False,left,0.0,1.7136,1.9971,0.2835,0.4139,1.0052,0.5913,V
294,0.4997,1.1993,2,0.4831,0.5747,0.7496,294,3.1566,0.702,0.3498,0.8495,5,3D1U,1.0,False,1.459,11,False,left,-0.05,1.8485,2.6483,0.7999,0.4153,1.0568,0.6414,V
295,0.4997,1.1993,2,0.5247,0.5997,0.8162,295,2.8318,-0.21,-0.1083,0.3915,5,3U1D,1.0,True,0.313,12,False,left,0.05,1.9519,2.2935,0.3416,0.4522,1.0938,0.6417,A
296,0.4997,1.1993,2,0.5747,0.533,0.6996,296,2.4069,-0.8,-0.3998,0.0999,5,lapse_rate,1.0,True,0.677,0,False,left,0.0,1.8627,1.9129,0.0502,0.5294,1.1208,0.5914,V
297,0.4997,0.0999,2,0.5081,0.5747,0.6247,297,2.5987,-0.21,-0.1083,0.3915,5,3U1D,2.0,False,0.447,12,False,right,-0.05,1.7496,2.0912,0.3415,0.4413,1.0825,0.6412,V
298,0.4997,0.0999,1,0.4997,0.583,0.7246,298,3.0732,0.54,0.2665,0.7662,5,2D1U,2.0,False,1.654,18,True,right,0.05,0.4597,1.3182,0.8584,1.9772,2.6185,0.6413,A
299,0.4997,0.0999,1,0.5247,0.6247,0.7662,299,3.2898,0.756,0.3748,0.8745,5,3D1U,1.0,True,2.037,11,False,left,0.0,0.4771,1.4437,0.9666,2.1687,2.7604,0.5917,A
300,0.4997,1.1993,1,0.4914,0.6163,0.7746,300,2.7401,-0.288,-0.1416,0.3581,5,2U1D,2.0,True,1.001,15,False,right,-0.05,0.4444,0.8947,0.4503,1.6028,2.2444,0.6417,A
301,0.4997,1.1993,1,0.4164,0.533,0.7329,301,2.2819,-0.8,-0.3998,0.0999,5,lapse_rate,2.0,True,1.598,0,False,right,0.05,0.3739,0.5653,0.1913,1.2323,1.8739,0.6416,A
302,0.4997,1.1993,1,0.5247,0.4081,0.6247,302,2.8568,0.594,0.2998,0.7996,5,2D1U,2.0,False,1.749,19,True,right,0.0,0.4831,1.3747,0.8916,1.9579,2.5498,0.5918,V
303,0.4997,1.1993,2,0.4747,0.5913,0.7579,303,3.1981,0.756,0.3748,0.8745,5,3D1U,2.0,True,2.295,11,False,right,-0.05,1.846,2.6708,0.8248,0.4043,1.0461,0.6418,A
304,0.4997,0.0999,2,0.4581,0.533,0.5164,304,2.1071,-0.8,-0.3998,0.0999,5,lapse_rate,1.0,True,0.792,0,False,left,0.05,1.5924,1.6422,0.0498,0.3922,1.0339,0.6416,A
305,0.4997,0.0999,2,0.558,0.5664,0.7413,305,2.7319,-0.264,-0.1333,0.3665,5,3U1D,1.0,True,2.099,13,True,left,0.0,1.8913,2.2079,0.3165,0.5167,1.1081,0.5914,A
306,0.4997,0.0999,2,0.5414,0.633,0.5997,306,2.6319,-0.288,-0.1416,0.3581,5,2U1D,1.0,True,2.523,15,False,left,-0.05,1.7568,2.065,0.3082,0.4734,1.1152,0.6418,A
307,0.4997,0.0999,2,0.4414,0.4747,0.8579,307,3.1482,0.756,0.3748,0.8745,5,3D1U,2.0,True,0.637,11,False,right,0.05,1.9126,2.7376,0.825,0.3707,1.0123,0.6417,A
308,0.4997,1.1993,2,0.4831,0.4664,0.8912,308,2.7235,-0.234,-0.1166,0.3831,5,2U1D,2.0,False,0.917,15,False,right,0.0,1.9659,2.2992,0.3333,0.4412,1.0328,0.5916,V
309,0.4997,1.1993,1,0.4414,0.6413,0.7746,309,2.7235,-0.264,-0.1333,0.3665,5,3U1D,2.0,True,0.584,13,True,right,-0.05,0.3953,0.8535,0.4582,1.5623,2.2035,0.6412,A
310,0.4997,0.0999,2,0.6413,0.5164,0.6163,310,2.3736,-0.8,-0.3998,0.0999,5,lapse_rate,1.0,True,4.03,0,False,left,0.05,1.8744,1.9245,0.0501,0.5745,1.2162,0.6417,A
311,0.4997,1.1993,2,0.633,0.4414,0.6746,311,3.0733,0.648,0.3248,0.8246,5,2D1U,2.0,True,0.208,19,False,right,0.0,1.9013,2.676,0.7747,0.593,1.1849,0.5919,A
312,0.4997,0.0999,2,0.4248,0.5247,0.5497,312,2.8235,0.648,0.3248,0.8246,5,2D1U,2.0,True,1.624,19,False,right,-0.05,1.592,2.3669,0.7749,0.3587,1.0005,0.6418,V
313,0.4997,0.0999,2,0.6247,0.533,0.583,313,3.0899,0.702,0.3498,0.8495,5,3D1U,2.0,True,0.279,12,True,right,0.05,1.8253,2.6249,0.7996,0.5586,1.2003,0.6417,V
314,0.4997,1.1993,2,0.4664,0.6413,0.8246,314,3.3315,0.8,0.3998,0.8995,5,lapse_rate,2.0,True,0.804,0,False,right,0.0,1.8778,2.728,0.8502,0.4198,1.011,0.5912,V
315,0.4997,0.0999,1,0.4997,0.3998,0.608,315,2.3737,-0.264,-0.1333,0.3665,5,3U1D,1.0,False,3.827,13,True,left,-0.05,0.4538,0.9121,0.4583,1.454,2.0955,0.6415,V
316,0.4997,1.1993,1,0.4414,0.4997,0.5997,316,2.3986,-0.288,-0.1416,0.3581,5,2U1D,1.0,False,2.166,16,True,left,0.05,0.3986,0.8489,0.4502,1.382,2.0237,0.6417,V
317,0.4997,1.1993,2,0.533,0.5414,0.683,317,3.0567,0.594,0.2998,0.7996,5,2D1U,2.0,True,0.156,20,True,right,0.0,1.8101,2.5603,0.7502,0.4936,1.0854,0.5918,V
318,0.4997,1.1993,2,0.6163,0.5414,0.6996,318,2.6985,-0.318,-0.1582,0.3415,5,3U1D,1.0,True,0.754,13,False,left,-0.05,1.9287,2.2202,0.2915,0.5452,1.1871,0.6419,V
319,0.4997,0.0999,1,0.5081,0.5081,0.6496,319,2.4987,-0.342,-0.1749,0.3332,5,2U1D,2.0,True,0.162,16,False,right,0.05,0.4671,0.892,0.4249,1.4755,2.1165,0.641,V
320,0.4997,0.0999,1,0.4498,0.4747,0.6496,320,2.9233,0.702,0.3498,0.8495,5,3D1U,1.0,True,1.568,12,True,left,0.0,0.4096,1.351,0.9414,1.9591,2.5507,0.5916,A
321,0.4997,1.1993,1,0.3998,0.4248,0.5997,321,2.0239,-0.8,-0.3998,0.0999,5,lapse_rate,2.0,True,0.723,0,False,right,-0.05,0.3524,0.5441,0.1917,1.0774,1.7191,0.6417,A
322,0.4997,1.1993,1,0.533,0.6247,0.5664,322,3.1233,0.8,0.3998,0.8995,5,lapse_rate,2.0,False,0.163,0,False,right,0.05,0.4891,1.481,0.992,1.9813,2.6228,0.6415,V
323,0.4997,0.0999,2,0.4997,0.5664,0.7246,323,3.09,0.594,0.2998,0.7996,5,2D1U,2.0,True,0.163,20,True,right,0.0,1.8161,2.5661,0.75,0.4581,1.0495,0.5914,A
324,0.4997,1.1993,1,0.5664,0.5164,0.8579,324,3.2899,0.702,0.3498,0.8495,5,3D1U,1.0,True,0.679,12,True,left,-0.05,0.5241,1.4658,0.9418,2.2577,2.8992,0.6415,A
325,0.4997,1.1993,1,0.4581,0.4997,0.7413,325,2.532,-0.342,-0.1749,0.3332,5,2U1D,2.0,True,0.455,16,False,right,0.05,0.4177,0.8428,0.4251,1.5175,2.1593,0.6418,V
326,0.4997,1.1993,1,0.4248,0.4914,0.7329,326,2.4903,-0.318,-0.1582,0.3415,5,3U1D,2.0,True,0.659,13,False,right,0.0,0.3803,0.8139,0.4336,1.5057,2.0974,0.5917,A
327,0.4997,0.0999,1,0.5747,0.4164,0.7329,327,3.0483,0.648,0.3248,0.8246,5,3D1U,2.0,False,1.789,12,False,right,-0.05,0.5287,1.4448,0.9161,2.1118,2.7528,0.641,V
328,0.4997,0.0999,1,0.5664,0.633,0.7662,328,3.2315,0.54,0.2665,0.7662,5,2D1U,1.0,True,0.601,20,False,left,0.05,0.5261,1.3849,0.8588,2.0844,2.7261,0.6417,A
329,0.4997,0.0999,1,0.3998,0.5081,0.6247,329,2.3738,-0.318,-0.1582,0.3415,5,3U1D,2.0,True,0.475,13,False,right,0.0,0.3552,0.7889,0.4337,1.3721,1.9636,0.5915,V
330,0.4997,0.0999,1,0.558,0.6163,0.8246,330,2.5985,-0.8,-0.3998,0.0999,5,lapse_rate,2.0,True,0.163,0,False,right,-0.05,0.5185,0.7103,0.1918,1.4682,2.1101,0.6419,V
331,0.4997,1.1993,1,0.4747,0.4664,0.5164,331,2.3153,-0.288,-0.1416,0.3581,5,2U1D,2.0,True,1.711,17,True,right,0.05,0.4292,0.8792,0.45,1.3293,1.9713,0.642,V
332,0.4997,1.1993,2,0.5913,0.4747,0.6996,332,2.6318,-0.264,-0.1333,0.3665,5,3U1D,2.0,False,0.217,14,True,right,0.0,1.8786,2.195,0.3164,0.5452,1.137,0.5918,A
333,0.4997,1.1993,1,0.4747,0.5497,0.533,333,2.4152,-0.288,-0.1416,0.3581,5,2U1D,2.0,True,1.39,17,True,right,-0.05,0.432,0.8819,0.4499,1.3487,1.9901,0.6414,V
334,0.4997,0.0999,1,0.5247,0.633,0.8829,334,3.3065,0.54,0.2665,0.7662,5,2D1U,1.0,True,0.391,20,False,left,0.05,0.4792,1.3373,0.858,2.1542,2.7959,0.6417,A
335,0.4997,0.0999,1,0.4498,0.5414,0.8912,335,3.2316,0.702,0.3498,0.8495,5,3D1U,1.0,True,0.709,13,True,left,0.0,0.4036,1.3453,0.9418,2.1953,2.7867,0.5914,A
336,0.4997,0.0999,1,0.5747,0.4248,0.8579,336,2.457,-0.8,-0.3998,0.0999,5,lapse_rate,2.0,True,1.041,0,False,right,-0.05,0.5278,0.7196,0.1919,1.5114,2.1525,0.6412,A
337,0.4997,0.0999,2,0.5997,0.4331,0.7496,337,3.1816,0.8,0.3998,0.8995,5,lapse_rate,2.0,True,0.35,0,False,right,0.05,1.9628,2.8127,0.8499,0.5292,1.171,0.6418,A
338,0.4997,0.0999,1,0.6413,0.5081,0.533,338,2.9234,0.486,0.2415,0.7413,5,2D1U,1.0,True,2.0,20,False,left,0.0,0.5992,1.4323,0.8331,1.9242,2.5156,0.5914,V
339,0.4997,1.1993,1,0.5247,0.4498,0.5913,339,2.407,-0.318,-0.1582,0.3415,5,3U1D,2.0,True,1.014,15,True,right,-0.05,0.4834,0.9169,0.4335,1.4419,2.0836,0.6417,V
340,0.4997,1.1993,1,0.5664,0.633,0.8329,340,3.3815,0.702,0.3498,0.8495,5,3D1U,2.0,False,0.671,13,True,right,0.05,0.5202,1.4616,0.9414,2.2281,2.8697,0.6416,A
341,0.4997,1.1993,1,0.608,0.558,0.8162,341,2.865,-0.234,-0.1166,0.3831,5,2U1D,2.0,True,1.006,17,False,right,0.0,0.562,1.0369,0.4748,1.812,2.4037,0.5917,V
342,0.4997,0.0999,1,0.3998,0.4498,0.5913,342,2.3237,-0.234,-0.1166,0.3831,5,2U1D,2.0,True,1.106,17,False,right,-0.05,0.3588,0.8338,0.475,1.3588,2.0003,0.6416,A
343,0.4997,0.0999,2,0.4664,0.4248,0.5664,343,2.8318,0.756,0.3748,0.8745,5,3D1U,2.0,True,0.392,13,False,right,0.05,1.6447,2.4696,0.8249,0.3949,1.0362,0.6414,V
344,0.4997,1.1993,2,0.633,0.4914,0.7829,344,2.5069,-0.8,-0.3998,0.0999,5,lapse_rate,1.0,True,0.56,0,False,left,0.0,2.0018,2.0518,0.0501,0.5853,1.1769,0.5915,A
345,0.4997,0.0999,1,0.4664,0.6247,0.5997,345,2.532,-0.318,-0.1582,0.3415,5,3U1D,2.0,True,0.834,15,True,right,-0.05,0.4265,0.8598,0.4333,1.3934,2.0351,0.6417,V
346,0.4997,1.1993,1,0.4414,0.4581,0.6413,346,2.7818,0.486,0.2415,0.7413,5,2D1U,2.0,False,1.192,20,False,right,0.05,0.3946,1.228,0.8334,1.803,2.4445,0.6415,V
347,0.4997,0.0999,1,0.4581,0.6247,0.6496,347,3.1316,0.8,0.3998,0.8995,5,lapse_rate,1.0,True,0.658,0,False,left,0.0,0.416,1.4079,0.9919,2.016,2.6077,0.5917,V
348,0.4997,1.1993,2,0.5414,0.4914,0.533,348,2.94,0.756,0.3748,0.8745,5,3D1U,2.0,True,0.162,13,False,right,-0.05,1.69,2.515,0.825,0.4733,1.1149,0.6416,A
349,0.4997,1.1993,2,0.5913,0.4414,0.6746,349,2.9732,0.54,0.2665,0.7662,5,2D1U,1.0,False,1.877,21,True,left,0.05,1.877,2.5934,0.7164,0.5189,1.1607,0.6417,A
350,0.4997,0.0999,2,0.4581,0.4664,0.5664,350,2.3987,-0.18,-0.0916,0.4081,5,2U1D,2.0,False,2.246,17,False,right,0.0,1.6119,1.9702,0.3583,0.412,1.003,0.5911,V
351,0.4997,0.0999,2,0.6247,0.608,0.6663,351,2.7402,-0.318,-0.1582,0.3415,5,3U1D,2.0,False,1.199,15,True,right,-0.05,1.9033,2.1952,0.2919,0.5533,1.195,0.6418,A
352,0.4997,1.1993,1,0.558,0.6163,0.7579,352,2.5318,-0.8,-0.3998,0.0999,5,lapse_rate,2.0,True,0.933,0,False,right,0.05,0.5134,0.7051,0.1917,1.3966,2.0384,0.6419,V
353,0.4997,0.0999,1,0.583,0.6163,0.8662,353,2.9483,-0.234,-0.1166,0.3831,5,2U1D,2.0,True,1.002,18,True,right,0.0,0.5364,1.0112,0.4748,1.8362,2.4278,0.5916,A
354,0.4997,1.1993,2,0.4248,0.5747,0.7662,354,3.065,0.594,0.2998,0.7996,5,2D1U,2.0,True,0.489,21,False,right,-0.05,1.807,2.5569,0.7499,0.3569,0.9987,0.6418,A
355,0.4997,1.1993,1,0.5997,0.6413,0.558,355,2.6152,-0.372,-0.1832,0.3165,5,3U1D,2.0,True,1.257,15,False,right,0.05,0.5587,0.9671,0.4084,1.4586,2.1003,0.6417,A
356,0.4997,1.1993,1,0.6163,0.5997,0.8162,356,3.4064,0.756,0.3748,0.8745,5,3D1U,2.0,False,25.212,13,False,right,0.0,0.5708,1.5375,0.9667,2.3125,2.9041,0.5916,V
357,0.4997,0.0999,2,0.5997,0.5247,0.7496,357,2.6902,-0.372,-0.1832,0.3165,5,3U1D,1.0,True,0.692,15,False,left,-0.05,1.9661,2.2323,0.2662,0.5326,1.1743,0.6416,A
358,0.4997,0.0999,2,0.608,0.4414,0.6413,358,2.99,0.594,0.2998,0.7996,5,2D1U,2.0,True,0.431,21,False,right,0.05,1.8655,2.6158,0.7503,0.5406,1.1825,0.6418,A
359,0.4997,1.1993,1,0.583,0.533,0.8246,359,3.3398,0.8,0.3998,0.8995,5,lapse_rate,2.0,False,1.303,0,False,right,0.0,0.5388,1.53,0.9913,2.3133,2.9052,0.5918,V
360,0.4997,0.0999,2,0.4914,0.533,0.6913,360,2.5985,-0.234,-0.1166,0.3831,5,2U1D,1.0,True,1.49,18,True,left,-0.05,1.7937,2.1275,0.3339,0.4191,1.0605,0.6414,A
