,standardDur,audNoise,order,preDur,postDur,isiDur,trial_num,totalDur,delta_dur_percents,deltaDurS,testDurS,intensities,current_stair,responses,is_correct,response_rts,stair_num_reversal,stair_is_reversal,response_keys,conflictDur,recordedOnsetVisualTest,recordedOffsetVisualTest,recordedDurVisualTest,recordedOnsetVisualStandard,recordedOffsetVisualStandard,recordedDurVisualStandard,modalityCue
0,0.49837,1.2,1,0.22427,0.28241,0.73925,0,1.94365,-0.6,-0.29902,0.19935,5,2U1D,2.0,True,0.542,0,False,right,0.16612,0.1531,0.5036,0.3505,1.0865,1.9035,0.817,A
1,0.49837,1.2,2,0.19935,0.2658,0.83893,1,2.59985,0.6,0.29902,0.7974,5,2D1U,2.0,True,0.542,0,False,right,-0.24919,1.5669,2.291,0.7241,0.2495,0.6503,0.4008,A
2,0.49837,1.2,2,0.2741,0.44023,0.5399,2,1.95195,-0.6,-0.29902,0.19935,5,2U1D,1.0,True,0.408,0,False,left,0.08306,1.5068,1.6326,0.1258,0.1575,0.8903,0.7328,A
3,0.49837,1.2,1,0.20766,0.38209,0.5316,3,2.41712,0.6,0.29902,0.7974,5,2D1U,1.0,True,0.382,0,False,left,-0.08306,0.1295,1.0791,0.9495,1.5791,2.1458,0.5667,A
4,0.49837,1.2,2,0.24919,0.30733,0.71433,4,1.86889,-0.8,-0.3987,0.09967,5,lapse_rate,1.0,True,0.482,0,False,left,0.16612,1.6977,1.7233,0.0256,0.0887,0.9049,0.8162,A
5,0.49837,0.1,2,0.34886,0.44023,0.6728,5,2.23436,-0.45,-0.22427,0.2741,5,2U1D,1.0,True,0.357,0,False,left,-0.24919,1.3976,1.531,0.1333,0.6146,0.5809,-0.0337,A
6,0.49837,0.1,2,0.44853,0.31564,0.88876,6,2.87394,0.45,0.22427,0.72264,5,2D1U,2.0,True,0.357,0,False,right,0.08306,1.8792,2.462,0.5828,0.5461,0.8461,0.2999,A
7,0.49837,1.2,2,0.34886,0.24919,0.7974,7,2.79089,0.8,0.3987,0.89707,5,lapse_rate,2.0,True,0.376,0,False,right,-0.08306,1.7566,2.5817,0.825,0.3142,0.8816,0.5674,A
8,0.49837,1.2,2,0.37378,0.19935,0.78909,8,1.96026,-0.8,-0.3987,0.09967,5,lapse_rate,1.0,True,0.475,0,False,left,0.16612,1.8985,1.9233,0.0248,0.2162,1.0317,0.8155,A
9,0.49837,0.1,2,0.29072,0.22427,0.41531,9,1.70277,-0.45,-0.22427,0.2741,5,2U1D,1.0,True,0.343,0,False,left,-0.24919,1.0855,1.2187,0.1333,0.5602,0.5264,-0.0338,A
10,0.49837,0.1,1,0.31564,0.3987,0.86384,10,2.79919,0.45,0.22427,0.72264,5,2D1U,1.0,True,0.767,0,False,left,0.08306,0.4555,0.897,0.4415,1.864,2.1638,0.2998,A
11,0.49837,1.2,2,0.44853,0.34886,0.57313,11,2.51677,0.3,0.14951,0.64788,5,2D1U,2.0,True,0.777,0,False,right,-0.08306,1.6314,2.2073,0.5759,0.4158,0.9821,0.5662,A
12,0.49837,1.2,2,0.25749,0.35717,0.70603,12,2.16792,-0.3,-0.14951,0.34886,5,2U1D,1.0,True,0.339,0,False,left,0.16612,1.7001,1.9756,0.2755,0.0999,0.9175,0.8177,A
13,0.49837,1.2,1,0.43192,0.34886,0.82231,13,2.20113,-0.8,-0.3987,0.09967,5,lapse_rate,2.0,True,0.384,0,False,right,-0.24919,0.3595,0.6092,0.2497,1.4837,1.8845,0.4008,A
14,0.49837,1.2,2,0.25749,0.29072,0.63958,14,2.03502,-0.3,-0.14951,0.34886,5,2U1D,1.0,True,0.397,0,False,left,0.08306,1.5891,1.8636,0.2745,0.1387,0.8721,0.7334,A
15,0.49837,0.1,1,0.30733,0.23257,0.52329,15,1.66123,-0.8,-0.3987,0.09967,5,lapse_rate,2.0,True,0.4,0,False,right,-0.08306,0.4486,0.2658,-0.1827,0.9745,1.1068,0.1323,A
16,0.49837,1.2,2,0.34055,0.30733,0.407,16,2.20113,0.3,0.14951,0.64788,5,2D1U,2.0,True,0.484,0,False,right,0.16612,1.4824,2.0577,0.5753,0.1823,0.9987,0.8165,A
17,0.49837,0.1,2,0.44023,0.34886,0.86384,17,2.57492,-0.15,-0.07476,0.42362,5,2U1D,1.0,True,1.69,0,False,left,-0.24919,1.6825,1.9654,0.2829,0.7074,0.6739,-0.0334,A
18,0.49837,0.1,2,0.30733,0.29902,0.63958,18,2.31743,0.15,0.07476,0.57313,5,2D1U,2.0,True,0.282,0,False,right,0.08306,1.4914,1.925,0.4335,0.4077,0.7069,0.2992,A
19,0.49837,1.2,2,0.38209,0.38209,0.77248,19,2.9321,0.8,0.3987,0.89707,5,lapse_rate,2.0,True,1.643,0,False,right,-0.08306,1.7657,2.5908,0.8251,0.349,0.9151,0.5661,A
20,0.49837,0.1,2,0.38209,0.43192,0.57313,20,2.30913,-0.15,-0.07476,0.42362,5,2U1D,2.0,False,18.895,0,False,right,0.16612,1.5379,1.821,0.2831,0.4381,0.8214,0.3833,A
21,0.49837,0.1,2,0.42362,0.34886,0.77248,21,2.143,-0.8,-0.3987,0.09967,5,lapse_rate,1.0,True,0.494,0,False,left,-0.24919,1.573,1.5314,-0.0416,0.6896,0.6567,-0.0329,A
22,0.49837,0.1,2,0.24919,0.44023,0.68111,22,2.44203,0.15,0.07476,0.57313,5,2D1U,2.0,True,0.405,0,False,right,0.08306,1.4774,1.9102,0.4328,0.3516,0.6517,0.3001,A
23,0.49837,1.2,1,0.43192,0.38209,0.41531,23,2.62476,0.8,0.3987,0.89707,5,lapse_rate,1.0,True,0.416,0,False,left,-0.08306,0.3564,1.4065,1.0501,1.7895,2.3563,0.5668,A
24,0.49837,1.2,2,0.34055,0.28241,0.89707,24,2.40049,-0.24,-0.11629,0.38209,5,2U1D,1.0,True,0.39,1,True,left,0.16612,1.9766,2.285,0.3084,0.1853,1.0015,0.8162,A
25,0.49837,1.2,1,0.44023,0.20766,0.86384,25,2.50847,-0.0,0.0,0.49837,5,2D1U,2.0,False,0.842,0,False,right,-0.24919,0.3681,1.0176,0.6495,1.9343,2.3346,0.4003,A
26,0.49837,1.2,2,0.39039,0.21596,0.89707,26,2.38388,-0.24,-0.11629,0.38209,5,2U1D,1.0,True,1.578,1,True,left,0.08306,1.9816,2.2904,0.3088,0.2736,1.0071,0.7336,A
27,0.49837,1.2,2,0.35717,0.44023,0.59805,27,2.35066,-0.09,-0.04153,0.45684,5,2D1U,2.0,False,0.44,1,True,right,-0.08306,1.5627,1.9461,0.3834,0.3207,0.8871,0.5663,A
28,0.49837,0.1,2,0.2658,0.24919,0.69772,28,1.81075,-0.8,-0.3987,0.09967,5,lapse_rate,1.0,True,0.342,0,False,left,0.16612,1.5483,1.5064,-0.0419,0.3224,0.7067,0.3843,A
29,0.49837,0.1,1,0.33225,0.37378,0.78909,29,2.40049,-0.18,-0.09137,0.407,5,2D1U,2.0,True,0.326,1,False,right,-0.24919,0.4773,0.6027,0.1254,1.6607,1.6274,-0.0333,A
30,0.49837,0.1,2,0.41531,0.39039,0.76417,30,2.16791,-0.8,-0.3987,0.09967,5,lapse_rate,1.0,True,0.452,0,False,left,0.08306,1.7213,1.6804,-0.0409,0.513,0.8131,0.3001,A
31,0.49837,0.1,1,0.33225,0.2741,0.47345,31,1.98517,-0.186,-0.09137,0.407,5,2U1D,2.0,True,0.353,2,True,right,-0.08306,0.4739,0.5986,0.1248,1.2569,1.3899,0.1331,A
32,0.49837,0.1,2,0.42362,0.44853,0.8057,32,2.58322,-0.18,-0.09137,0.407,5,2D1U,2.0,False,1.083,1,False,right,0.16612,1.8157,2.0822,0.2665,0.4824,0.8659,0.3835,A
33,0.49837,0.1,2,0.28241,0.25749,0.8057,33,1.94364,-0.8,-0.3987,0.09967,5,lapse_rate,1.0,True,0.367,0,False,left,-0.24919,1.4665,1.4253,-0.0412,0.5499,0.5166,-0.0333,A
34,0.49837,0.1,2,0.44023,0.32394,0.59805,34,2.26759,-0.186,-0.09137,0.407,5,2U1D,2.0,False,0.421,2,True,right,0.08306,1.5785,1.8452,0.2667,0.5372,0.8369,0.2997,A
35,0.49837,1.2,2,0.44023,0.42362,0.86384,35,2.59153,-0.27,-0.1329,0.36547,5,2D1U,1.0,True,0.325,1,False,left,-0.08306,1.9114,2.2032,0.2918,0.4031,0.9699,0.5668,A
36,0.49837,1.2,2,0.34055,0.24088,0.85554,36,2.31743,-0.24,-0.11629,0.38209,5,2U1D,1.0,True,1.3,3,True,left,0.16612,1.9309,2.2398,0.3089,0.1808,0.9975,0.8167,A
37,0.49837,1.2,1,0.34886,0.44853,0.75586,37,2.15129,-0.8,-0.3987,0.09967,5,lapse_rate,2.0,True,0.267,0,False,right,-0.24919,0.2785,0.5283,0.2498,1.3361,1.7365,0.4004,A
38,0.49837,1.2,1,0.2658,0.30733,0.89707,38,2.35066,-0.24,-0.11629,0.38209,5,2U1D,2.0,True,0.342,3,True,right,0.08306,0.1871,0.7209,0.5339,1.5033,2.2369,0.7335,A
39,0.49837,1.2,2,0.23257,0.43192,0.85554,39,2.38387,-0.27,-0.1329,0.36547,5,2D1U,1.0,True,0.729,1,False,left,-0.08306,1.6972,1.9886,0.2914,0.197,0.7642,0.5672,A
40,0.49837,1.2,2,0.35717,0.32394,0.87215,40,2.1513,-0.8,-0.3987,0.09967,5,lapse_rate,1.0,True,0.333,0,False,left,0.16612,1.9662,1.9913,0.0251,0.1996,1.0168,0.8172,A
41,0.49837,0.1,1,0.34886,0.42362,0.55652,41,2.23437,-0.186,-0.09137,0.407,5,2U1D,2.0,True,0.388,4,True,right,-0.24919,0.4881,0.6144,0.1263,1.4379,1.4048,-0.0331,A
42,0.49837,0.1,1,0.23257,0.28241,0.49837,42,1.90211,-0.216,-0.10798,0.39039,5,2D1U,2.0,True,0.349,2,True,right,0.08306,0.3747,0.4827,0.108,1.0827,1.383,0.3004,A
43,0.49837,0.1,1,0.43192,0.29072,0.77248,43,2.09316,-0.8,-0.3987,0.09967,5,lapse_rate,2.0,True,0.599,0,False,right,-0.08306,0.5725,0.3893,-0.1832,1.3483,1.4815,0.1332,A
44,0.49837,0.1,1,0.20766,0.34886,0.73095,44,2.17623,-0.216,-0.10798,0.39039,5,2D1U,2.0,True,0.407,2,True,right,0.16612,0.3528,0.4616,0.1088,1.2518,1.6361,0.3843,A
45,0.49837,0.1,2,0.2658,0.43192,0.77248,45,2.86564,0.8,0.3987,0.89707,5,lapse_rate,2.0,True,0.926,0,False,right,-0.24919,1.4135,2.1727,0.7592,0.5304,0.497,-0.0333,A
46,0.49837,0.1,2,0.35717,0.21596,0.58143,46,2.05993,-0.186,-0.09137,0.407,5,2U1D,2.0,False,1.659,4,True,right,0.08306,1.4861,1.7521,0.2661,0.4601,0.7611,0.301,A
47,0.49837,1.2,1,0.43192,0.28241,0.61466,47,2.24267,-0.162,-0.08306,0.41531,5,2D1U,1.0,False,2.205,2,False,left,-0.08306,0.3593,0.9266,0.5673,1.5097,2.0763,0.5665,A
48,0.49837,0.1,1,0.44023,0.34886,0.83062,48,2.21775,-0.8,-0.3987,0.09967,5,lapse_rate,2.0,True,0.409,0,False,right,0.16612,0.5825,0.3992,-0.1834,1.2912,1.6735,0.3822,A
49,0.49837,1.2,2,0.38209,0.24919,0.87215,49,2.38389,-0.24,-0.11629,0.38209,5,2U1D,1.0,True,0.375,5,True,left,-0.24919,1.7859,2.0942,0.3083,0.4362,0.8358,0.3995,A
50,0.49837,0.1,2,0.2741,0.20766,0.77248,50,2.64968,0.8,0.3987,0.89707,5,lapse_rate,2.0,True,0.408,0,False,right,0.08306,1.5936,2.3517,0.7581,0.377,0.6767,0.2996,A
51,0.49837,1.2,1,0.39039,0.407,0.86384,51,2.54169,-0.24,-0.11629,0.38209,5,2U1D,2.0,True,0.714,5,True,right,-0.08306,0.3198,0.8528,0.533,1.6855,2.2524,0.5669,A
52,0.49837,1.2,1,0.2658,0.34055,0.5316,52,2.02671,-0.216,-0.10798,0.39039,5,2D1U,2.0,True,0.364,3,True,right,0.16612,0.1885,0.7302,0.5418,1.1047,1.921,0.8163,A
53,0.49837,0.1,2,0.42362,0.34886,0.5399,53,2.21775,-0.186,-0.09137,0.407,5,2U1D,1.0,True,0.401,6,True,left,-0.24919,1.3452,1.6126,0.2674,0.6951,0.6625,-0.0326,A
54,0.49837,0.1,1,0.38209,0.19935,0.87215,54,2.34235,-0.216,-0.10798,0.39039,5,2D1U,2.0,True,0.468,3,True,right,0.08306,0.5232,0.6315,0.1084,1.6069,1.9062,0.2993,A
55,0.49837,1.2,2,0.21596,0.38209,0.81401,55,2.0101,-0.8,-0.3987,0.09967,5,lapse_rate,1.0,True,0.35,0,False,left,-0.08306,1.6399,1.6649,0.025,0.1809,0.7486,0.5677,A
56,0.49837,0.1,2,0.29902,0.2741,0.78078,56,1.95194,-0.8,-0.3987,0.09967,5,lapse_rate,1.0,True,0.659,0,False,left,0.16612,1.6624,1.6206,-0.0418,0.3538,0.7374,0.3836,A
57,0.49837,0.1,2,0.407,0.22427,0.50668,57,2.04332,-0.186,-0.09137,0.407,5,2U1D,2.0,False,0.383,6,True,right,-0.24919,1.2905,1.5573,0.2667,0.6738,0.6407,-0.0331,A
58,0.49837,0.1,2,0.29902,0.38209,0.44023,58,2.03502,-0.162,-0.08306,0.41531,5,2D1U,1.0,True,0.387,4,True,left,0.08306,1.2804,1.5556,0.2752,0.3969,0.6974,0.3005,A
59,0.49837,1.2,1,0.34886,0.36547,0.78078,59,2.09315,-0.8,-0.3987,0.09967,5,lapse_rate,2.0,True,0.4,0,False,right,-0.08306,0.2778,0.5272,0.2494,1.2782,1.844,0.5659,A
60,0.49837,1.2,1,0.22427,0.36547,0.85554,60,2.35896,-0.162,-0.08306,0.41531,5,2D1U,2.0,True,0.527,4,True,right,0.16612,0.1504,0.7169,0.5665,1.4177,2.2341,0.8164,A
61,0.49837,1.2,2,0.2658,0.25749,0.73925,61,2.143,-0.24,-0.11629,0.38209,5,2U1D,1.0,True,0.314,7,True,left,-0.24919,1.5351,1.8436,0.3085,0.3184,0.7186,0.4002,A
62,0.49837,1.2,1,0.22427,0.21596,0.78078,62,2.10147,-0.24,-0.11629,0.38209,5,2U1D,2.0,True,0.392,7,True,right,0.08306,0.1529,0.6866,0.5337,1.3532,2.0857,0.7325,A
63,0.49837,0.1,2,0.2658,0.24088,0.77248,63,2.6746,0.8,0.3987,0.89707,5,lapse_rate,2.0,True,0.375,0,False,right,-0.08306,1.4997,2.2587,0.759,0.4501,0.5835,0.1334,A
64,0.49837,1.2,2,0.33225,0.36547,0.78909,64,2.43371,-0.108,-0.05814,0.44853,5,2D1U,2.0,False,0.313,4,False,right,0.16612,1.8581,2.2323,0.3742,0.1739,0.9907,0.8168,A
65,0.49837,0.1,1,0.22427,0.31564,0.50668,65,1.96027,-0.162,-0.08306,0.41531,5,2D1U,1.0,False,1.075,5,True,left,-0.24919,0.3692,0.5031,0.1339,1.2779,1.245,-0.0328,A
66,0.49837,0.1,2,0.34055,0.29902,0.49007,66,2.03501,-0.186,-0.09137,0.407,5,2U1D,1.0,True,1.126,8,True,left,0.08306,1.3718,1.6385,0.2667,0.438,0.7386,0.3006,A
67,0.49837,1.2,2,0.25749,0.36547,0.54821,67,2.56661,0.8,0.3987,0.89707,5,lapse_rate,2.0,True,0.364,0,False,right,-0.08306,1.4122,2.2374,0.8252,0.2209,0.7874,0.5665,A
68,0.49837,0.1,1,0.43192,0.25749,0.82231,68,2.90716,0.8,0.3987,0.89707,5,lapse_rate,1.0,True,0.326,0,False,left,0.16612,0.5738,1.191,0.6173,2.0742,2.4579,0.3837,A
69,0.49837,0.1,1,0.44023,0.19935,0.69772,69,2.24267,-0.186,-0.09137,0.407,5,2U1D,2.0,True,0.413,8,True,right,-0.24919,0.5815,0.7066,0.1251,1.6732,1.6405,-0.0327,A
70,0.49837,0.1,1,0.407,0.24088,0.43192,70,1.96856,-0.216,-0.10798,0.39039,5,2D1U,2.0,True,0.756,5,False,right,0.08306,0.5478,0.6564,0.1086,1.1899,1.4902,0.3003,A
71,0.49837,0.1,2,0.24919,0.38209,0.85554,71,2.88226,0.8,0.3987,0.89707,5,lapse_rate,2.0,True,0.567,0,False,right,-0.08306,1.5664,2.3248,0.7584,0.4334,0.5667,0.1333,A
72,0.49837,1.2,1,0.2658,0.30733,0.74756,72,2.25098,-0.132,-0.06645,0.43192,5,2U1D,1.0,False,0.392,8,False,left,0.16612,0.1879,0.7723,0.5843,1.3634,2.1801,0.8167,A
73,0.49837,1.2,2,0.25749,0.37378,0.83893,73,2.35896,-0.216,-0.10798,0.39039,5,2D1U,1.0,True,0.377,5,False,left,-0.24919,1.6241,1.941,0.317,0.3069,0.708,0.401,A
74,0.49837,1.2,2,0.32394,0.37378,0.63958,74,2.25098,-0.162,-0.08306,0.41531,5,2D1U,1.0,True,0.374,6,True,left,0.08306,1.6543,1.9961,0.3418,0.2046,0.9371,0.7325,A
75,0.49837,1.2,1,0.30733,0.23257,0.407,75,1.85227,-0.186,-0.09137,0.407,5,2U1D,2.0,True,1.749,9,True,right,-0.08306,0.2327,0.7901,0.5574,1.1661,1.7317,0.5657,A
76,0.49837,1.2,1,0.39039,0.23257,0.72264,76,2.74104,0.8,0.3987,0.89707,5,lapse_rate,1.0,True,0.499,0,False,left,0.16612,0.3116,1.3619,1.0503,1.9288,2.7452,0.8164,A
77,0.49837,0.1,1,0.44853,0.35717,0.47345,77,2.19283,-0.162,-0.08306,0.41531,5,2D1U,2.0,True,0.542,6,True,right,-0.24919,0.5938,0.7276,0.1339,1.4698,1.4361,-0.0337,A
78,0.49837,0.1,2,0.36547,0.24919,0.51498,78,2.52508,0.8,0.3987,0.89707,5,lapse_rate,2.0,True,0.362,0,False,right,0.08306,1.425,2.1828,0.7579,0.4664,0.7658,0.2994,A
79,0.49837,0.1,1,0.38209,0.3987,0.61466,79,2.30082,-0.186,-0.09137,0.407,5,2U1D,2.0,True,1.516,9,True,right,-0.08306,0.527,0.6519,0.1249,1.4527,1.5856,0.1329,A
80,0.49837,0.1,1,0.29072,0.19935,0.73095,80,2.16792,-0.108,-0.05814,0.44853,5,2D1U,1.0,False,0.476,6,False,left,0.16612,0.4328,0.5989,0.1661,1.3911,1.7734,0.3823,A
81,0.49837,0.1,2,0.2658,0.38209,0.46515,81,2.04333,-0.132,-0.06645,0.43192,5,2U1D,1.0,True,0.44,10,True,left,-0.24919,1.1095,1.4015,0.292,0.5344,0.5008,-0.0335,A
82,0.49837,1.2,1,0.3987,0.41531,0.45684,82,2.66629,0.8,0.3987,0.89707,5,lapse_rate,1.0,True,0.298,0,False,left,0.08306,0.3216,1.3715,1.0499,1.7141,2.4467,0.7325,A
83,0.49837,1.2,1,0.38209,0.3987,0.8057,83,2.51678,-0.132,-0.06645,0.43192,5,2U1D,1.0,False,0.349,10,True,left,-0.08306,0.3088,0.8924,0.5836,1.668,2.2339,0.5659,A
84,0.49837,1.2,1,0.21596,0.2658,0.72264,84,2.59984,0.8,0.3987,0.89707,5,lapse_rate,1.0,True,0.833,0,False,left,0.16612,0.1425,1.1924,1.0499,1.759,2.5763,0.8174,A
85,0.49837,1.2,1,0.43192,0.36547,0.78078,85,2.49185,-0.162,-0.08306,0.41531,5,2D1U,2.0,True,0.906,7,True,right,-0.24919,0.3561,0.923,0.567,1.7561,2.1565,0.4004,A
86,0.49837,1.2,2,0.35717,0.34886,0.41531,86,1.71938,-0.8,-0.3987,0.09967,5,lapse_rate,1.0,True,1.057,0,False,left,0.08306,1.4634,1.4883,0.0249,0.2382,0.9718,0.7337,A
87,0.49837,1.2,1,0.24919,0.21596,0.58974,87,1.96857,-0.162,-0.08306,0.41531,5,2D1U,2.0,True,0.85,7,True,right,-0.08306,0.174,0.7416,0.5676,1.2998,1.8664,0.5665,A
88,0.49837,1.2,2,0.39039,0.31564,0.88046,88,2.49186,-0.186,-0.09137,0.407,5,2U1D,1.0,True,1.698,11,True,left,0.16612,2.0044,2.3383,0.3339,0.2301,1.0459,0.8158,A
89,0.49837,0.1,1,0.21596,0.37378,0.49007,89,2.02671,-0.108,-0.05814,0.44853,5,2D1U,2.0,True,0.554,8,True,right,-0.24919,0.3548,0.5217,0.1669,1.2797,1.2461,-0.0336,A
90,0.49837,0.1,1,0.34055,0.24088,0.42362,90,1.91042,-0.186,-0.09137,0.407,5,2U1D,2.0,True,0.615,11,True,right,0.08306,0.4808,0.6059,0.1251,1.1301,1.4311,0.301,A
91,0.49837,1.2,2,0.29072,0.20766,0.83893,91,1.93535,-0.8,-0.3987,0.09967,5,lapse_rate,1.0,True,0.357,0,False,left,-0.08306,1.7404,1.7653,0.0249,0.257,0.8239,0.5669,A
92,0.49837,0.1,1,0.407,0.20766,0.44853,92,2.01009,-0.108,-0.05814,0.44853,5,2D1U,2.0,True,0.417,8,True,right,0.16612,0.5481,0.7154,0.1673,1.224,1.6066,0.3826,A
93,0.49837,1.2,2,0.25749,0.25749,0.73925,93,1.85227,-0.8,-0.3987,0.09967,5,lapse_rate,1.0,True,0.318,0,False,left,-0.24919,1.5277,1.553,0.0252,0.3104,0.7113,0.4009,A
94,0.49837,0.1,2,0.3987,0.44853,0.64788,94,2.4254,-0.132,-0.06645,0.43192,5,2U1D,1.0,True,0.3,12,True,left,0.08306,1.5943,1.8867,0.2924,0.5032,0.8031,0.2999,A
95,0.49837,0.1,2,0.29072,0.29902,0.88876,95,2.07654,-0.8,-0.3987,0.09967,5,lapse_rate,1.0,True,0.366,0,False,left,-0.08306,1.6382,1.597,-0.0412,0.4721,0.6057,0.1337,A
96,0.49837,1.2,1,0.39039,0.29902,0.57313,96,2.23436,-0.054,-0.02492,0.47345,5,2D1U,2.0,True,0.365,8,False,right,0.16612,0.3135,0.9385,0.625,1.3552,2.1713,0.8161,A
97,0.49837,1.2,2,0.31564,0.22427,0.407,97,1.8772,-0.132,-0.06645,0.43192,5,2U1D,1.0,True,0.242,12,True,left,-0.24919,1.2496,1.6078,0.3582,0.3655,0.7663,0.4008,A
98,0.49837,0.1,2,0.24088,0.2741,0.44023,98,2.35065,0.8,0.3987,0.89707,5,lapse_rate,2.0,True,0.325,0,False,right,0.08306,1.2266,1.9858,0.7592,0.3434,0.6443,0.3009,A
99,0.49837,1.2,2,0.41531,0.44853,0.62297,99,2.45863,-0.054,-0.02492,0.47345,5,2D1U,1.0,True,0.308,8,False,left,-0.08306,1.6489,2.0489,0.4,0.3825,0.949,0.5665,A
100,0.49837,1.2,1,0.34055,0.33225,0.76417,100,2.40049,-0.078,-0.04153,0.46515,5,2U1D,2.0,True,0.392,12,False,right,0.16612,0.2697,0.8867,0.6169,1.4939,2.3115,0.8176,A
101,0.49837,0.1,1,0.3987,0.35717,0.407,101,2.12639,-0.078,-0.04153,0.46515,5,2U1D,2.0,True,0.291,12,False,right,-0.24919,0.5393,0.7225,0.1832,1.3974,1.3644,-0.033,A
102,0.49837,0.1,1,0.21596,0.30733,0.46515,102,1.98518,-0.0,0.0,0.49837,5,2D1U,1.0,False,1.39,8,False,left,0.08306,0.3554,0.5724,0.2171,1.1398,1.4395,0.2997,A
103,0.49837,1.2,2,0.20766,0.28241,0.5316,103,2.41711,0.8,0.3987,0.89707,5,lapse_rate,2.0,True,0.348,0,False,right,-0.08306,1.3466,2.1717,0.8251,0.1721,0.7389,0.5668,A
104,0.49837,0.1,1,0.29902,0.22427,0.51498,104,2.43371,0.8,0.3987,0.89707,5,lapse_rate,1.0,True,0.307,0,False,left,0.16612,0.4379,1.0553,0.6174,1.6303,2.0136,0.3833,A
105,0.49837,0.1,2,0.38209,0.29902,0.55652,105,2.20945,-0.054,-0.02492,0.47345,5,2D1U,1.0,True,0.833,9,True,left,-0.24919,1.3156,1.6491,0.3335,0.6485,0.615,-0.0335,A
106,0.49837,0.1,1,0.20766,0.34055,0.5399,106,2.07655,-0.024,-0.00831,0.49007,5,2U1D,1.0,False,2.094,12,False,left,0.08306,0.3486,0.5577,0.2091,1.1994,1.4993,0.2999,A
107,0.49837,0.1,1,0.41531,0.41531,0.41531,107,2.64137,0.8,0.3987,0.89707,5,lapse_rate,1.0,True,7.258,0,False,left,-0.08306,0.5588,1.1746,0.6158,1.7753,1.9076,0.1323,A
108,0.49837,1.2,2,0.24919,0.32394,0.63127,108,2.17622,-0.054,-0.02492,0.47345,5,2D1U,1.0,True,2.777,9,True,left,0.16612,1.6137,2.0135,0.3998,0.0885,0.9055,0.8169,A
109,0.49837,1.2,2,0.42362,0.34055,0.78909,109,2.51678,-0.078,-0.04153,0.46515,5,2U1D,1.0,True,0.274,13,True,left,-0.24919,1.7394,2.1309,0.3916,0.4727,0.8726,0.3999,A
110,0.49837,1.2,2,0.2741,0.37378,0.69772,110,2.30912,-0.078,-0.04153,0.46515,5,2U1D,1.0,True,0.225,13,True,left,0.08306,1.6685,2.0594,0.3909,0.1598,0.893,0.7332,A
111,0.49837,1.2,2,0.2658,0.38209,0.68941,111,1.93534,-0.8,-0.3987,0.09967,5,lapse_rate,1.0,True,0.312,0,False,left,-0.08306,1.5632,1.5884,0.0252,0.2292,0.7962,0.567,A
112,0.49837,1.2,2,0.20766,0.44853,0.6645,112,2.31743,-0.0,0.0,0.49837,5,2D1U,2.0,False,0.365,10,True,right,0.16612,1.605,2.0299,0.4249,0.0465,0.8631,0.8166,A
113,0.49837,0.1,1,0.25749,0.23257,0.89707,113,2.37557,-0.024,-0.00831,0.49007,5,2U1D,1.0,False,1.642,14,True,left,-0.24919,0.4006,0.6086,0.208,1.7757,1.7428,-0.0329,A
114,0.49837,0.1,1,0.42362,0.38209,0.86384,114,2.64137,-0.054,-0.02492,0.47345,5,2D1U,2.0,True,0.283,11,True,right,0.08306,0.5631,0.7542,0.1911,1.7206,2.0212,0.3006,A
115,0.49837,0.1,2,0.28241,0.39039,0.62297,115,1.89381,-0.8,-0.3987,0.09967,5,lapse_rate,1.0,True,0.29,0,False,left,-0.08306,1.3669,1.3253,-0.0416,0.4667,0.6005,0.1338,A
116,0.49837,0.1,1,0.34886,0.31564,0.46515,116,1.72769,-0.8,-0.3987,0.09967,5,lapse_rate,2.0,True,0.211,0,False,right,0.16612,0.4885,0.3043,-0.1842,0.83,1.2136,0.3836,A
117,0.49837,0.1,1,0.28241,0.19935,0.58143,117,2.02671,-0.078,-0.04153,0.46515,5,2U1D,2.0,True,0.44,15,True,right,-0.24919,0.4238,0.6075,0.1837,1.4565,1.4233,-0.0332,A
118,0.49837,0.1,1,0.34886,0.24919,0.76417,118,2.33404,-0.054,-0.02492,0.47345,5,2D1U,1.0,False,0.923,11,True,left,0.08306,0.4945,0.686,0.1915,1.5527,1.8535,0.3009,A
119,0.49837,1.2,1,0.37378,0.28241,0.49837,119,2.10146,-0.108,-0.05814,0.44853,5,2D1U,1.0,False,0.358,11,False,left,-0.08306,0.2975,0.8985,0.601,1.3652,1.9313,0.5661,A
120,0.49837,1.2,2,0.25749,0.20766,0.407,120,1.83567,-0.078,-0.04153,0.46515,5,2U1D,1.0,True,0.401,15,True,left,0.16612,1.4011,1.7928,0.3917,0.1014,0.9176,0.8161,A
121,0.49837,0.1,1,0.32394,0.31564,0.78909,121,2.82411,0.8,0.3987,0.89707,5,lapse_rate,1.0,True,0.311,0,False,left,-0.24919,0.4659,1.0816,0.6158,2.1401,2.1072,-0.0329,A
122,0.49837,1.2,2,0.44023,0.24919,0.86384,122,2.5417,-0.024,-0.00831,0.49007,5,2U1D,1.0,True,0.421,16,True,left,0.08306,2.0033,2.42,0.4168,0.3276,1.062,0.7344,A
123,0.49837,1.2,2,0.43192,0.29072,0.56482,123,1.8855,-0.8,-0.3987,0.09967,5,lapse_rate,1.0,True,0.342,0,False,left,-0.08306,1.6087,1.6338,0.0251,0.4013,0.9677,0.5665,A
124,0.49837,1.2,1,0.28241,0.36547,0.54821,124,2.10977,-0.162,-0.08306,0.41531,5,2D1U,2.0,True,0.457,11,False,right,0.16612,0.2107,0.7772,0.5665,1.1688,1.9865,0.8176,A
125,0.49837,0.1,2,0.2741,0.20766,0.84723,125,2.24267,-0.162,-0.08306,0.41531,5,2D1U,1.0,True,0.272,11,False,left,-0.24919,1.4979,1.7735,0.2755,0.5393,0.5061,-0.0332,A
126,0.49837,0.1,2,0.42362,0.36547,0.6645,126,2.44203,-0.024,-0.00831,0.49007,5,2U1D,2.0,False,0.221,16,True,right,0.08306,1.6364,1.9866,0.3502,0.5276,0.8274,0.2998,A
127,0.49837,0.1,1,0.33225,0.23257,0.83062,127,2.79088,0.8,0.3987,0.89707,5,lapse_rate,1.0,True,0.333,0,False,left,-0.08306,0.4704,1.0868,0.6165,2.1033,2.2373,0.134,A
128,0.49837,0.1,2,0.2741,0.36547,0.5399,128,2.12637,-0.108,-0.05814,0.44853,5,2D1U,2.0,False,0.563,12,True,right,0.16612,1.397,1.705,0.3081,0.3309,0.7134,0.3825,A
129,0.49837,1.2,2,0.39039,0.2741,0.51498,129,1.77751,-0.8,-0.3987,0.09967,5,lapse_rate,1.0,True,0.301,0,False,left,-0.24919,1.4342,1.4585,0.0242,0.4425,0.8419,0.3994,A
130,0.49837,0.1,2,0.2741,0.30733,0.45684,130,2.00179,-0.078,-0.04153,0.46515,5,2U1D,1.0,True,1.586,17,True,left,0.08306,1.2723,1.5969,0.3246,0.3721,0.672,0.2999,A
131,0.49837,1.2,1,0.20766,0.2658,0.70603,131,2.57493,0.8,0.3987,0.89707,5,lapse_rate,1.0,True,0.365,0,False,left,-0.08306,0.1367,1.1867,1.05,1.8611,2.4287,0.5676,A
132,0.49837,1.2,2,0.2741,0.43192,0.58974,132,2.25928,-0.078,-0.04153,0.46515,5,2U1D,1.0,True,0.999,17,True,left,0.16612,1.5991,1.9907,0.3916,0.1155,0.9317,0.8163,A
133,0.49837,1.2,2,0.35717,0.37378,0.5399,133,2.18453,-0.162,-0.08306,0.41531,5,2D1U,2.0,False,1.071,13,True,right,-0.24919,1.4275,1.7699,0.3425,0.4108,0.8115,0.4007,A
134,0.49837,1.2,2,0.2741,0.32394,0.65619,134,2.64967,0.8,0.3987,0.89707,5,lapse_rate,2.0,True,0.284,0,False,right,0.08306,1.6222,2.447,0.8248,0.1554,0.8883,0.7329,A
135,0.49837,1.2,1,0.29072,0.30733,0.41531,135,1.90212,-0.216,-0.10798,0.39039,5,2D1U,1.0,False,0.258,13,False,left,-0.08306,0.2161,0.757,0.5409,1.1406,1.7078,0.5672,A
136,0.49837,1.2,2,0.44853,0.44023,0.59805,136,2.47525,-0.024,-0.00831,0.49007,5,2U1D,2.0,False,1.175,18,True,right,0.16612,1.7789,2.1949,0.4161,0.2869,1.1036,0.8168,A
137,0.49837,0.1,2,0.35717,0.33225,0.5316,137,1.81906,-0.8,-0.3987,0.09967,5,lapse_rate,1.0,True,0.276,0,False,left,-0.24919,1.2701,1.2277,-0.0424,0.6276,0.5941,-0.0335,A
138,0.49837,0.1,1,0.22427,0.36547,0.46515,138,1.91873,-0.27,-0.1329,0.36547,5,2D1U,2.0,True,0.441,13,False,right,0.08306,0.3671,0.4504,0.0833,1.0176,1.3175,0.2999,A
139,0.49837,0.1,1,0.21596,0.29902,0.64788,139,2.12638,-0.078,-0.04153,0.46515,5,2U1D,2.0,True,1.154,19,True,right,-0.08306,0.3544,0.5383,0.1838,1.3709,1.5049,0.1339,A
140,0.49837,0.1,2,0.24919,0.30733,0.51498,140,2.03502,-0.078,-0.04153,0.46515,5,2U1D,1.0,True,1.741,19,True,left,0.16612,1.3517,1.6768,0.3251,0.3109,0.6942,0.3833,A
141,0.49837,0.1,1,0.34055,0.21596,0.73095,141,2.1513,-0.27,-0.1329,0.36547,5,2D1U,2.0,True,0.311,13,False,right,-0.24919,0.485,0.5684,0.0834,1.5683,1.5353,-0.0329,A
142,0.49837,1.2,2,0.41531,0.25749,0.78909,142,2.05993,-0.8,-0.3987,0.09967,5,lapse_rate,1.0,True,0.451,0,False,left,0.08306,1.9021,1.9267,0.0247,0.3025,1.0355,0.733,A
143,0.49837,1.2,1,0.22427,0.407,0.82231,143,2.44202,-0.024,-0.00831,0.49007,5,2U1D,2.0,True,0.499,20,True,right,-0.08306,0.1523,0.7942,0.6419,1.586,2.1526,0.5666,A
144,0.49837,0.1,1,0.42362,0.29072,0.41531,144,2.52509,0.8,0.3987,0.89707,5,lapse_rate,1.0,True,0.448,0,False,left,0.16612,0.5672,1.1843,0.6171,1.6595,2.0421,0.3826,A
145,0.49837,1.2,1,0.39039,0.21596,0.65619,145,2.1513,-0.216,-0.10798,0.39039,5,2D1U,2.0,True,0.342,14,True,right,-0.24919,0.3178,0.8591,0.5413,1.5673,1.9674,0.4001,A
146,0.49837,1.2,2,0.2741,0.36547,0.48176,146,2.10977,-0.024,-0.00831,0.49007,5,2U1D,1.0,True,0.234,20,True,left,0.08306,1.4537,1.8697,0.4159,0.1614,0.8954,0.734,A
147,0.49837,0.1,1,0.43192,0.19935,0.60635,147,2.63306,0.8,0.3987,0.89707,5,lapse_rate,1.0,True,0.398,0,False,left,-0.08306,0.5742,1.1901,0.6159,1.9829,2.1157,0.1329,A
148,0.49837,1.2,1,0.24088,0.34886,0.58974,148,2.06824,-0.216,-0.10798,0.39039,5,2D1U,2.0,True,0.318,14,True,right,0.16612,0.1629,0.7049,0.5419,1.1379,1.9546,0.8167,A
149,0.49837,0.1,1,0.33225,0.36547,0.41531,149,2.02671,-0.162,-0.08306,0.41531,5,2D1U,2.0,True,0.331,14,False,right,-0.24919,0.4709,0.6041,0.1332,1.2877,1.2548,-0.033,A
150,0.49837,1.2,2,0.29902,0.2658,0.8057,150,2.76596,0.8,0.3987,0.89707,5,lapse_rate,2.0,True,0.336,0,False,right,0.08306,1.795,2.6212,0.8262,0.1789,0.9116,0.7328,A
151,0.49837,0.1,2,0.30733,0.34055,0.70603,151,2.36726,0.03,0.01661,0.51498,5,2U1D,1.0,False,0.441,20,False,left,-0.08306,1.4707,1.8455,0.3748,0.4878,0.6205,0.1328,A
152,0.49837,0.1,2,0.21596,0.2658,0.88876,152,2.40879,0.084,0.04153,0.5399,5,2U1D,2.0,True,0.7,21,True,right,0.16612,1.6875,2.0879,0.4004,0.2705,0.6544,0.3838,A
153,0.49837,1.2,2,0.3987,0.43192,0.57313,153,2.79919,0.8,0.3987,0.89707,5,lapse_rate,2.0,True,0.361,0,False,right,-0.24919,1.4967,2.3215,0.8248,0.4468,0.8466,0.3998,A
154,0.49837,0.1,2,0.42362,0.42362,0.44853,154,2.20945,-0.162,-0.08306,0.41531,5,2D1U,1.0,True,0.301,14,False,left,0.08306,1.4187,1.694,0.2753,0.5266,0.8272,0.3006,A
155,0.49837,1.2,2,0.44023,0.36547,0.62297,155,2.46694,0.084,0.04153,0.5399,5,2U1D,1.0,False,0.277,21,True,left,-0.08306,1.674,2.1411,0.4672,0.4075,0.9744,0.5669,A
156,0.49837,1.2,1,0.29072,0.21596,0.76417,156,2.66629,0.8,0.3987,0.89707,5,lapse_rate,1.0,True,0.401,0,False,left,0.16612,0.2179,1.2685,1.0506,1.8763,999,997.1237,A
157,0.49837,1.2,1,0.23257,0.28241,0.43192,157,1.8938,-0.108,-0.05814,0.44853,5,2D1U,1.0,False,2.058,14,False,left,-0.24919,0.1585,0.7581,0.5997,1.241,1.6411,0.4001,A
158,0.49837,1.2,1,0.28241,0.28241,0.88046,158,2.35896,-0.162,-0.08306,0.41531,5,2D1U,2.0,True,0.725,15,True,right,0.08306,0.2066,0.7734,0.5668,1.5401,2.2737,0.7336,A
159,0.49837,0.1,1,0.34886,0.29902,0.7974,159,2.84072,0.8,0.3987,0.89707,5,lapse_rate,1.0,True,2.783,0,False,left,-0.08306,0.4899,1.1058,0.6158,2.0898,2.2227,0.133,A
160,0.49837,1.2,1,0.3987,0.21596,0.85554,160,2.5417,0.138,0.06645,0.57313,5,2U1D,2.0,False,0.476,21,False,right,0.16612,0.3217,1.0465,0.7248,1.7466,999,997.2534,A
161,0.49837,0.1,1,0.30733,0.38209,0.42362,161,2.20946,0.192,0.09967,0.59805,5,2U1D,1.0,True,1.234,21,False,left,-0.24919,0.4479,0.7645,0.3166,1.4563,1.4229,-0.0334,A
162,0.49837,0.1,2,0.34055,0.20766,0.3987,162,1.86059,-0.162,-0.08306,0.41531,5,2D1U,1.0,True,0.292,15,True,left,0.08306,1.2868,1.5609,0.2741,0.4446,0.7451,0.3005,A
163,0.49837,0.1,2,0.3987,0.35717,0.85554,163,3.00685,0.8,0.3987,0.89707,5,lapse_rate,2.0,True,0.337,0,False,right,-0.08306,1.712,2.4698,0.7579,0.579,0.7121,0.1331,A
164,0.49837,0.1,2,0.24088,0.34055,0.81401,164,2.79088,0.8,0.3987,0.89707,5,lapse_rate,2.0,True,0.192,0,False,right,0.16612,1.6419,2.4006,0.7586,0.3007,0.6831,0.3825,A
165,0.49837,0.1,1,0.407,0.38209,0.65619,165,2.5417,0.192,0.09967,0.59805,5,2U1D,1.0,True,0.3,21,False,left,-0.24919,0.551,0.8681,0.3172,1.7929,1.7599,-0.033,A
166,0.49837,0.1,1,0.44023,0.2658,0.89707,166,2.55,-0.108,-0.05814,0.44853,5,2D1U,1.0,False,0.3,16,True,left,0.08306,0.5796,0.7463,0.1667,1.7462,2.0462,0.3001,A
167,0.49837,1.2,1,0.29902,0.36547,0.62297,167,2.20114,-0.162,-0.08306,0.41531,5,2D1U,2.0,True,1.179,17,True,right,-0.08306,0.2217,0.7894,0.5676,1.3799,1.9473,0.5674,A
168,0.49837,1.2,1,0.20766,0.35717,0.72264,168,2.35897,0.138,0.06645,0.57313,5,2U1D,2.0,False,0.357,22,True,right,0.16612,0.1341,0.8594,0.7253,1.4264,2.2424,0.816,A
169,0.49837,1.2,2,0.36547,0.21596,0.62297,169,2.59984,0.8,0.3987,0.89707,5,lapse_rate,2.0,True,0.4,0,False,right,-0.24919,1.5172,2.3424,0.8252,0.4171,0.8168,0.3996,A
170,0.49837,1.2,2,0.31564,0.23257,0.48176,170,2.12639,0.192,0.09967,0.59805,5,2U1D,1.0,False,0.324,23,True,left,0.08306,1.4902,2.0162,0.526,0.1989,0.9323,0.7334,A
171,0.49837,1.2,2,0.20766,0.37378,0.49837,171,1.99349,-0.162,-0.08306,0.41531,5,2D1U,1.0,True,0.278,17,True,left,-0.08306,1.3184,1.6615,0.3431,0.1767,0.744,0.5673,A
172,0.49837,0.1,2,0.39039,0.33225,0.75586,172,2.87394,0.8,0.3987,0.89707,5,lapse_rate,2.0,True,0.299,0,False,right,0.16612,1.7321,2.49,0.7579,0.4483,0.8323,0.384,A
173,0.49837,0.1,1,0.29072,0.24919,0.82231,173,2.30912,-0.108,-0.05814,0.44853,5,2D1U,2.0,True,0.75,18,True,right,-0.24919,0.4323,0.6003,0.1681,1.6911,1.6578,-0.0332,A
174,0.49837,1.2,1,0.42362,0.31564,0.48176,174,1.81906,-0.8,-0.3987,0.09967,5,lapse_rate,2.0,True,0.283,0,False,right,0.08306,0.3494,0.5989,0.2495,0.9655,1.6993,0.7338,A
175,0.49837,0.1,2,0.29072,0.36547,0.43192,175,2.20945,0.246,0.12459,0.62297,5,2U1D,2.0,True,0.258,23,False,right,-0.08306,1.183,1.6654,0.4824,0.4747,0.6076,0.1329,A
176,0.49837,0.1,1,0.43192,0.29902,0.70603,176,2.38387,-0.108,-0.05814,0.44853,5,2D1U,1.0,False,0.942,18,True,left,0.16612,0.5749,0.7417,0.1668,1.508,1.8919,0.3839,A
177,0.49837,0.1,2,0.21596,0.407,0.68111,177,2.42541,0.246,0.12459,0.62297,5,2U1D,2.0,True,1.467,23,False,right,-0.24919,1.2772,1.7605,0.4833,0.4848,0.4516,-0.0332,A
178,0.49837,1.2,2,0.39039,0.33225,0.75586,178,2.07654,-0.8,-0.3987,0.09967,5,lapse_rate,1.0,True,0.473,0,False,left,0.08306,1.8378,1.8635,0.0257,0.271,1.0047,0.7337,A
179,0.49837,0.1,1,0.41531,0.21596,0.73095,179,2.75766,0.8,0.3987,0.89707,5,lapse_rate,1.0,True,1.134,0,False,left,-0.08306,0.5576,1.1742,0.6166,2.0907,2.2243,0.1336,A
180,0.49837,1.2,1,0.38209,0.3987,0.7974,180,2.49187,-0.162,-0.08306,0.41531,5,2D1U,1.0,False,0.515,19,True,left,0.16612,0.3036,0.8705,0.5669,1.512,2.3285,0.8165,A
181,0.49837,1.2,2,0.31564,0.34055,0.45684,181,2.20945,0.192,0.09967,0.59805,5,2U1D,2.0,True,0.276,24,True,right,-0.24919,1.3014,1.8272,0.5258,0.3682,0.7678,0.3996,A
182,0.49837,1.2,1,0.32394,0.44853,0.44853,182,2.31742,0.192,0.09967,0.59805,5,2U1D,1.0,True,0.247,24,True,left,0.08306,0.2479,0.9982,0.7503,1.3313,2.064,0.7328,A
183,0.49837,1.2,2,0.39039,0.2741,0.75586,183,2.30911,-0.216,-0.10798,0.39039,5,2D1U,1.0,True,0.318,19,False,left,-0.08306,1.7551,2.072,0.317,0.3558,0.9214,0.5655,A
184,0.49837,1.2,2,0.407,0.21596,0.44853,184,1.66953,-0.8,-0.3987,0.09967,5,lapse_rate,1.0,True,0.408,0,False,left,0.16612,1.592,1.6173,0.0254,0.25,1.0665,0.8165,A
185,0.49837,0.1,2,0.29072,0.33225,0.47345,185,2.16792,0.138,0.06645,0.57313,5,2U1D,1.0,False,0.566,24,False,left,-0.24919,1.1406,1.5747,0.4341,0.5576,0.524,-0.0336,A
186,0.49837,0.1,2,0.21596,0.37378,0.74756,186,2.22606,-0.216,-0.10798,0.39039,5,2D1U,1.0,True,0.3,19,False,left,0.08306,1.5083,1.7581,0.2498,0.316,0.616,0.3,A
187,0.49837,1.2,1,0.407,0.2658,0.6728,187,1.94364,-0.8,-0.3987,0.09967,5,lapse_rate,2.0,True,0.414,0,False,right,-0.08306,0.3289,0.5796,0.2507,1.2209,1.7879,0.567,A
188,0.49837,0.1,1,0.32394,0.23257,0.58974,188,1.74429,-0.8,-0.3987,0.09967,5,lapse_rate,2.0,True,0.515,0,False,right,0.16612,0.4647,0.2821,-0.1827,0.932,1.3151,0.3831,A
189,0.49837,0.1,2,0.2741,0.30733,0.72264,189,2.40049,0.192,0.09967,0.59805,5,2U1D,2.0,True,0.359,25,True,right,-0.24919,1.3716,1.8293,0.4578,0.5382,0.505,-0.0333,A
190,0.49837,0.1,1,0.21596,0.24919,0.48176,190,1.86059,-0.162,-0.08306,0.41531,5,2D1U,2.0,True,1.008,20,True,right,0.08306,0.3536,0.4873,0.1337,1.0702,1.3702,0.3,A
191,0.49837,1.2,1,0.29072,0.25749,0.75586,191,2.40049,0.192,0.09967,0.59805,5,2U1D,1.0,True,0.429,25,True,left,-0.08306,0.2189,0.9683,0.7495,1.6937,2.2599,0.5661,A
192,0.49837,1.2,2,0.34055,0.2741,0.63958,192,1.85227,-0.8,-0.3987,0.09967,5,lapse_rate,1.0,True,0.345,0,False,left,0.16612,1.7143,1.7392,0.0249,0.1803,0.997,0.8167,A
193,0.49837,1.2,2,0.29072,0.407,0.41531,193,2.02671,-0.162,-0.08306,0.41531,5,2D1U,1.0,True,0.416,20,True,left,-0.24919,1.2374,1.5788,0.3414,0.3453,0.7448,0.3995,A
194,0.49837,1.2,1,0.30733,0.44023,0.65619,194,2.79919,0.8,0.3987,0.89707,5,lapse_rate,1.0,True,0.3,0,False,left,0.08306,0.2314,1.2823,1.0508,1.8237,2.5572,0.7335,A
195,0.49837,1.2,1,0.39039,0.2741,0.45684,195,2.06823,-0.108,-0.05814,0.44853,5,2D1U,1.0,False,0.473,20,False,left,-0.08306,0.314,0.9143,0.6003,1.3388,1.9062,0.5674,A
196,0.49837,1.2,2,0.2741,0.36547,0.50668,196,2.21775,0.138,0.06645,0.57313,5,2U1D,2.0,True,1.278,26,True,right,0.16612,1.5154,2.0147,0.4992,0.1153,0.9315,0.8162,A
197,0.49837,0.1,1,0.42362,0.21596,0.49837,197,2.05163,-0.162,-0.08306,0.41531,5,2D1U,2.0,True,0.364,21,True,right,-0.24919,0.5702,0.7036,0.1334,1.4702,1.437,-0.0331,A
198,0.49837,0.1,2,0.38209,0.23257,0.46515,198,2.47525,0.8,0.3987,0.89707,5,lapse_rate,2.0,True,0.282,0,False,right,0.08306,1.3912,2.1492,0.758,0.4828,0.7823,0.2995,A
199,0.49837,0.1,1,0.2741,0.29072,0.89707,199,2.53339,0.138,0.06645,0.57313,5,2U1D,1.0,True,0.253,26,True,left,-0.08306,0.4134,0.7051,0.2916,1.7877,1.9209,0.1332,A
200,0.49837,0.1,1,0.31564,0.38209,0.72264,200,2.33405,-0.162,-0.08306,0.41531,5,2D1U,2.0,True,0.6,21,True,right,0.16612,0.4537,0.5869,0.1331,1.3708,1.7539,0.3831,A
201,0.49837,1.2,2,0.23257,0.21596,0.41531,201,1.46188,-0.8,-0.3987,0.09967,5,lapse_rate,1.0,True,0.379,0,False,left,-0.24919,1.1722,1.1965,0.0243,0.2801,0.6796,0.3995,A
202,0.49837,0.1,2,0.2658,0.22427,0.77248,202,2.30082,0.084,0.04153,0.5399,5,2U1D,2.0,True,0.375,26,False,right,0.08306,1.5859,1.9862,0.4003,0.3696,0.6691,0.2995,A
203,0.49837,1.2,2,0.2741,0.25749,0.75586,203,2.23435,-0.108,-0.05814,0.44853,5,2D1U,1.0,True,0.451,22,True,left,-0.08306,1.639,2.0147,0.3757,0.2394,0.8062,0.5668,A
204,0.49837,1.2,1,0.39039,0.2741,0.69772,204,2.40048,0.084,0.04153,0.5399,5,2U1D,1.0,True,1.043,26,False,left,0.16612,0.3195,1.0104,0.6909,1.5526,2.3694,0.8168,A
205,0.49837,0.1,2,0.33225,0.3987,0.75586,205,2.08485,-0.8,-0.3987,0.09967,5,lapse_rate,1.0,True,0.27,0,False,left,-0.24919,1.4696,1.4278,-0.0418,0.6038,0.5701,-0.0337,A
206,0.49837,1.2,2,0.28241,0.24088,0.41531,206,1.95195,0.03,0.01661,0.51498,5,2U1D,1.0,False,0.355,26,False,left,0.08306,1.3936,1.8352,0.4416,0.1693,0.9026,0.7334,A
207,0.49837,1.2,2,0.20766,0.24919,0.47345,207,1.8772,-0.108,-0.05814,0.44853,5,2D1U,1.0,True,0.28,22,True,left,-0.08306,1.2928,1.6688,0.376,0.1772,0.7436,0.5664,A
208,0.49837,0.1,1,0.33225,0.42362,0.44023,208,2.59154,0.8,0.3987,0.89707,5,lapse_rate,1.0,True,0.526,0,False,left,0.16612,0.4732,1.0901,0.6168,1.59,1.9732,0.3832,A
209,0.49837,1.2,1,0.37378,0.29072,0.49837,209,2.55831,0.8,0.3987,0.89707,5,lapse_rate,1.0,True,0.275,0,False,left,-0.24919,0.2991,1.3495,1.0505,1.8999,2.299,0.3991,A
210,0.49837,0.1,1,0.31564,0.31564,0.58974,210,2.25929,0.084,0.04153,0.5399,5,2U1D,1.0,True,0.582,27,True,left,0.08306,0.4551,0.7133,0.2582,1.4054,1.7052,0.2998,A
211,0.49837,0.1,1,0.28241,0.34055,0.78078,211,2.37556,-0.054,-0.02492,0.47345,5,2D1U,2.0,True,1.26,22,False,right,-0.08306,0.4236,0.6152,0.1917,1.5818,1.7153,0.1335,A
212,0.49837,0.1,1,0.34886,0.41531,0.76417,212,2.56661,0.084,0.04153,0.5399,5,2U1D,1.0,True,1.992,27,True,left,0.16612,0.4905,0.7491,0.2586,1.5733,1.9571,0.3838,A
213,0.49837,0.1,2,0.24919,0.21596,0.41531,213,1.4785,-0.8,-0.3987,0.09967,5,lapse_rate,1.0,True,0.288,0,False,left,-0.24919,1.0418,1.0003,-0.0415,0.5163,0.483,-0.0332,A
214,0.49837,0.1,2,0.3987,0.21596,0.51498,214,2.10146,-0.054,-0.02492,0.47345,5,2D1U,2.0,False,1.217,22,False,right,0.08306,1.4618,1.7939,0.3321,0.5027,0.8023,0.2995,A
215,0.49837,1.2,1,0.21596,0.41531,0.63958,215,2.2842,0.03,0.01661,0.51498,5,2U1D,1.0,True,0.267,28,True,left,-0.08306,0.143,0.8103,0.6673,1.4188,1.9854,0.5666,A
216,0.49837,1.2,2,0.29072,0.29072,0.78078,216,2.30912,-0.108,-0.05814,0.44853,5,2D1U,1.0,True,0.901,23,True,left,0.16612,1.8063,2.1813,0.3751,0.1314,0.9478,0.8165,A
217,0.49837,1.2,2,0.20766,0.42362,0.8057,217,2.83242,0.8,0.3987,0.89707,5,lapse_rate,1.0,False,1.792,0,False,left,-0.24919,1.5428,2.3676,0.8247,0.2593,0.6597,0.4004,A
218,0.49837,1.2,2,0.44023,0.38209,0.86384,218,2.69951,0.03,0.01661,0.51498,5,2U1D,1.0,False,1.524,28,True,left,0.08306,2.0014,2.4431,0.4418,0.3258,1.06,0.7343,A
219,0.49837,1.2,2,0.42362,0.24919,0.55652,219,2.17623,-0.108,-0.05814,0.44853,5,2D1U,1.0,True,0.322,23,True,left,-0.08306,1.5884,1.9634,0.3751,0.3878,0.9547,0.5669,A
220,0.49837,1.2,1,0.407,0.37378,0.57313,220,2.74935,0.8,0.3987,0.89707,5,lapse_rate,1.0,True,0.216,0,False,left,0.16612,0.33,1.3794,1.0494,1.7965,2.6133,0.8168,A
221,0.49837,0.1,1,0.41531,0.44023,0.83062,221,2.72443,0.084,0.04153,0.5399,5,2U1D,1.0,True,0.433,29,True,left,-0.24919,0.5541,0.8124,0.2583,1.9122,1.8789,-0.0332,A
222,0.49837,0.1,1,0.35717,0.43192,0.74756,222,2.93209,0.8,0.3987,0.89707,5,lapse_rate,1.0,True,0.951,0,False,left,0.08306,0.4951,1.1122,0.6171,1.9627,2.2626,0.2999,A
223,0.49837,0.1,1,0.23257,0.42362,0.49007,223,2.11808,-0.054,-0.02492,0.47345,5,2D1U,1.0,False,1.177,24,True,left,-0.08306,0.371,0.5635,0.1925,1.2384,1.371,0.1326,A
224,0.49837,0.1,1,0.44853,0.2658,0.68941,224,2.44201,0.084,0.04153,0.5399,5,2U1D,1.0,True,0.248,29,True,left,0.16612,0.588,0.8461,0.258,1.5967,1.9794,0.3827,A
225,0.49837,0.1,2,0.39039,0.42362,0.88046,225,2.64137,-0.108,-0.05814,0.44853,5,2D1U,1.0,True,0.634,25,True,left,-0.24919,1.6479,1.9554,0.3075,0.6562,0.6231,-0.0331,A
226,0.49837,0.1,1,0.34886,0.34055,0.78909,226,2.07654,-0.8,-0.3987,0.09967,5,lapse_rate,2.0,True,0.331,0,False,right,0.08306,0.488,0.3047,-0.1833,1.1971,1.4965,0.2994,A
227,0.49837,1.2,2,0.24088,0.35717,0.78909,227,2.33404,-0.108,-0.05814,0.44853,5,2D1U,1.0,True,0.506,25,True,left,-0.08306,1.6425,2.0169,0.3744,0.2091,0.7753,0.5663,A
228,0.49837,0.1,1,0.2741,0.44023,0.70603,228,2.0184,-0.8,-0.3987,0.09967,5,lapse_rate,2.0,True,0.317,0,False,right,0.16612,0.4143,0.231,-0.1833,0.9974,1.3811,0.3837,A
229,0.49837,1.2,1,0.21596,0.31564,0.54821,229,2.09316,0.03,0.01661,0.51498,5,2U1D,1.0,True,0.305,30,True,left,-0.24919,0.1405,0.8071,0.6665,1.407,1.8074,0.4005,A
230,0.49837,1.2,1,0.38209,0.21596,0.88046,230,2.45033,-0.054,-0.02492,0.47345,5,2D1U,1.0,False,0.55,26,True,left,0.08306,0.3102,0.9352,0.625,1.7013,2.4356,0.7343,A
231,0.49837,1.2,1,0.37378,0.21596,0.5399,231,1.72768,-0.8,-0.3987,0.09967,5,lapse_rate,2.0,True,0.415,0,False,right,-0.08306,0.2988,0.5484,0.2496,1.057,1.6234,0.5665,A
232,0.49837,1.2,2,0.37378,0.37378,0.71433,232,2.47524,0.03,0.01661,0.51498,5,2U1D,2.0,True,0.446,30,True,right,0.16612,1.8203,2.2615,0.4412,0.2121,1.0284,0.8162,A
233,0.49837,0.1,1,0.32394,0.43192,0.70603,233,2.40879,-0.108,-0.05814,0.44853,5,2D1U,2.0,True,1.735,27,True,right,-0.24919,0.4663,0.6334,0.1671,1.608,1.5749,-0.0331,A
234,0.49837,0.1,2,0.30733,0.3987,0.47345,234,2.16792,-0.024,-0.00831,0.49007,5,2U1D,1.0,True,0.416,30,False,left,0.08306,1.3273,1.6773,0.3501,0.4112,0.7109,0.2998,A
235,0.49837,0.1,1,0.24919,0.44853,0.41531,235,2.50847,0.8,0.3987,0.89707,5,lapse_rate,1.0,True,0.261,0,False,left,-0.08306,0.3874,1.0035,0.6161,1.6039,1.7368,0.1329,A
236,0.49837,0.1,2,0.22427,0.44853,0.54821,236,2.16791,-0.108,-0.05814,0.44853,5,2D1U,1.0,True,0.351,27,True,left,0.16612,1.3552,1.664,0.3088,0.2799,0.6641,0.3843,A
237,0.49837,0.1,1,0.30733,0.2741,0.75586,237,2.32573,-0.024,-0.00831,0.49007,5,2U1D,1.0,False,0.591,30,False,left,-0.24919,0.4515,0.6601,0.2086,1.685,1.6517,-0.0333,A
238,0.49837,0.1,1,0.28241,0.21596,0.85554,238,1.95195,-0.8,-0.3987,0.09967,5,lapse_rate,2.0,True,0.338,0,False,right,0.08306,0.4262,0.2427,-0.1835,1.2011,1.5015,0.3004,A
239,0.49837,0.1,2,0.23257,0.44023,0.55652,239,1.82736,-0.8,-0.3987,0.09967,5,lapse_rate,1.0,True,0.399,0,False,left,-0.08306,1.2462,1.2053,-0.0408,0.4143,0.5462,0.1319,A
240,0.49837,1.2,1,0.20766,0.38209,0.89707,240,2.45034,-0.078,-0.04153,0.46515,5,2U1D,1.0,False,0.322,31,True,left,0.16612,0.1363,0.7526,0.6164,1.4944,2.3111,0.8167,A
241,0.49837,1.2,1,0.22427,0.3987,0.76417,241,2.35896,-0.054,-0.02492,0.47345,5,2D1U,1.0,False,0.494,28,True,left,-0.24919,0.1476,0.7735,0.6259,1.5899,1.9898,0.3999,A
242,0.49837,1.2,2,0.34055,0.39039,0.59805,242,2.27589,-0.108,-0.05814,0.44853,5,2D1U,1.0,True,0.276,29,True,left,0.08306,1.6316,2.0061,0.3745,0.223,0.956,0.733,A
243,0.49837,1.2,2,0.34055,0.43192,0.5399,243,2.24266,-0.132,-0.06645,0.43192,5,2U1D,1.0,True,1.509,31,False,left,-0.08306,1.4908,1.8491,0.3583,0.3065,0.8744,0.5679,A
244,0.49837,1.2,1,0.33225,0.29072,0.45684,244,1.67785,-0.8,-0.3987,0.09967,5,lapse_rate,2.0,True,0.276,0,False,right,0.16612,0.2535,0.5037,0.2502,0.8039,1.621,0.8171,A
245,0.49837,1.2,1,0.31564,0.44853,0.88876,245,3.04837,0.8,0.3987,0.89707,5,lapse_rate,1.0,True,0.387,0,False,left,-0.24919,0.2395,1.2893,1.0497,2.231,2.6309,0.3999,A
246,0.49837,0.1,2,0.2741,0.2741,0.62297,246,2.10146,-0.132,-0.06645,0.43192,5,2U1D,1.0,True,0.391,31,False,left,0.08306,1.4377,1.7298,0.2921,0.3711,0.6716,0.3005,A
247,0.49837,0.1,1,0.2658,0.43192,0.49837,247,2.14299,-0.108,-0.05814,0.44853,5,2D1U,2.0,True,0.202,29,True,right,-0.08306,0.4077,0.5738,0.1661,1.2579,1.3912,0.1333,A
248,0.49837,0.1,1,0.44023,0.21596,0.83893,248,2.89056,0.8,0.3987,0.89707,5,lapse_rate,1.0,True,0.388,0,False,left,0.16612,0.5829,1.1992,0.6163,2.0989,2.4825,0.3836,A
249,0.49837,0.1,2,0.30733,0.2741,0.47345,249,2.0267,-0.054,-0.02492,0.47345,5,2D1U,2.0,False,1.83,30,True,right,-0.24919,1.1612,1.4946,0.3334,0.578,0.5447,-0.0332,A
250,0.49837,0.1,2,0.2658,0.34055,0.54821,250,2.11808,-0.078,-0.04153,0.46515,5,2U1D,2.0,False,1.803,32,True,right,0.08306,1.354,1.6788,0.3248,0.3624,0.662,0.2996,A
251,0.49837,1.2,2,0.33225,0.30733,0.62297,251,2.20945,-0.108,-0.05814,0.44853,5,2D1U,1.0,True,0.275,31,True,left,-0.08306,1.5641,1.9395,0.3754,0.2972,0.8642,0.5671,A
252,0.49837,0.1,2,0.34055,0.44023,0.78078,252,2.957,0.8,0.3987,0.89707,5,lapse_rate,2.0,True,0.13,0,False,right,0.16612,1.7109,2.4698,0.7588,0.4033,0.7861,0.3827,A
253,0.49837,1.2,1,0.43192,0.35717,0.49007,253,2.20945,-0.132,-0.06645,0.43192,5,2U1D,1.0,False,0.282,33,True,left,-0.24919,0.3582,0.9415,0.5833,1.4826,1.884,0.4014,A
254,0.49837,1.2,2,0.29072,0.44853,0.56482,254,2.20944,-0.186,-0.09137,0.407,5,2U1D,1.0,True,0.659,33,False,left,0.08306,1.5499,1.8832,0.3333,0.1746,0.9074,0.7328,A
255,0.49837,1.2,2,0.25749,0.41531,0.55652,255,2.17622,-0.108,-0.05814,0.44853,5,2D1U,1.0,True,0.266,31,True,left,-0.08306,1.428,1.8023,0.3743,0.2281,0.7941,0.5661,A
256,0.49837,1.2,2,0.43192,0.21596,0.56482,256,1.81074,-0.8,-0.3987,0.09967,5,lapse_rate,1.0,True,0.348,0,False,left,0.16612,1.7315,1.7556,0.0241,0.2729,1.0888,0.816,A
257,0.49837,0.1,1,0.407,0.30733,0.8057,257,2.4254,-0.186,-0.09137,0.407,5,2U1D,2.0,True,0.349,33,False,right,-0.24919,0.5484,0.6728,0.1244,1.7487,1.7155,-0.0331,A
258,0.49837,0.1,1,0.42362,0.43192,0.43192,258,1.8855,-0.8,-0.3987,0.09967,5,lapse_rate,2.0,True,0.383,0,False,right,0.08306,0.568,0.3844,-0.1835,0.9177,1.2184,0.3007,A
259,0.49837,0.1,1,0.2658,0.35717,0.81401,259,2.4088,-0.054,-0.02492,0.47345,5,2D1U,1.0,False,0.292,32,True,left,-0.08306,0.4058,0.5991,0.1933,1.5979,1.7316,0.1337,A
260,0.49837,0.1,1,0.24919,0.31564,0.43192,260,1.92704,-0.132,-0.06645,0.43192,5,2U1D,1.0,False,1.319,34,True,left,0.16612,0.3908,0.5407,0.1499,1.0318,1.4158,0.384,A
261,0.49837,0.1,1,0.44023,0.28241,0.60635,261,1.92703,-0.8,-0.3987,0.09967,5,lapse_rate,1.0,False,0.392,0,False,left,-0.24919,0.5863,0.4026,-0.1837,1.2778,1.2449,-0.0329,A
262,0.49837,0.1,1,0.24088,0.37378,0.85554,262,2.4171,-0.108,-0.05814,0.44853,5,2D1U,2.0,True,3.0,33,True,right,0.08306,0.3799,0.547,0.1671,1.5054,1.8051,0.2997,A
263,0.49837,1.2,2,0.41531,0.36547,0.68111,263,2.85733,0.8,0.3987,0.89707,5,lapse_rate,2.0,True,0.33,0,False,right,-0.08306,1.7058,2.5308,0.825,0.3807,0.9475,0.5668,A
264,0.49837,1.2,2,0.41531,0.36547,0.88046,264,2.56661,-0.186,-0.09137,0.407,5,2U1D,1.0,True,0.331,35,True,left,0.16612,2.0305,2.3642,0.3337,0.2563,1.0722,0.8159,A
265,0.49837,1.2,1,0.34055,0.2741,0.63958,265,2.20113,-0.108,-0.05814,0.44853,5,2D1U,1.0,False,0.296,33,True,left,-0.24919,0.2629,0.8625,0.5996,1.5547,1.9541,0.3994,A
266,0.49837,0.1,1,0.39039,0.29902,0.74756,266,2.03501,-0.8,-0.3987,0.09967,5,lapse_rate,2.0,True,0.363,0,False,right,0.08306,0.5292,0.3454,-0.1838,1.1957,1.4961,0.3004,A
267,0.49837,1.2,1,0.41531,0.19935,0.52329,267,2.04332,-0.186,-0.09137,0.407,5,2U1D,1.0,False,0.375,35,True,left,-0.08306,0.3448,0.903,0.5582,1.3945,1.9614,0.5669,A
268,0.49837,1.2,2,0.33225,0.36547,0.69772,268,2.30912,-0.162,-0.08306,0.41531,5,2D1U,1.0,True,0.283,33,False,left,0.16612,1.7689,2.1104,0.3415,0.1779,0.9933,0.8154,A
269,0.49837,0.1,1,0.31564,0.39039,0.54821,269,2.1347,-0.24,-0.11629,0.38209,5,2U1D,2.0,True,0.33,35,False,right,-0.24919,0.4589,0.5586,0.0998,1.375,1.3422,-0.0328,A
270,0.49837,1.2,2,0.21596,0.31564,0.7974,270,2.72444,0.8,0.3987,0.89707,5,lapse_rate,2.0,True,0.298,0,False,right,0.08306,1.7045,2.5288,0.8243,0.0964,0.8296,0.7332,A
271,0.49837,0.1,1,0.32394,0.21596,0.59805,271,2.05163,-0.162,-0.08306,0.41531,5,2D1U,1.0,False,0.35,33,False,left,-0.08306,0.4624,0.5953,0.1329,1.3795,1.5119,0.1324,A
272,0.49837,0.1,2,0.25749,0.29902,0.76417,272,1.91872,-0.8,-0.3987,0.09967,5,lapse_rate,1.0,True,0.317,0,False,left,0.16612,1.6062,1.5646,-0.0416,0.3149,0.6979,0.3829,A
273,0.49837,0.1,1,0.43192,0.21596,0.8057,273,2.33404,-0.24,-0.11629,0.38209,5,2U1D,2.0,True,0.424,35,False,right,-0.24919,0.5784,0.6783,0.0999,1.7533,1.7201,-0.0333,A
274,0.49837,0.1,2,0.407,0.22427,0.47345,274,1.99348,-0.216,-0.10798,0.39039,5,2D1U,1.0,True,0.728,33,False,left,0.08306,1.4263,1.6773,0.251,0.5104,0.8103,0.2999,A
275,0.49837,1.2,2,0.29072,0.37378,0.87215,275,2.13469,-0.8,-0.3987,0.09967,5,lapse_rate,1.0,True,0.31,0,False,left,-0.08306,1.7721,1.7974,0.0253,0.2551,0.8226,0.5675,A
276,0.49837,1.2,1,0.44023,0.29072,0.64788,276,2.26759,-0.216,-0.10798,0.39039,5,2D1U,2.0,True,0.357,33,False,right,0.16612,0.3652,0.9075,0.5424,1.3984,2.2156,0.8172,A
277,0.49837,1.2,2,0.41531,0.28241,0.88876,277,2.49185,-0.186,-0.09137,0.407,5,2U1D,1.0,True,0.3,36,True,left,-0.24919,1.8355,2.169,0.3335,0.4683,0.8688,0.4004,A
278,0.49837,1.2,2,0.2658,0.41531,0.76417,278,2.35065,-0.186,-0.09137,0.407,5,2U1D,1.0,True,0.266,36,True,left,0.08306,1.721,2.0554,0.3343,0.1466,0.8798,0.7333,A
279,0.49837,1.2,2,0.25749,0.24919,0.63958,279,2.05994,-0.162,-0.08306,0.41531,5,2D1U,1.0,True,0.305,34,True,left,-0.08306,1.5113,1.853,0.3417,0.228,0.794,0.566,A
280,0.49837,0.1,2,0.2658,0.23257,0.407,280,2.30081,0.8,0.3987,0.89707,5,lapse_rate,2.0,True,0.333,0,False,right,0.16612,1.2533,2.012,0.7587,0.3208,0.7044,0.3836,A
281,0.49837,0.1,1,0.28241,0.36547,0.88046,281,2.45863,-0.132,-0.06645,0.43192,5,2U1D,2.0,True,0.335,36,False,right,-0.24919,0.4239,0.5739,0.15,1.7241,1.6904,-0.0337,A
282,0.49837,1.2,2,0.39039,0.37378,0.73925,282,2.89886,0.8,0.3987,0.89707,5,lapse_rate,2.0,True,0.391,0,False,right,0.08306,1.8234,2.6482,0.8248,0.2734,1.0071,0.7337,A
283,0.49837,0.1,1,0.23257,0.407,0.88876,283,2.44201,-0.162,-0.08306,0.41531,5,2D1U,1.0,False,0.599,34,True,left,-0.08306,0.3766,0.5093,0.1327,1.5839,1.7171,0.1332,A
284,0.49837,0.1,1,0.24919,0.23257,0.50668,284,1.8772,-0.216,-0.10798,0.39039,5,2D1U,2.0,True,1.287,35,True,right,0.16612,0.3941,0.5025,0.1084,1.0695,1.4524,0.3829,A
285,0.49837,0.1,2,0.42362,0.31564,0.84723,285,2.51678,-0.132,-0.06645,0.43192,5,2U1D,1.0,True,1.016,36,False,left,-0.24919,1.6522,1.9435,0.2913,0.6942,0.6607,-0.0335,A
286,0.49837,0.1,1,0.37378,0.25749,0.44023,286,1.66954,-0.8,-0.3987,0.09967,5,lapse_rate,2.0,True,0.329,0,False,right,0.08306,0.5134,0.3296,-0.1838,0.8711,1.171,0.3,A
287,0.49837,0.1,2,0.33225,0.42362,0.88876,287,2.24267,-0.8,-0.3987,0.09967,5,lapse_rate,1.0,True,0.328,0,False,left,-0.08306,1.6854,1.6432,-0.0422,0.5182,0.6516,0.1334,A
288,0.49837,1.2,2,0.41531,0.2658,0.3987,288,2.04333,-0.078,-0.04153,0.46515,5,2U1D,1.0,True,0.337,36,False,left,0.16612,1.5455,1.9374,0.3919,0.2535,1.0702,0.8167,A
289,0.49837,1.2,2,0.36547,0.23257,0.83893,289,2.32573,-0.216,-0.10798,0.39039,5,2D1U,2.0,False,1.588,35,True,right,-0.24919,1.7285,2.0454,0.3169,0.411,0.8118,0.4008,A
290,0.49837,0.1,2,0.24919,0.30733,0.86384,290,2.8158,0.8,0.3987,0.89707,5,lapse_rate,2.0,True,0.424,0,False,right,0.08306,1.6539,2.4123,0.7584,0.3454,0.646,0.3006,A
291,0.49837,1.2,2,0.407,0.28241,0.68111,291,2.33404,-0.078,-0.04153,0.46515,5,2U1D,1.0,True,0.387,36,False,left,-0.08306,1.7028,2.0938,0.3909,0.378,0.9438,0.5658,A
292,0.49837,1.2,2,0.407,0.2658,0.52329,292,2.05993,-0.27,-0.1329,0.36547,5,2D1U,1.0,True,0.325,35,False,left,0.16612,1.6657,1.9565,0.2908,0.2479,1.0645,0.8166,A
293,0.49837,0.1,1,0.22427,0.407,0.83893,293,2.45864,-0.024,-0.00831,0.49007,5,2U1D,2.0,True,0.396,36,False,right,-0.24919,0.366,0.5744,0.2083,1.6817,1.6487,-0.033,A
294,0.49837,1.2,1,0.43192,0.32394,0.43192,294,1.78582,-0.8,-0.3987,0.09967,5,lapse_rate,2.0,True,0.282,0,False,right,0.08306,0.3564,0.6072,0.2509,0.9239,1.6569,0.733,A
295,0.49837,0.1,1,0.20766,0.34886,0.84723,295,2.26759,-0.27,-0.1329,0.36547,5,2D1U,2.0,True,0.51,35,False,right,-0.08306,0.3496,0.4334,0.0837,1.4665,1.6003,0.1338,A
296,0.49837,0.1,2,0.24088,0.31564,0.62297,296,2.06825,-0.216,-0.10798,0.39039,5,2D1U,1.0,True,0.535,36,True,left,0.16612,1.4533,1.7032,0.25,0.3032,0.6866,0.3834,A
297,0.49837,0.1,2,0.43192,0.44023,0.58974,297,2.45033,-0.024,-0.00831,0.49007,5,2U1D,1.0,True,0.508,36,False,left,-0.24919,1.3968,1.7465,0.3498,0.6965,0.6639,-0.0326,A
298,0.49837,0.1,1,0.42362,0.19935,0.88876,298,2.10977,-0.8,-0.3987,0.09967,5,lapse_rate,2.0,True,0.434,0,False,right,0.08306,0.5634,0.3792,-0.1841,1.3708,1.671,0.3001,A
299,0.49837,1.2,2,0.38209,0.30733,0.77248,299,2.47525,0.03,0.01661,0.51498,5,2U1D,1.0,False,0.309,36,False,left,-0.08306,1.7616,2.2034,0.4418,0.3454,0.9112,0.5658,A
300,0.49837,0.1,2,0.29902,0.29072,0.83893,300,2.82411,0.8,0.3987,0.89707,5,lapse_rate,2.0,True,0.459,0,False,right,0.16612,1.7271,2.4855,0.7583,0.3605,0.7438,0.3832,A
301,0.49837,1.2,1,0.20766,0.25749,0.88876,301,2.24267,-0.216,-0.10798,0.39039,5,2D1U,1.0,False,0.593,36,True,left,-0.24919,0.1335,0.6746,0.5411,1.6166,2.0165,0.3998,A
302,0.49837,1.2,2,0.34055,0.29072,0.44853,302,2.11807,0.084,0.04153,0.5399,5,2U1D,1.0,False,0.355,37,True,left,0.08306,1.4805,1.9473,0.4667,0.2215,0.9555,0.734,A
303,0.49837,1.2,1,0.33225,0.34055,0.81401,303,2.35065,-0.27,-0.1329,0.36547,5,2D1U,1.0,False,1.575,37,True,left,-0.08306,0.2578,0.7741,0.5163,1.5572,2.1239,0.5667,A
304,0.49837,1.2,1,0.36547,0.25749,0.65619,304,2.67459,0.8,0.3987,0.89707,5,lapse_rate,1.0,True,0.334,0,False,left,0.16612,0.2927,1.3418,1.0491,1.842,2.6584,0.8164,A
305,0.49837,0.1,1,0.34055,0.34055,0.58974,305,2.10976,-0.324,-0.16612,0.34055,5,2D1U,1.0,False,1.383,37,False,left,-0.24919,0.4841,0.5424,0.0583,1.4001,1.367,-0.0331,A
306,0.49837,0.1,1,0.24919,0.407,0.83062,306,2.55831,0.138,0.06645,0.57313,5,2U1D,1.0,True,0.414,37,False,left,0.08306,0.3879,0.6794,0.2915,1.6128,1.9127,0.2999,A
307,0.49837,1.2,2,0.24919,0.44853,0.61466,307,1.91042,-0.8,-0.3987,0.09967,5,lapse_rate,1.0,True,0.238,0,False,left,-0.08306,1.4736,1.4985,0.0248,0.2147,0.7816,0.5669,A
308,0.49837,0.1,2,0.28241,0.21596,0.57313,308,2.143,0.138,0.06645,0.57313,5,2U1D,2.0,True,0.494,37,False,right,0.16612,1.4393,1.8721,0.4327,0.3389,0.7221,0.3832,A
309,0.49837,1.2,2,0.35717,0.34055,0.8057,309,2.89886,0.8,0.3987,0.89707,5,lapse_rate,2.0,True,0.344,0,False,right,-0.24919,1.6909,2.5155,0.8246,0.4069,0.8069,0.4,A
310,0.49837,0.1,2,0.23257,0.30733,0.64788,310,1.99348,-0.378,-0.19104,0.30733,5,2D1U,1.0,True,0.995,37,False,left,0.08306,1.4264,1.5933,0.1669,0.3349,0.6347,0.2998,A
311,0.49837,0.1,1,0.29902,0.34886,0.407,311,1.65292,-0.8,-0.3987,0.09967,5,lapse_rate,2.0,True,0.675,0,False,right,-0.08306,0.4409,0.2573,-0.1837,0.8497,0.983,0.1333,A
312,0.49837,1.2,2,0.24919,0.37378,0.81401,312,2.24268,-0.378,-0.19104,0.30733,5,2D1U,1.0,True,0.361,37,False,left,0.16612,1.7958,2.0293,0.2335,0.0876,0.904,0.8165,A
313,0.49837,1.2,2,0.29072,0.29902,0.52329,313,2.1513,0.084,0.04153,0.5399,5,2U1D,1.0,False,1.023,38,True,left,-0.24919,1.3433,1.8096,0.4663,0.3438,0.743,0.3992,A
314,0.49837,1.2,1,0.42362,0.37378,0.407,314,2.2759,0.138,0.06645,0.57313,5,2U1D,1.0,True,0.407,39,True,left,0.08306,0.3489,1.0744,0.7254,1.3656,2.0992,0.7335,A
315,0.49837,1.2,2,0.39039,0.36547,0.51498,315,2.10976,-0.324,-0.16612,0.34055,5,2D1U,1.0,True,0.325,38,True,left,-0.08306,1.5181,1.7847,0.2667,0.359,0.9265,0.5675,A
316,0.49837,1.2,2,0.31564,0.23257,0.48176,316,2.42541,0.8,0.3987,0.89707,5,lapse_rate,2.0,True,0.326,0,False,right,0.16612,1.534,2.3591,0.8251,0.159,0.9757,0.8167,A
317,0.49837,0.1,1,0.37378,0.24919,0.85554,317,2.31743,-0.324,-0.16612,0.34055,5,2D1U,2.0,True,0.613,38,True,right,-0.24919,0.5198,0.5775,0.0577,1.7026,1.6695,-0.0331,A
318,0.49837,0.1,1,0.44023,0.37378,0.8057,318,3.01515,0.8,0.3987,0.89707,5,lapse_rate,1.0,True,0.378,0,False,left,0.08306,0.5822,1.1996,0.6174,2.1074,2.4074,0.3,A
319,0.49837,0.1,2,0.19935,0.2658,0.73095,319,2.2676,0.138,0.06645,0.57313,5,2U1D,2.0,True,1.009,39,True,right,-0.08306,1.3895,1.8224,0.4329,0.3815,0.5147,0.1331,A
320,0.49837,0.1,1,0.19935,0.30733,0.63958,320,2.18453,0.084,0.04153,0.5399,5,2U1D,1.0,True,1.252,40,True,left,0.16612,0.343,0.6017,0.2588,1.3011,1.685,0.3839,A
321,0.49837,1.2,1,0.41531,0.407,0.74756,321,2.96531,0.8,0.3987,0.89707,5,lapse_rate,1.0,True,0.301,0,False,left,-0.24919,0.3448,1.3947,1.0499,2.1949,2.5939,0.3989,A
322,0.49837,0.1,2,0.23257,0.21596,0.63127,322,1.94364,-0.27,-0.1329,0.36547,5,2D1U,1.0,True,0.237,38,False,left,0.08306,1.4052,1.6299,0.2247,0.3296,0.6301,0.3005,A
323,0.49837,0.1,2,0.36547,0.30733,0.87215,323,2.14299,-0.8,-0.3987,0.09967,5,lapse_rate,1.0,True,0.395,0,False,left,-0.08306,1.7008,1.6591,-0.0417,0.5514,0.684,0.1326,A
324,0.49837,1.2,2,0.20766,0.30733,0.8057,324,2.18453,-0.27,-0.1329,0.36547,5,2D1U,1.0,True,0.4,38,False,left,0.16612,1.7511,2.0423,0.2913,0.051,0.8679,0.8169,A
325,0.49837,1.2,1,0.31564,0.29902,0.70603,325,2.35896,0.084,0.04153,0.5399,5,2U1D,2.0,False,0.283,40,True,right,-0.24919,0.2419,0.9336,0.6917,1.6924,2.0918,0.3995,A
326,0.49837,1.2,2,0.20766,0.22427,0.61466,326,1.93535,-0.216,-0.10798,0.39039,5,2D1U,1.0,True,0.353,38,False,left,0.08306,1.5151,1.8314,0.3164,0.0893,0.823,0.7337,A
327,0.49837,1.2,1,0.34886,0.20766,0.50668,327,1.66124,-0.8,-0.3987,0.09967,5,lapse_rate,2.0,True,0.292,0,False,right,-0.08306,0.281,0.5359,0.2549,1.0112,1.5775,0.5662,A
328,0.49837,1.2,2,0.33225,0.22427,0.6645,328,2.29252,0.138,0.06645,0.57313,5,2U1D,1.0,False,0.931,41,True,left,0.16612,1.7295,2.2297,0.5002,0.1711,0.9879,0.8168,A
329,0.49837,1.2,1,0.28241,0.407,0.8057,329,2.09315,-0.8,-0.3987,0.09967,5,lapse_rate,2.0,True,0.246,0,False,right,-0.24919,0.2059,0.4561,0.2501,1.3145,1.7141,0.3996,A
330,0.49837,0.1,1,0.29072,0.29902,0.60635,330,2.08485,-0.216,-0.10798,0.39039,5,2D1U,1.0,False,0.317,38,False,left,0.08306,0.4285,0.5368,0.1083,1.2451,1.5452,0.3001,A
331,0.49837,0.1,2,0.42362,0.39039,0.46515,331,2.37558,0.192,0.09967,0.59805,5,2U1D,2.0,True,0.547,41,False,right,-0.08306,1.3487,1.807,0.4583,0.6076,0.7406,0.133,A
332,0.49837,1.2,1,0.24088,0.32394,0.83893,332,2.79919,0.8,0.3987,0.89707,5,lapse_rate,1.0,True,0.317,0,False,left,0.16612,0.1693,1.2193,1.0501,1.9027,2.7194,0.8168,A
333,0.49837,0.1,1,0.2741,0.37378,0.5316,333,2.04332,-0.27,-0.1329,0.36547,5,2D1U,2.0,True,0.267,39,True,right,-0.24919,0.4142,0.4977,0.0835,1.2977,1.2646,-0.0331,A
334,0.49837,0.1,1,0.36547,0.3987,0.48176,334,2.34235,0.192,0.09967,0.59805,5,2U1D,1.0,True,0.591,41,False,left,0.08306,0.5043,0.8209,0.3166,1.4042,1.7037,0.2994,A
335,0.49837,1.2,2,0.29902,0.37378,0.51498,335,2.58322,0.8,0.3987,0.89707,5,lapse_rate,2.0,True,0.314,0,False,right,-0.08306,1.4265,2.2506,0.8241,0.2673,0.8348,0.5674,A
336,0.49837,1.2,1,0.41531,0.38209,0.42362,336,2.08486,-0.27,-0.1329,0.36547,5,2D1U,2.0,True,0.941,39,True,right,0.16612,0.3372,0.8538,0.5166,1.1203,1.937,0.8167,A
337,0.49837,1.2,2,0.37378,0.2741,0.82231,337,2.54169,0.138,0.06645,0.57313,5,2U1D,2.0,True,0.289,42,True,right,-0.24919,1.7261,2.2259,0.4998,0.4271,0.8269,0.3998,A
338,0.49837,1.2,1,0.29902,0.22427,0.50668,338,1.91873,-0.216,-0.10798,0.39039,5,2D1U,1.0,False,1.167,40,True,left,0.08306,0.2278,0.7691,0.5413,1.1611,1.8941,0.733,A
339,0.49837,1.2,1,0.2741,0.36547,0.64788,339,2.35895,0.138,0.06645,0.57313,5,2U1D,1.0,True,0.407,42,True,left,-0.08306,0.1962,0.9216,0.7255,1.5384,2.1049,0.5665,A
340,0.49837,0.1,2,0.3987,0.2658,0.70603,340,2.4088,0.084,0.04153,0.5399,5,2U1D,2.0,True,0.672,42,False,right,0.16612,1.6885,2.0893,0.4008,0.4547,0.8387,0.384,A
341,0.49837,0.1,2,0.19935,0.3987,0.78078,341,2.4171,0.084,0.04153,0.5399,5,2U1D,1.0,False,0.591,42,False,left,-0.24919,1.3535,1.7546,0.4011,0.4628,0.4293,-0.0336,A
342,0.49837,0.1,1,0.44023,0.41531,0.73925,342,2.45863,-0.27,-0.1329,0.36547,5,2D1U,1.0,False,1.041,41,True,left,0.08306,0.5818,0.6653,0.0835,1.5067,1.8073,0.3006,A
343,0.49837,0.1,2,0.2658,0.24088,0.61466,343,2.19284,0.138,0.06645,0.57313,5,2U1D,2.0,True,0.225,43,True,right,-0.08306,1.3382,1.7721,0.4339,0.4469,0.5801,0.1332,A
344,0.49837,1.2,2,0.43192,0.29902,0.88876,344,2.45862,-0.324,-0.16612,0.34055,5,2D1U,1.0,True,0.359,41,False,left,0.16612,2.0536,2.3206,0.267,0.2707,1.087,0.8162,A
345,0.49837,1.2,2,0.29902,0.25749,0.65619,345,2.2842,0.138,0.06645,0.57313,5,2U1D,2.0,True,0.282,43,True,right,-0.24919,1.4862,1.9859,0.4997,0.3529,0.7533,0.4004,A
346,0.49837,1.2,1,0.21596,0.35717,0.46515,346,2.07655,0.084,0.04153,0.5399,5,2U1D,1.0,True,0.32,44,True,left,0.08306,0.1375,0.8299,0.6923,1.1793,1.9142,0.7349,A
347,0.49837,1.2,1,0.38209,0.28241,0.6645,347,2.36727,0.084,0.04153,0.5399,5,2U1D,1.0,True,1.331,44,True,left,-0.08306,0.3068,0.9986,0.6917,1.6313,2.1976,0.5663,A
348,0.49837,0.1,1,0.31564,0.38209,0.5399,348,2.07655,-0.324,-0.16612,0.34055,5,2D1U,2.0,True,0.114,41,False,right,0.16612,0.4606,0.5184,0.0578,1.1188,1.502,0.3832,A
349,0.49837,0.1,2,0.35717,0.21596,0.54821,349,1.98518,-0.27,-0.1329,0.36547,5,2D1U,1.0,True,0.659,42,True,left,-0.24919,1.2862,1.5116,0.2254,0.6283,0.5947,-0.0336,A
350,0.49837,0.1,2,0.38209,0.24919,0.44853,350,2.09316,0.03,0.01661,0.51498,5,2U1D,1.0,False,0.366,44,False,left,0.08306,1.3769,1.753,0.376,0.4854,0.7861,0.3006,A
351,0.49837,0.1,1,0.29902,0.44023,0.78078,351,2.5583,0.084,0.04153,0.5399,5,2U1D,2.0,False,0.744,45,True,right,-0.08306,0.4388,0.6974,0.2586,1.6638,1.7976,0.1338,A
352,0.49837,1.2,2,0.23257,0.42362,0.68941,352,2.20944,-0.27,-0.1329,0.36547,5,2D1U,1.0,True,0.417,42,True,left,0.16612,1.6582,1.9494,0.2912,0.0745,0.8913,0.8168,A
353,0.49837,1.2,2,0.24088,0.3987,0.83062,353,2.5417,0.138,0.06645,0.57313,5,2U1D,2.0,True,0.339,45,False,right,-0.24919,1.5959,2.0956,0.4998,0.2868,0.6874,0.4006,A
354,0.49837,1.2,1,0.43192,0.44023,0.83893,354,2.59984,-0.216,-0.10798,0.39039,5,2D1U,1.0,False,0.733,42,False,left,0.08306,0.3583,0.9001,0.5418,1.6252,2.3589,0.7336,A
355,0.49837,1.2,2,0.23257,0.29072,0.73925,355,2.12638,-0.27,-0.1329,0.36547,5,2D1U,1.0,True,0.305,43,True,left,-0.08306,1.5829,1.8745,0.2917,0.1986,0.7657,0.5671,A
356,0.49837,0.1,2,0.21596,0.41531,0.7974,356,2.29251,-0.27,-0.1329,0.36547,5,2D1U,1.0,True,0.309,43,True,left,0.16612,1.6014,1.8269,0.2255,0.2767,0.6597,0.383,A
357,0.49837,0.1,1,0.24919,0.23257,0.57313,357,2.12639,0.138,0.06645,0.57313,5,2U1D,1.0,True,1.402,45,False,left,-0.24919,0.3888,0.6799,0.2911,1.5218,1.4887,-0.0331,A
358,0.49837,0.1,1,0.44023,0.34055,0.69772,358,2.36726,-0.216,-0.10798,0.39039,5,2D1U,2.0,True,1.724,44,True,right,0.08306,0.5828,0.691,0.1082,1.4908,1.7907,0.2999,A
359,0.49837,0.1,1,0.2741,0.2658,0.46515,359,2.04332,0.084,0.04153,0.5399,5,2U1D,1.0,True,0.523,46,True,left,-0.08306,0.4201,0.6775,0.2574,1.3279,1.4618,0.1339,A
360,0.49837,1.2,1,0.23257,0.29072,0.61466,360,2.17622,0.084,0.04153,0.5399,5,2U1D,1.0,True,2.056,46,True,left,0.16612,0.1558,0.8476,0.6918,1.3061,2.1225,0.8163,A
361,0.49837,1.2,1,0.21596,0.34055,0.85554,361,2.30081,-0.216,-0.10798,0.39039,5,2D1U,1.0,False,0.683,44,True,left,-0.24919,0.1385,0.6796,0.5411,1.5881,1.9878,0.3996,A
362,0.49837,1.2,2,0.34055,0.21596,0.55652,362,1.97687,-0.27,-0.1329,0.36547,5,2D1U,1.0,True,0.436,45,True,left,0.08306,1.5888,1.8813,0.2925,0.223,0.9561,0.7331,A
363,0.49837,1.2,1,0.24088,0.20766,0.83062,363,2.29251,0.03,0.01661,0.51498,5,2U1D,2.0,False,1.484,46,False,right,-0.08306,0.1633,0.8296,0.6663,1.6298,2.1966,0.5668,A
364,0.49837,0.1,1,0.407,0.24088,0.72264,364,2.23436,-0.27,-0.1329,0.36547,5,2D1U,2.0,True,0.374,45,True,right,0.16612,0.548,0.6315,0.0836,1.4146,1.7976,0.383,A
365,0.49837,0.1,1,0.3987,0.44023,0.78909,365,2.51678,-0.216,-0.10798,0.39039,5,2D1U,2.0,True,1.25,46,True,right,-0.24919,0.541,0.6497,0.1087,1.7081,1.6743,-0.0338,A
366,0.49837,0.1,2,0.44023,0.24919,0.49837,366,2.22606,0.084,0.04153,0.5399,5,2U1D,1.0,False,0.526,47,True,left,0.08306,1.4835,1.8826,0.3991,0.5409,0.8407,0.2998,A
367,0.49837,0.1,2,0.38209,0.2658,0.71433,367,2.25098,-0.216,-0.10798,0.39039,5,2D1U,1.0,True,1.091,46,True,left,-0.08306,1.557,1.806,0.2489,0.5647,0.6984,0.1337,A
368,0.49837,1.2,1,0.29072,0.23257,0.42362,368,2.01841,0.138,0.06645,0.57313,5,2U1D,1.0,True,0.352,47,False,left,0.16612,0.2174,0.9423,0.7249,1.2087,2.0263,0.8176,A
369,0.49837,1.2,1,0.22427,0.407,0.45684,369,2.15961,0.138,0.06645,0.57313,5,2U1D,1.0,True,0.95,47,False,left,-0.24919,0.1511,0.8764,0.7254,1.3846,1.784,0.3995,A
370,0.49837,1.2,2,0.44853,0.24088,0.81401,370,2.4171,-0.162,-0.08306,0.41531,5,2D1U,1.0,True,0.389,46,False,left,0.08306,1.9569,2.2982,0.3413,0.3315,1.0645,0.733,A
371,0.49837,1.2,1,0.37378,0.44853,0.61466,371,2.35065,-0.162,-0.08306,0.41531,5,2D1U,2.0,True,1.847,46,False,right,-0.08306,0.298,0.8652,0.5673,1.448,2.0144,0.5664,A
372,0.49837,0.1,2,0.20766,0.34886,0.45684,372,2.05163,0.084,0.04153,0.5399,5,2U1D,1.0,False,0.837,48,True,left,0.16612,1.249,1.649,0.4,0.266,0.649,0.383,A
373,0.49837,0.1,2,0.38209,0.34886,0.85554,373,2.53339,-0.108,-0.05814,0.44853,5,2D1U,1.0,True,0.856,46,False,left,-0.24919,1.6121,1.9213,0.3092,0.646,0.6123,-0.0336,A
374,0.49837,0.1,2,0.39039,0.42362,0.56482,374,2.32573,-0.108,-0.05814,0.44853,5,2D1U,1.0,True,0.332,46,False,left,0.08306,1.4997,1.8075,0.3078,0.4915,0.7911,0.2996,A
375,0.49837,0.1,1,0.29072,0.2741,0.68111,375,2.31743,0.138,0.06645,0.57313,5,2U1D,2.0,False,1.279,49,True,right,-0.08306,0.4281,0.7202,0.2921,1.5867,1.7196,0.1329,A
376,0.49837,1.2,1,0.407,0.41531,0.407,376,2.20113,-0.054,-0.02492,0.47345,5,2D1U,1.0,False,0.355,46,False,left,0.16612,0.3297,0.954,0.6243,1.2041,2.0209,0.8168,A
377,0.49837,1.2,1,0.44853,0.25749,0.49007,377,2.14299,-0.108,-0.05814,0.44853,5,2D1U,1.0,False,1.694,47,True,left,-0.24919,0.371,0.9716,0.6005,1.5131,1.9128,0.3997,A
378,0.49837,1.2,1,0.21596,0.28241,0.59805,378,2.19284,0.192,0.09967,0.59805,5,2U1D,1.0,True,0.372,49,False,left,0.08306,0.1381,0.8887,0.7505,1.3723,2.1049,0.7327,A
379,0.49837,1.2,1,0.2741,0.39039,0.43192,379,2.19283,0.192,0.09967,0.59805,5,2U1D,2.0,False,0.726,49,False,right,-0.08306,0.1962,0.9469,0.7506,1.3462,1.914,0.5679,A
380,0.49837,0.1,2,0.19935,0.20766,0.43192,380,1.75261,-0.162,-0.08306,0.41531,5,2D1U,1.0,True,1.536,47,False,left,0.16612,1.2137,1.4897,0.276,0.2558,0.6399,0.3841,A
381,0.49837,0.1,2,0.3987,0.24088,0.70603,381,2.46695,0.246,0.12459,0.62297,5,2U1D,2.0,True,0.289,49,False,right,-0.24919,1.4793,1.9629,0.4836,0.6628,0.6298,-0.0329,A
382,0.49837,0.1,1,0.35717,0.29072,0.48176,382,2.25099,0.246,0.12459,0.62297,5,2U1D,1.0,True,0.933,49,False,left,0.08306,0.5011,0.8433,0.3422,1.4262,1.7267,0.3005,A
383,0.49837,0.1,1,0.38209,0.31564,0.44023,383,2.23438,0.192,0.09967,0.59805,5,2U1D,1.0,True,1.222,50,True,left,-0.08306,0.5247,0.8408,0.3161,1.4659,1.5991,0.1332,A
384,0.49837,1.2,2,0.31564,0.33225,0.73095,384,2.29252,-0.162,-0.08306,0.41531,5,2D1U,1.0,True,0.325,47,False,left,0.16612,1.7843,2.1254,0.341,0.1586,0.9756,0.817,A
385,0.49837,1.2,2,0.22427,0.33225,0.88876,385,2.39218,-0.108,-0.05814,0.44853,5,2D1U,2.0,False,0.28,48,True,right,-0.24919,1.6448,2.0198,0.375,0.2775,0.678,0.4006,A
386,0.49837,1.2,2,0.21596,0.23257,0.48176,386,2.02671,0.192,0.09967,0.59805,5,2U1D,1.0,False,0.331,50,True,left,0.08306,1.3889,1.9147,0.5259,0.098,0.8309,0.7329,A
387,0.49837,1.2,1,0.2741,0.32394,0.81401,387,2.32573,-0.162,-0.08306,0.41531,5,2D1U,2.0,True,0.28,49,True,right,-0.08306,0.2029,0.7689,0.566,1.553,2.1191,0.5661,A
388,0.49837,0.1,2,0.30733,0.2658,0.60635,388,2.09316,-0.162,-0.08306,0.41531,5,2D1U,1.0,True,0.327,49,True,left,0.16612,1.4969,1.7713,0.2744,0.3634,0.7469,0.3835,A
389,0.49837,0.1,2,0.29072,0.33225,0.49007,389,2.05994,-0.108,-0.05814,0.44853,5,2D1U,1.0,True,2.175,50,True,left,-0.24919,1.1541,1.4631,0.309,0.5543,0.521,-0.0333,A
390,0.49837,0.1,1,0.42362,0.39039,0.56482,390,2.50017,0.246,0.12459,0.62297,5,2U1D,1.0,True,1.033,51,True,left,0.08306,0.5632,0.9049,0.3416,1.5715,1.8715,0.2999,A
391,0.49837,0.1,1,0.34886,0.41531,0.50668,391,2.39219,0.246,0.12459,0.62297,5,2U1D,1.0,True,1.1,51,True,left,-0.08306,0.4954,0.8373,0.3418,1.5281,1.6613,0.1332,A
392,0.49837,1.2,2,0.36547,0.24088,0.6728,392,2.22605,-0.108,-0.05814,0.44853,5,2D1U,1.0,True,1.726,50,True,left,0.16612,1.7742,2.1496,0.3754,0.2073,1.0245,0.8172,A
393,0.49837,1.2,2,0.35717,0.29072,0.60635,393,2.35066,0.192,0.09967,0.59805,5,2U1D,2.0,True,0.325,52,True,right,-0.24919,1.4935,2.0183,0.5248,0.4096,0.8095,0.4,A
394,0.49837,1.2,1,0.33225,0.29902,0.44023,394,2.16792,0.192,0.09967,0.59805,5,2U1D,1.0,True,0.367,52,True,left,0.08306,0.2611,1.0118,0.7507,1.336,2.0699,0.7339,A
395,0.49837,1.2,1,0.22427,0.29072,0.82231,395,2.4088,0.138,0.06645,0.57313,5,2U1D,1.0,True,2.537,52,False,left,-0.08306,0.1512,0.8758,0.7246,1.6674,2.2345,0.5671,A
396,0.49837,0.1,1,0.20766,0.3987,0.68111,396,2.25929,-0.054,-0.02492,0.47345,5,2D1U,2.0,True,0.259,50,False,right,0.16612,0.3527,0.5444,0.1917,1.2862,1.6696,0.3834,A
397,0.49837,0.1,2,0.29902,0.20766,0.42362,397,2.0018,0.138,0.06645,0.57313,5,2U1D,1.0,False,0.805,52,False,left,-0.24919,1.1036,1.5364,0.4328,0.5701,0.5368,-0.0333,A
398,0.49837,0.1,1,0.22427,0.20766,0.82231,398,2.35066,0.192,0.09967,0.59805,5,2U1D,1.0,True,2.366,53,True,left,0.08306,0.3617,0.6784,0.3167,1.604,1.9039,0.2999,A
399,0.49837,0.1,1,0.41531,0.43192,0.44853,399,2.26758,-0.054,-0.02492,0.47345,5,2D1U,2.0,True,0.325,50,False,right,-0.08306,0.5568,0.7482,0.1914,1.3819,1.5153,0.1334,A
400,0.49837,1.2,1,0.30733,0.21596,0.58974,400,2.10977,-0.0,0.0,0.49837,5,2D1U,2.0,False,0.591,50,False,right,0.16612,0.2325,0.8817,0.6492,1.3156,999,997.6844,A
401,0.49837,1.2,2,0.30733,0.24919,0.88876,401,2.4171,-0.054,-0.02492,0.47345,5,2D1U,1.0,True,0.644,51,True,left,-0.24919,1.7235,2.124,0.4004,0.3578,0.7565,0.3987,A
402,0.49837,1.2,1,0.34055,0.33225,0.45684,402,2.22606,0.192,0.09967,0.59805,5,2U1D,1.0,True,0.554,53,True,left,0.08306,0.2687,1.0193,0.7505,1.3604,2.0936,0.7331,A
403,0.49837,1.2,1,0.34886,0.42362,0.5399,403,2.2842,-0.054,-0.02492,0.47345,5,2D1U,1.0,False,0.823,51,True,left,-0.08306,0.274,0.8994,0.6254,1.4079,1.974,0.5661,A
404,0.49837,0.1,2,0.30733,0.20766,0.84723,404,2.43372,0.138,0.06645,0.57313,5,2U1D,2.0,True,0.359,54,True,right,0.16612,1.7442,2.1778,0.4336,0.3693,0.7528,0.3835,A
405,0.49837,0.1,1,0.33225,0.29072,0.83893,405,2.4088,-0.108,-0.05814,0.44853,5,2D1U,1.0,False,0.659,51,False,left,-0.24919,0.476,0.643,0.167,1.7509,1.7177,-0.0332,A
406,0.49837,0.1,1,0.24088,0.25749,0.88046,406,2.45033,0.138,0.06645,0.57313,5,2U1D,1.0,True,0.575,54,True,left,0.08306,0.3812,0.6726,0.2914,1.6563,1.9567,0.3003,A
407,0.49837,0.1,1,0.37378,0.42362,0.58974,407,2.42541,0.084,0.04153,0.5399,5,2U1D,2.0,False,1.017,54,False,right,-0.08306,0.5188,0.7769,0.2581,1.5519,1.6852,0.1333,A
408,0.49837,1.2,2,0.28241,0.37378,0.77248,408,2.34235,-0.162,-0.08306,0.41531,5,2D1U,1.0,True,0.292,51,False,left,0.16612,1.7941,2.1355,0.3413,0.1275,0.944,0.8166,A
409,0.49837,1.2,2,0.29072,0.32394,0.62297,409,2.30913,0.138,0.06645,0.57313,5,2U1D,2.0,True,0.375,55,True,right,-0.24919,1.4436,1.9437,0.5,0.3435,0.7433,0.3998,A
410,0.49837,1.2,1,0.43192,0.41531,0.89707,410,2.65798,-0.162,-0.08306,0.41531,5,2D1U,1.0,False,0.325,51,False,left,0.08306,0.357,0.9242,0.5672,1.7069,2.4403,0.7334,A
411,0.49837,1.2,1,0.25749,0.2658,0.63958,411,2.05163,-0.216,-0.10798,0.39039,5,2D1U,2.0,True,0.47,51,False,right,-0.08306,0.1799,0.722,0.5421,1.3304,1.8963,0.5658,A
412,0.49837,0.1,2,0.24919,0.28241,0.51498,412,2.11808,0.138,0.06645,0.57313,5,2U1D,2.0,True,0.489,55,True,right,0.16612,1.3447,1.7782,0.4335,0.3034,0.6865,0.3831,A
413,0.49837,0.1,1,0.31564,0.24919,0.73925,413,2.19284,-0.216,-0.10798,0.39039,5,2D1U,1.0,False,1.659,51,False,left,-0.24919,0.4563,0.5648,0.1085,1.5729,1.5395,-0.0333,A
414,0.49837,0.1,2,0.39039,0.29072,0.49007,414,2.03502,-0.27,-0.1329,0.36547,5,2D1U,1.0,True,2.314,51,False,left,0.08306,1.4263,1.6512,0.2249,0.4929,0.7932,0.3003,A
415,0.49837,0.1,2,0.407,0.34055,0.81401,415,2.59983,0.084,0.04153,0.5399,5,2U1D,2.0,True,0.384,56,True,right,-0.08306,1.6787,2.0782,0.3994,0.5869,0.7202,0.1333,A
416,0.49837,1.2,1,0.35717,0.2658,0.88876,416,2.37557,-0.27,-0.1329,0.36547,5,2D1U,1.0,False,0.592,51,False,left,0.16612,0.286,0.8027,0.5166,1.5355,2.3524,0.8169,A
417,0.49837,1.2,2,0.35717,0.38209,0.72264,417,2.30082,-0.324,-0.16612,0.34055,5,2D1U,1.0,True,0.283,51,False,left,-0.24919,1.6039,1.8703,0.2665,0.4038,0.8044,0.4006,A
418,0.49837,1.2,2,0.20766,0.37378,0.55652,418,2.17623,0.084,0.04153,0.5399,5,2U1D,1.0,False,0.777,56,True,left,0.08306,1.458,1.9241,0.4661,0.0903,0.824,0.7337,A
419,0.49837,1.2,2,0.25749,0.44853,0.73925,419,2.51677,0.138,0.06645,0.57313,5,2U1D,2.0,True,0.508,57,True,right,-0.08306,1.6057,2.1053,0.4996,0.2219,0.7886,0.5667,A
420,0.49837,0.1,1,0.44853,0.43192,0.41531,420,2.36726,0.138,0.06645,0.57313,5,2U1D,1.0,True,0.289,57,True,left,0.16612,0.5903,0.8819,0.2916,1.357,1.7403,0.3833,A
421,0.49837,0.1,2,0.31564,0.33225,0.41531,421,1.90212,-0.324,-0.16612,0.34055,5,2D1U,1.0,True,0.316,51,False,left,-0.24919,1.1091,1.3093,0.2002,0.5836,0.5502,-0.0333,A
422,0.49837,0.1,2,0.3987,0.31564,0.63958,422,2.39219,0.084,0.04153,0.5399,5,2U1D,2.0,True,0.3,58,True,right,0.08306,1.5847,1.9843,0.3995,0.5015,0.8014,0.3,A
423,0.49837,0.1,2,0.35717,0.38209,0.75586,423,2.35896,-0.27,-0.1329,0.36547,5,2D1U,1.0,True,0.3,52,True,left,-0.08306,1.5743,1.7992,0.2249,0.5409,0.6737,0.1328,A
424,0.49837,1.2,2,0.35717,0.23257,0.6728,424,2.30081,0.084,0.04153,0.5399,5,2U1D,1.0,False,0.391,58,True,left,0.16612,1.7648,2.2314,0.4666,0.1979,1.0146,0.8167,A
425,0.49837,1.2,2,0.28241,0.32394,0.77248,425,2.45033,0.138,0.06645,0.57313,5,2U1D,2.0,True,0.309,59,True,right,-0.24919,1.579,2.0792,0.5001,0.3291,0.7297,0.4006,A
426,0.49837,1.2,1,0.44023,0.29902,0.60635,426,2.20944,-0.27,-0.1329,0.36547,5,2D1U,1.0,False,0.559,52,True,left,0.08306,0.3641,0.8813,0.5171,1.3723,2.1059,0.7336,A
427,0.49837,1.2,1,0.42362,0.3987,0.46515,427,2.35897,0.138,0.06645,0.57313,5,2U1D,1.0,True,2.234,59,True,left,-0.08306,0.3524,1.078,0.7256,1.5114,2.0778,0.5664,A
428,0.49837,0.1,2,0.2741,0.34886,0.75586,428,2.41709,0.084,0.04153,0.5399,5,2U1D,2.0,True,0.279,60,True,right,0.16612,1.6159,2.0152,0.3993,0.3325,0.7158,0.3833,A
429,0.49837,0.1,1,0.25749,0.31564,0.78078,429,2.19283,-0.324,-0.16612,0.34055,5,2D1U,2.0,True,0.534,53,True,right,-0.24919,0.3989,0.4573,0.0584,1.5079,1.4754,-0.0325,A
430,0.49837,0.1,1,0.28241,0.32394,0.78909,430,2.43371,0.084,0.04153,0.5399,5,2U1D,1.0,True,0.291,60,True,left,0.08306,0.4219,0.6817,0.2597,1.5726,1.8726,0.3,A
431,0.49837,0.1,1,0.43192,0.28241,0.42362,431,1.97687,-0.324,-0.16612,0.34055,5,2D1U,2.0,True,0.273,53,True,right,-0.08306,0.5727,0.631,0.0583,1.2388,1.3722,0.1333,A
432,0.49837,1.2,1,0.407,0.21596,0.75586,432,2.39217,0.03,0.01661,0.51498,5,2U1D,1.0,True,0.458,60,False,left,0.16612,0.3349,1.0016,0.6667,1.6015,999,997.3985,A
433,0.49837,1.2,1,0.39039,0.28241,0.75586,433,2.44201,0.03,0.01661,0.51498,5,2U1D,2.0,False,0.441,60,False,right,-0.24919,0.3158,0.9831,0.6672,1.7905,2.1909,0.4003,A
434,0.49837,1.2,2,0.34886,0.22427,0.83062,434,2.44202,0.084,0.04153,0.5399,5,2U1D,1.0,False,0.306,61,True,left,0.08306,1.8724,2.3392,0.4668,0.2308,0.9643,0.7335,A
435,0.49837,1.2,2,0.21596,0.33225,0.84723,435,2.25928,-0.27,-0.1329,0.36547,5,2D1U,1.0,True,0.316,54,True,left,-0.08306,1.6729,1.9651,0.2922,0.1816,0.7478,0.5662,A
436,0.49837,0.1,2,0.2658,0.39039,0.73095,436,2.45864,0.138,0.06645,0.57313,5,2U1D,2.0,True,2.015,61,False,right,0.16612,1.582,2.0154,0.4334,0.3229,0.7071,0.3842,A
437,0.49837,0.1,1,0.28241,0.25749,0.61466,437,2.0184,-0.27,-0.1329,0.36547,5,2D1U,2.0,True,1.7,54,True,right,-0.24919,0.4271,0.5106,0.0835,1.3941,1.3606,-0.0335,A
438,0.49837,0.1,1,0.407,0.32394,0.58974,438,2.39218,0.138,0.06645,0.57313,5,2U1D,1.0,True,0.472,61,False,left,0.08306,0.5455,0.8373,0.2918,1.5289,1.8293,0.3004,A
439,0.49837,0.1,2,0.41531,0.29902,0.6728,439,2.4254,0.084,0.04153,0.5399,5,2U1D,2.0,True,1.099,62,True,right,-0.08306,1.548,1.9478,0.3998,0.5978,0.731,0.1332,A
440,0.49837,1.2,2,0.38209,0.34886,0.89707,440,2.66629,0.084,0.04153,0.5399,5,2U1D,1.0,False,0.356,62,True,left,0.16612,2.0187,2.4851,0.4664,0.227,1.0437,0.8168,A
441,0.49837,1.2,1,0.22427,0.3987,0.88046,441,2.39219,-0.216,-0.10798,0.39039,5,2D1U,1.0,False,0.336,54,False,left,-0.24919,0.1506,0.6927,0.5421,1.6261,2.0257,0.3996,A
442,0.49837,1.2,1,0.38209,0.24919,0.52329,442,2.01841,-0.27,-0.1329,0.36547,5,2D1U,2.0,True,0.559,55,True,right,0.08306,0.3034,0.8201,0.5167,1.2283,1.9615,0.7332,A
443,0.49837,1.2,2,0.30733,0.31564,0.82231,443,2.51678,0.138,0.06645,0.57313,5,2U1D,1.0,False,2.4,63,True,left,-0.08306,1.738,2.2377,0.4997,0.2714,0.838,0.5666,A
444,0.49837,0.1,1,0.31564,0.38209,0.48176,444,2.04333,-0.27,-0.1329,0.36547,5,2D1U,2.0,True,0.174,55,True,right,0.16612,0.4563,0.5405,0.0842,1.0813,1.4651,0.3838,A
445,0.49837,0.1,1,0.3987,0.2741,0.46515,445,2.02671,-0.216,-0.10798,0.39039,5,2D1U,2.0,True,0.364,56,True,right,-0.24919,0.54,0.6484,0.1084,1.3818,1.3487,-0.0332,A
446,0.49837,0.1,1,0.38209,0.21596,0.88876,446,2.37557,-0.216,-0.10798,0.39039,5,2D1U,2.0,True,0.428,56,True,right,0.08306,0.527,0.6348,0.1077,1.6265,1.9265,0.3,A
447,0.49837,0.1,2,0.3987,0.43192,0.59805,447,2.52509,0.192,0.09967,0.59805,5,2U1D,2.0,True,0.314,63,False,right,-0.08306,1.4547,1.9132,0.4586,0.5795,0.7129,0.1334,A
448,0.49837,1.2,2,0.39039,0.33225,0.70603,448,2.34235,-0.162,-0.08306,0.41531,5,2D1U,1.0,True,0.333,56,False,left,0.16612,1.8304,2.1718,0.3415,0.2306,1.0468,0.8162,A
449,0.49837,1.2,2,0.29072,0.20766,0.60635,449,2.01841,-0.162,-0.08306,0.41531,5,2D1U,2.0,False,0.366,56,False,right,-0.24919,1.4253,1.7674,0.3421,0.342,0.7424,0.4004,A
450,0.49837,1.2,1,0.29902,0.20766,0.5316,450,2.1347,0.192,0.09967,0.59805,5,2U1D,1.0,True,0.64,63,False,left,0.08306,0.2253,0.9758,0.7506,1.3926,2.1255,0.7329,A
451,0.49837,1.2,2,0.37378,0.39039,0.41531,451,2.06824,-0.216,-0.10798,0.39039,5,2D1U,1.0,True,0.212,57,True,left,-0.08306,1.3959,1.7129,0.3169,0.3378,0.904,0.5663,A
452,0.49837,0.1,2,0.29902,0.19935,0.78909,452,2.17622,-0.216,-0.10798,0.39039,5,2D1U,1.0,True,0.375,57,True,left,0.16612,1.6721,1.9222,0.2501,0.3551,0.7382,0.3831,A
453,0.49837,0.1,1,0.37378,0.19935,0.88876,453,2.53339,0.138,0.06645,0.57313,5,2U1D,2.0,False,0.353,64,True,right,-0.24919,0.5151,0.8066,0.2915,1.9654,1.9319,-0.0335,A
454,0.49837,0.1,1,0.25749,0.35717,0.69772,454,2.4088,0.192,0.09967,0.59805,5,2U1D,1.0,True,0.273,65,True,left,0.08306,0.397,0.7138,0.3168,1.5138,1.8137,0.2999,A
455,0.49837,0.1,1,0.39039,0.35717,0.78078,455,2.44202,-0.162,-0.08306,0.41531,5,2D1U,2.0,True,0.258,58,True,right,-0.08306,0.5316,0.6651,0.1334,1.6319,1.7654,0.1336,A
456,0.49837,1.2,1,0.35717,0.41531,0.84723,456,2.71613,0.192,0.09967,0.59805,5,2U1D,1.0,True,0.305,65,True,left,0.16612,0.2786,1.0284,0.7498,1.72,2.5374,0.8174,A
457,0.49837,1.2,2,0.36547,0.2741,0.81401,457,2.36726,-0.162,-0.08306,0.41531,5,2D1U,1.0,True,0.294,58,True,left,-0.24919,1.7048,2.0455,0.3407,0.4124,0.8124,0.4,A
458,0.49837,1.2,2,0.29902,0.407,0.70603,458,2.48355,0.138,0.06645,0.57313,5,2U1D,2.0,True,0.345,66,True,right,0.08306,1.6955,2.1952,0.4996,0.1788,0.9122,0.7334,A
459,0.49837,1.2,2,0.24088,0.21596,0.65619,459,2.05993,-0.108,-0.05814,0.44853,5,2D1U,1.0,True,0.324,58,False,left,-0.08306,1.5072,1.8827,0.3755,0.2078,0.7744,0.5666,A
460,0.49837,0.1,1,0.3987,0.43192,0.65619,460,2.55831,0.138,0.06645,0.57313,5,2U1D,1.0,True,0.11,66,True,left,0.16612,0.5424,0.8334,0.291,1.5501,1.9333,0.3832,A
461,0.49837,0.1,2,0.37378,0.43192,0.76417,461,2.60814,0.084,0.04153,0.5399,5,2U1D,1.0,False,0.359,66,False,left,-0.24919,1.5128,1.913,0.4002,0.6379,0.6042,-0.0337,A
462,0.49837,0.1,1,0.2741,0.3987,0.85554,462,2.47524,-0.108,-0.05814,0.44853,5,2D1U,1.0,False,1.949,58,False,left,0.08306,0.4128,0.5795,0.1667,1.5379,1.8381,0.3002,A
463,0.49837,0.1,2,0.35717,0.407,0.88876,463,2.56661,-0.162,-0.08306,0.41531,5,2D1U,1.0,True,0.29,59,True,left,-0.08306,1.7058,1.9804,0.2746,0.5392,0.6727,0.1335,A
464,0.49837,1.2,1,0.25749,0.23257,0.87215,464,2.27589,-0.162,-0.08306,0.41531,5,2D1U,1.0,False,1.988,59,True,left,0.16612,0.1811,0.7473,0.5662,1.4645,2.281,0.8165,A
465,0.49837,1.2,1,0.29072,0.35717,0.5316,465,2.06825,-0.216,-0.10798,0.39039,5,2D1U,1.0,False,0.294,59,False,left,-0.24919,0.2208,0.763,0.5422,1.3457,1.7463,0.4006,A
466,0.49837,1.2,2,0.22427,0.39039,0.70603,466,2.39219,0.138,0.06645,0.57313,5,2U1D,2.0,True,0.288,67,True,right,0.08306,1.6218,2.1219,0.5001,0.1054,0.8383,0.733,A
467,0.49837,1.2,1,0.30733,0.29902,0.46515,467,2.143,0.138,0.06645,0.57313,5,2U1D,1.0,True,0.334,67,True,left,-0.08306,0.2285,0.9539,0.7253,1.3874,1.9535,0.5661,A
468,0.49837,0.1,2,0.29902,0.44023,0.68941,468,2.2925,-0.27,-0.1329,0.36547,5,2D1U,1.0,True,0.365,59,False,left,0.16612,1.573,1.7978,0.2248,0.3556,0.7392,0.3837,A
469,0.49837,0.1,2,0.3987,0.39039,0.54821,469,2.20114,-0.27,-0.1329,0.36547,5,2D1U,2.0,False,0.748,59,False,right,-0.24919,1.3238,1.5498,0.226,0.6663,0.6327,-0.0336,A
470,0.49837,0.1,2,0.34055,0.3987,0.60635,470,2.18452,-0.324,-0.16612,0.34055,5,2D1U,1.0,True,0.342,59,False,left,0.08306,1.4905,1.6907,0.2002,0.4406,0.7407,0.3002,A
471,0.49837,0.1,2,0.21596,0.39039,0.56482,471,2.20944,0.084,0.04153,0.5399,5,2U1D,2.0,True,0.359,68,True,right,-0.08306,1.238,1.6374,0.3994,0.396,0.5291,0.1331,A
472,0.49837,1.2,1,0.29902,0.37378,0.45684,472,2.16791,0.084,0.04153,0.5399,5,2U1D,1.0,True,0.37,68,True,left,0.16612,0.2231,0.915,0.6919,1.2152,2.0314,0.8162,A
473,0.49837,1.2,1,0.34055,0.44853,0.44023,473,2.24266,0.03,0.01661,0.51498,5,2U1D,1.0,True,0.321,68,False,left,-0.24919,0.2685,0.9358,0.6673,1.4278,1.8276,0.3997,A
474,0.49837,1.2,2,0.29072,0.34055,0.6728,474,2.14299,-0.324,-0.16612,0.34055,5,2D1U,1.0,True,0.311,59,False,left,0.08306,1.6558,1.9226,0.2667,0.1725,0.9064,0.7339,A
475,0.49837,1.2,1,0.32394,0.41531,0.43192,475,2.18452,0.03,0.01661,0.51498,5,2U1D,1.0,True,0.518,68,False,left,-0.08306,0.2492,0.9156,0.6664,1.3156,1.8831,0.5674,A
476,0.49837,0.1,2,0.37378,0.24088,0.46515,476,2.06825,-0.024,-0.00831,0.49007,5,2U1D,1.0,True,2.434,68,False,left,0.16612,1.4273,1.7774,0.35,0.4353,0.819,0.3837,A
477,0.49837,0.1,1,0.31564,0.23257,0.6728,477,2.08485,-0.27,-0.1329,0.36547,5,2D1U,2.0,True,0.352,60,True,right,-0.24919,0.4556,0.5391,0.0835,1.4806,1.4474,-0.0332,A
478,0.49837,0.1,1,0.22427,0.30733,0.62297,478,2.14301,-0.024,-0.00831,0.49007,5,2U1D,1.0,False,0.373,68,False,left,0.08306,0.3653,0.5731,0.2079,1.2987,1.5982,0.2995,A
479,0.49837,0.1,1,0.39039,0.2658,0.44023,479,2.05994,-0.078,-0.04153,0.46515,5,2U1D,1.0,False,0.409,69,True,left,-0.08306,0.5355,0.7182,0.1828,1.3436,1.4771,0.1335,A
480,0.49837,1.2,1,0.24088,0.38209,0.407,480,1.89381,-0.27,-0.1329,0.36547,5,2D1U,1.0,False,2.139,60,True,left,0.16612,0.1702,0.6871,0.5168,0.9369,1.7529,0.816,A
481,0.49837,1.2,1,0.44023,0.29902,0.70603,481,2.2842,-0.324,-0.16612,0.34055,5,2D1U,1.0,False,0.793,61,True,left,-0.24919,0.3657,0.8573,0.4916,1.6161,2.016,0.3998,A
482,0.49837,1.2,1,0.32394,0.29072,0.42362,482,1.96857,-0.132,-0.06645,0.43192,5,2U1D,2.0,True,0.878,69,False,right,0.08306,0.2455,0.8289,0.5833,1.1372,1.8709,0.7337,A
483,0.49837,1.2,1,0.25749,0.33225,0.51498,483,1.91042,-0.378,-0.19104,0.30733,5,2D1U,1.0,False,0.409,61,False,left,-0.08306,0.1792,0.6378,0.4585,1.1208,1.688,0.5672,A
484,0.49837,0.1,2,0.28241,0.33225,0.72264,484,2.26759,-0.132,-0.06645,0.43192,5,2U1D,1.0,True,0.374,69,False,left,0.16612,1.5911,1.8827,0.2916,0.3406,0.7239,0.3834,A
485,0.49837,0.1,2,0.38209,0.23257,0.69772,485,2.09316,-0.432,-0.21596,0.28241,5,2D1U,1.0,True,0.366,61,False,left,-0.24919,1.4536,1.5955,0.1419,0.6453,0.6121,-0.0332,A
486,0.49837,0.1,1,0.33225,0.38209,0.82231,486,2.31743,-0.432,-0.21596,0.28241,5,2D1U,2.0,True,0.274,61,False,right,0.08306,0.4776,0.4776,0.0,1.403,1.7025,0.2995,A
487,0.49837,0.1,1,0.33225,0.41531,0.65619,487,2.36727,-0.078,-0.04153,0.46515,5,2U1D,2.0,True,0.292,70,True,right,-0.08306,0.474,0.6573,0.1833,1.4989,1.6325,0.1337,A
488,0.49837,1.2,1,0.25749,0.28241,0.87215,488,2.37557,-0.078,-0.04153,0.46515,5,2U1D,1.0,False,0.487,70,True,left,0.16612,0.1824,0.7987,0.6164,1.5155,2.3326,0.817,A
489,0.49837,1.2,2,0.24088,0.29902,0.73095,489,2.20114,-0.132,-0.06645,0.43192,5,2U1D,1.0,True,0.283,71,True,left,-0.24919,1.4949,1.8538,0.3589,0.2864,0.6869,0.4006,A
490,0.49837,1.2,1,0.35717,0.19935,0.74756,490,2.10978,-0.378,-0.19104,0.30733,5,2D1U,2.0,True,0.338,62,True,right,0.08306,0.2793,0.7371,0.4578,1.371,2.1042,0.7331,A
491,0.49837,1.2,2,0.36547,0.19935,0.64788,491,2.0184,-0.378,-0.19104,0.30733,5,2D1U,1.0,True,0.43,62,True,left,-0.08306,1.6235,1.8569,0.2334,0.3317,0.8983,0.5666,A
492,0.49837,0.1,2,0.33225,0.41531,0.8057,492,2.48355,-0.132,-0.06645,0.43192,5,2U1D,1.0,True,0.312,71,True,left,0.16612,1.7257,2.0173,0.2916,0.3919,0.776,0.3841,A
493,0.49837,0.1,2,0.33225,0.19935,0.6728,493,2.16792,-0.078,-0.04153,0.46515,5,2U1D,1.0,True,0.393,72,True,left,-0.24919,1.3868,1.7109,0.3241,0.6029,0.5696,-0.0333,A
494,0.49837,0.1,1,0.33225,0.36547,0.57313,494,2.10977,-0.324,-0.16612,0.34055,5,2D1U,2.0,True,0.325,62,False,right,0.08306,0.4741,0.5329,0.0588,1.2088,1.5084,0.2997,A
495,0.49837,0.1,2,0.407,0.22427,0.76417,495,2.23436,-0.324,-0.16612,0.34055,5,2D1U,1.0,True,0.327,62,False,left,-0.08306,1.6282,1.8286,0.2004,0.587,0.7198,0.1328,A
496,0.49837,1.2,2,0.43192,0.29072,0.42362,496,2.10978,-0.078,-0.04153,0.46515,5,2U1D,1.0,True,0.714,72,True,left,0.16612,1.5877,1.9792,0.3915,0.2703,1.0877,0.8174,A
497,0.49837,1.2,2,0.29072,0.34055,0.50668,497,2.12639,-0.024,-0.00831,0.49007,5,2U1D,1.0,True,1.541,72,False,left,-0.24919,1.3282,1.7448,0.4167,0.3448,0.7452,0.4004,A
498,0.49837,1.2,1,0.42362,0.36547,0.43192,498,2.08485,-0.27,-0.1329,0.36547,5,2D1U,2.0,True,0.255,62,False,right,0.08306,0.3478,0.8647,0.5169,1.1812,1.9143,0.7331,A
499,0.49837,1.2,1,0.34055,0.34886,0.54821,499,2.10146,-0.27,-0.1329,0.36547,5,2D1U,1.0,False,1.139,62,False,left,-0.08306,0.2653,0.782,0.5167,1.2995,1.8653,0.5659,A
500,0.49837,0.1,1,0.44023,0.29072,0.58143,500,2.1513,-0.324,-0.16612,0.34055,5,2D1U,2.0,True,0.273,63,True,right,0.16612,0.5827,0.6404,0.0577,1.2815,1.6652,0.3837,A
501,0.49837,0.1,2,0.30733,0.44023,0.7974,501,2.38388,-0.324,-0.16612,0.34055,5,2D1U,1.0,True,0.375,63,True,left,-0.24919,1.4814,1.6821,0.2007,0.5735,0.5401,-0.0334,A
502,0.49837,0.1,2,0.37378,0.2741,0.47345,502,2.10977,-0.024,-0.00831,0.49007,5,2U1D,2.0,False,0.358,72,False,right,0.08306,1.3926,1.7426,0.35,0.4763,0.7759,0.2996,A
503,0.49837,0.1,2,0.41531,0.36547,0.88876,503,2.53338,-0.27,-0.1329,0.36547,5,2D1U,1.0,True,0.275,64,True,left,-0.08306,1.7629,1.9883,0.2255,0.5963,0.73,0.1337,A
504,0.49837,1.2,2,0.20766,0.23257,0.76417,504,2.16792,-0.078,-0.04153,0.46515,5,2U1D,1.0,True,2.438,73,True,left,0.16612,1.7035,2.0951,0.3916,0.0452,0.8622,0.817,A
505,0.49837,1.2,1,0.36547,0.33225,0.70603,505,2.26759,-0.27,-0.1329,0.36547,5,2D1U,2.0,True,0.276,64,True,right,-0.24919,0.2903,0.8078,0.5175,1.5653,1.9663,0.401,A
506,0.49837,1.2,2,0.28241,0.23257,0.51498,506,1.99348,-0.078,-0.04153,0.46515,5,2U1D,1.0,True,0.383,73,True,left,0.08306,1.4938,1.8853,0.3915,0.169,0.9018,0.7328,A
507,0.49837,1.2,1,0.3987,0.37378,0.6728,507,2.33404,-0.216,-0.10798,0.39039,5,2D1U,2.0,True,0.253,64,False,right,-0.08306,0.3239,0.8656,0.5418,1.5067,2.0735,0.5668,A
508,0.49837,0.1,2,0.44023,0.2658,0.59805,508,2.19284,-0.216,-0.10798,0.39039,5,2D1U,1.0,True,0.369,64,False,left,0.16612,1.6214,1.8714,0.25,0.4972,0.8798,0.3826,A
509,0.49837,0.1,1,0.44853,0.23257,0.78909,509,2.45863,-0.024,-0.00831,0.49007,5,2U1D,1.0,False,2.856,74,True,left,-0.24919,0.5872,0.7951,0.2079,1.8536,1.8204,-0.0332,A
510,0.49837,0.1,1,0.24919,0.43192,0.76417,510,2.4088,-0.078,-0.04153,0.46515,5,2U1D,2.0,True,0.317,75,True,right,0.08306,0.3888,0.5715,0.1827,1.4383,1.7388,0.3005,A
511,0.49837,0.1,2,0.36547,0.24919,0.54821,511,2.07655,-0.162,-0.08306,0.41531,5,2D1U,1.0,True,3.204,64,False,left,-0.08306,1.3707,1.6453,0.2745,0.5456,0.6787,0.1331,A
512,0.49837,1.2,2,0.43192,0.36547,0.58974,512,2.30081,-0.162,-0.08306,0.41531,5,2D1U,1.0,True,0.313,64,False,left,0.16612,1.7567,2.0979,0.3412,0.273,1.0898,0.8168,A
513,0.49837,1.2,1,0.39039,0.3987,0.6728,513,2.42541,-0.078,-0.04153,0.46515,5,2U1D,1.0,False,1.764,75,True,left,-0.24919,0.3129,0.9283,0.6154,1.6538,2.0536,0.3998,A
514,0.49837,1.2,2,0.19935,0.44853,0.68111,514,2.27589,-0.108,-0.05814,0.44853,5,2D1U,1.0,True,0.298,64,False,left,0.08306,1.5728,1.9487,0.3759,0.0817,0.8155,0.7338,A
515,0.49837,1.2,1,0.34055,0.43192,0.72264,515,2.44201,-0.108,-0.05814,0.44853,5,2D1U,2.0,True,1.817,64,False,right,-0.08306,0.2624,0.8631,0.6007,1.5544,2.1215,0.5671,A
516,0.49837,0.1,1,0.24919,0.35717,0.46515,516,2.0018,-0.132,-0.06645,0.43192,5,2U1D,2.0,True,0.3,75,False,right,0.16612,0.3925,0.5422,0.1497,1.0671,1.4505,0.3835,A
517,0.49837,0.1,2,0.37378,0.3987,0.84723,517,2.55,-0.132,-0.06645,0.43192,5,2U1D,1.0,True,0.309,75,False,left,-0.24919,1.5999,1.8918,0.2919,0.641,0.6072,-0.0338,A
518,0.49837,0.1,1,0.2741,0.2658,0.44023,518,1.94365,-0.078,-0.04153,0.46515,5,2U1D,2.0,True,0.66,76,True,right,0.08306,0.4158,0.5981,0.1824,1.1402,1.4405,0.3003,A
519,0.49837,0.1,1,0.39039,0.29072,0.54821,519,2.20114,-0.054,-0.02492,0.47345,5,2D1U,2.0,True,1.808,64,False,right,-0.08306,0.5317,0.724,0.1923,1.4572,1.5906,0.1334,A
520,0.49837,1.2,1,0.25749,0.20766,0.72264,520,2.15961,-0.054,-0.02492,0.47345,5,2D1U,1.0,False,0.792,64,False,left,0.16612,0.183,0.8067,0.6237,1.3735,999,997.6265,A
521,0.49837,1.2,2,0.38209,0.41531,0.82231,521,2.58323,-0.078,-0.04153,0.46515,5,2U1D,2.0,False,0.25,76,True,right,-0.24919,1.7364,2.1271,0.3906,0.4358,0.8362,0.4004,A
522,0.49837,1.2,2,0.41531,0.19935,0.83893,522,2.38388,-0.132,-0.06645,0.43192,5,2U1D,1.0,True,0.508,77,True,left,0.08306,1.9504,2.3085,0.3581,0.3004,1.0341,0.7337,A
523,0.49837,1.2,1,0.32394,0.34886,0.43192,523,2.05162,-0.108,-0.05814,0.44853,5,2D1U,1.0,False,0.371,65,True,left,-0.08306,0.2464,0.8469,0.6005,1.247,1.8136,0.5666,A
524,0.49837,0.1,2,0.23257,0.22427,0.72264,524,2.09316,-0.162,-0.08306,0.41531,5,2D1U,1.0,True,0.306,65,False,left,0.16612,1.5432,1.8175,0.2743,0.293,0.6758,0.3828,A
525,0.49837,0.1,1,0.38209,0.21596,0.55652,525,2.08486,-0.132,-0.06645,0.43192,5,2U1D,2.0,True,0.361,77,True,right,-0.24919,0.5236,0.6736,0.1501,1.4984,1.4653,-0.0331,A
526,0.49837,0.1,2,0.33225,0.25749,0.58974,526,2.143,-0.078,-0.04153,0.46515,5,2U1D,1.0,True,2.441,78,True,left,0.08306,1.4615,1.7859,0.3244,0.4281,0.7279,0.2998,A
527,0.49837,0.1,2,0.35717,0.33225,0.49007,527,2.09317,-0.162,-0.08306,0.41531,5,2D1U,1.0,True,1.265,65,False,left,-0.08306,1.3062,1.5812,0.2751,0.5391,0.6727,0.1336,A
528,0.49837,1.2,2,0.38209,0.44853,0.5316,528,2.30912,-0.108,-0.05814,0.44853,5,2D1U,1.0,True,0.669,66,True,left,0.16612,1.6456,2.0212,0.3755,0.2204,1.0372,0.8169,A
529,0.49837,1.2,1,0.32394,0.38209,0.49007,529,2.15962,-0.078,-0.04153,0.46515,5,2U1D,1.0,False,0.283,78,True,left,-0.24919,0.2523,0.8689,0.6166,1.4112,1.8108,0.3996,A
530,0.49837,1.2,2,0.2658,0.35717,0.62297,530,2.19284,-0.108,-0.05814,0.44853,5,2D1U,1.0,True,0.39,66,True,left,0.08306,1.5781,1.9531,0.375,0.1448,0.8785,0.7336,A
531,0.49837,1.2,1,0.25749,0.34886,0.59805,531,2.13469,-0.132,-0.06645,0.43192,5,2U1D,1.0,False,1.823,79,True,left,-0.08306,0.1825,0.7661,0.5836,1.3329,1.8995,0.5667,A
532,0.49837,0.1,2,0.22427,0.31564,0.70603,532,2.21776,-0.054,-0.02492,0.47345,5,2D1U,2.0,False,1.292,66,False,right,0.16612,1.5156,1.8485,0.333,0.2815,0.6656,0.3841,A
533,0.49837,0.1,1,0.34886,0.34886,0.81401,533,2.4171,-0.186,-0.09137,0.407,5,2U1D,2.0,True,0.327,79,False,right,-0.24919,0.4876,0.613,0.1254,1.6963,1.6634,-0.0329,A
534,0.49837,0.1,1,0.29072,0.42362,0.44853,534,2.06824,-0.186,-0.09137,0.407,5,2U1D,2.0,True,0.333,79,False,right,0.08306,0.4321,0.5577,0.1256,1.1073,1.4077,0.3004,A
535,0.49837,0.1,1,0.24919,0.37378,0.58143,535,2.1513,-0.108,-0.05814,0.44853,5,2D1U,2.0,True,0.883,67,True,right,-0.08306,0.3929,0.5599,0.1671,1.3261,1.4597,0.1336,A
536,0.49837,1.2,2,0.28241,0.28241,0.68111,536,2.19283,-0.108,-0.05814,0.44853,5,2D1U,1.0,True,0.358,67,True,left,0.16612,1.6958,2.0709,0.3751,0.1205,0.9376,0.8171,A
537,0.49837,1.2,1,0.30733,0.2741,0.46515,537,2.0184,-0.054,-0.02492,0.47345,5,2D1U,2.0,True,2.893,68,True,right,-0.24919,0.2329,0.8578,0.6249,1.3746,1.774,0.3995,A
538,0.49837,1.2,2,0.43192,0.44023,0.59805,538,2.40049,-0.132,-0.06645,0.43192,5,2U1D,1.0,True,0.321,80,True,left,0.08306,1.7221,2.0805,0.3584,0.3139,1.047,0.7331,A
539,0.49837,1.2,1,0.42362,0.37378,0.84723,539,2.61645,-0.054,-0.02492,0.47345,5,2D1U,1.0,False,1.389,68,True,left,-0.08306,0.3454,0.9701,0.6248,1.7868,2.3533,0.5665,A
540,0.49837,0.1,2,0.20766,0.44023,0.83062,540,2.4088,-0.132,-0.06645,0.43192,5,2U1D,1.0,True,0.321,80,True,left,0.16612,1.621,1.9123,0.2912,0.2626,0.6459,0.3833,A
541,0.49837,0.1,1,0.44023,0.31564,0.68111,541,2.38388,-0.108,-0.05814,0.44853,5,2D1U,1.0,False,1.092,69,True,left,-0.24919,0.5859,0.7525,0.1666,1.7026,1.6691,-0.0335,A
542,0.49837,0.1,2,0.34886,0.25749,0.6728,542,2.24267,-0.078,-0.04153,0.46515,5,2U1D,1.0,True,0.334,80,False,left,0.08306,1.565,1.8901,0.3251,0.4487,0.7487,0.3,A
543,0.49837,0.1,2,0.21596,0.23257,0.61466,543,1.97687,-0.162,-0.08306,0.41531,5,2D1U,2.0,False,2.644,69,False,right,-0.08306,1.2879,1.563,0.275,0.3964,0.5297,0.1333,A
544,0.49837,1.2,2,0.33225,0.30733,0.76417,544,2.29251,-0.216,-0.10798,0.39039,5,2D1U,1.0,True,3.15,69,False,left,0.16612,1.8364,2.1531,0.3167,0.1782,0.9954,0.8171,A
545,0.49837,1.2,2,0.41531,0.34055,0.55652,545,2.20114,-0.216,-0.10798,0.39039,5,2D1U,1.0,True,0.324,69,False,left,-0.24919,1.4969,1.8139,0.3171,0.4637,0.8634,0.3997,A
546,0.49837,1.2,2,0.2741,0.24088,0.43192,546,1.91042,-0.078,-0.04153,0.46515,5,2U1D,1.0,True,0.326,80,False,left,0.08306,1.4031,1.7942,0.3911,0.1617,0.8946,0.7329,A
547,0.49837,1.2,1,0.28241,0.34886,0.88876,547,2.50847,-0.024,-0.00831,0.49007,5,2U1D,1.0,False,0.267,80,False,left,-0.08306,0.211,0.8527,0.6417,1.7112,2.2781,0.5669,A
548,0.49837,0.1,2,0.29072,0.42362,0.5316,548,2.20946,-0.078,-0.04153,0.46515,5,2U1D,1.0,True,0.299,81,True,left,0.16612,1.4075,1.732,0.3245,0.3491,0.7321,0.383,A
549,0.49837,0.1,2,0.25749,0.20766,0.6645,549,2.09317,-0.078,-0.04153,0.46515,5,2U1D,2.0,False,1.266,81,True,right,-0.24919,1.2953,1.6207,0.3254,0.5203,0.487,-0.0334,A
550,0.49837,0.1,2,0.22427,0.24088,0.72264,550,2.10147,-0.162,-0.08306,0.41531,5,2D1U,2.0,False,0.341,70,True,right,0.08306,1.4893,1.7643,0.275,0.323,0.623,0.2999,A
551,0.49837,0.1,2,0.32394,0.41531,0.77248,551,2.44202,-0.132,-0.06645,0.43192,5,2U1D,2.0,False,1.565,81,False,right,-0.08306,1.5596,1.8517,0.2921,0.5099,0.6435,0.1336,A
552,0.49837,1.2,2,0.37378,0.42362,0.57313,552,2.25929,-0.216,-0.10798,0.39039,5,2D1U,1.0,True,0.309,71,True,left,0.16612,1.6804,1.9965,0.3162,0.213,1.0298,0.8169,A
553,0.49837,1.2,2,0.407,0.38209,0.52329,553,2.21775,-0.186,-0.09137,0.407,5,2U1D,1.0,True,0.273,81,False,left,-0.24919,1.4541,1.7875,0.3333,0.4535,0.8542,0.4007,A
554,0.49837,1.2,2,0.23257,0.19935,0.68111,554,2.00179,-0.216,-0.10798,0.39039,5,2D1U,1.0,True,0.299,71,True,left,0.08306,1.6072,1.924,0.3168,0.1157,0.8494,0.7338,A
555,0.49837,1.2,1,0.44853,0.39039,0.89707,555,2.64136,-0.186,-0.09137,0.407,5,2U1D,2.0,True,0.188,81,False,right,-0.08306,0.3704,0.9282,0.5578,1.7955,2.3618,0.5663,A
556,0.49837,0.1,1,0.23257,0.30733,0.70603,556,2.17622,-0.132,-0.06645,0.43192,5,2U1D,2.0,True,1.218,82,True,right,0.16612,0.3706,0.5207,0.1502,1.2874,1.6712,0.3838,A
557,0.49837,0.1,2,0.29902,0.29072,0.7974,557,2.30082,-0.162,-0.08306,0.41531,5,2D1U,2.0,False,1.73,72,True,right,-0.24919,1.4761,1.7507,0.2746,0.5674,0.5341,-0.0333,A
558,0.49837,0.1,2,0.29072,0.2741,0.77248,558,2.22606,-0.216,-0.10798,0.39039,5,2D1U,1.0,True,0.92,73,True,left,0.08306,1.6085,1.8576,0.2491,0.3908,0.6911,0.3004,A
559,0.49837,0.1,2,0.23257,0.2658,0.74756,559,2.17622,-0.132,-0.06645,0.43192,5,2U1D,1.0,True,1.573,82,True,left,-0.08306,1.4377,1.7295,0.2918,0.4129,0.5457,0.1328,A
560,0.49837,1.2,1,0.3987,0.39039,0.49837,560,2.25098,-0.078,-0.04153,0.46515,5,2U1D,2.0,True,0.375,82,False,right,0.16612,0.326,0.9426,0.6166,1.2837,2.1004,0.8166,A
561,0.49837,1.2,1,0.30733,0.22427,0.71433,561,2.13469,-0.216,-0.10798,0.39039,5,2D1U,1.0,False,0.641,73,True,left,-0.24919,0.2283,0.7698,0.5415,1.5367,1.9368,0.4001,A
562,0.49837,1.2,1,0.22427,0.41531,0.87215,562,2.37557,-0.27,-0.1329,0.36547,5,2D1U,2.0,True,0.457,73,False,right,0.08306,0.1478,0.6647,0.5169,1.4231,2.1565,0.7334,A
563,0.49837,1.2,2,0.20766,0.42362,0.89707,563,2.39219,-0.27,-0.1329,0.36547,5,2D1U,1.0,True,1.062,73,False,left,-0.08306,1.7199,2.012,0.292,0.1784,0.7447,0.5663,A
564,0.49837,0.1,2,0.43192,0.24919,0.81401,564,2.45864,-0.078,-0.04153,0.46515,5,2U1D,1.0,True,0.309,82,False,left,0.16612,1.8321,2.1566,0.3245,0.4904,0.8735,0.3831,A
565,0.49837,0.1,1,0.34055,0.41531,0.88046,565,2.62476,-0.024,-0.00831,0.49007,5,2U1D,2.0,True,0.371,82,False,right,-0.24919,0.482,0.6905,0.2085,1.8409,1.8074,-0.0335,A
566,0.49837,0.1,1,0.407,0.20766,0.88046,566,2.38388,-0.216,-0.10798,0.39039,5,2D1U,2.0,True,3.064,74,True,right,0.08306,0.5479,0.6563,0.1084,1.64,1.9398,0.2998,A
567,0.49837,0.1,1,0.25749,0.33225,0.86384,567,2.44202,-0.024,-0.00831,0.49007,5,2U1D,2.0,True,0.274,82,False,right,-0.08306,0.4009,0.6091,0.2082,1.6597,1.792,0.1323,A
568,0.49837,1.2,1,0.35717,0.22427,0.50668,568,1.97688,-0.216,-0.10798,0.39039,5,2D1U,2.0,True,2.184,74,True,right,0.16612,0.2846,0.8267,0.5421,1.1763,999,997.8237,A
569,0.49837,1.2,1,0.20766,0.28241,0.68941,569,2.19283,0.03,0.01661,0.51498,5,2U1D,1.0,True,0.274,82,False,left,-0.24919,0.1292,0.7962,0.667,1.5378,1.9378,0.4,A
570,0.49837,1.2,1,0.36547,0.3987,0.73095,570,2.50847,0.03,0.01661,0.51498,5,2U1D,2.0,False,0.391,82,False,right,0.08306,0.2906,0.9571,0.6665,1.5739,2.307,0.733,A
571,0.49837,1.2,2,0.21596,0.3987,0.88046,571,2.4088,-0.162,-0.08306,0.41531,5,2D1U,1.0,True,0.316,74,False,left,-0.08306,1.7042,2.0462,0.342,0.1796,0.7459,0.5663,A
572,0.49837,0.1,1,0.3987,0.32394,0.44853,572,2.20944,0.084,0.04153,0.5399,5,2U1D,1.0,True,1.624,83,True,left,0.16612,0.5402,0.7985,0.2584,1.3069,1.6904,0.3835,A
573,0.49837,0.1,2,0.24088,0.30733,0.73925,573,2.20114,-0.162,-0.08306,0.41531,5,2D1U,2.0,False,0.967,74,False,right,-0.24919,1.3578,1.6333,0.2755,0.5078,0.4746,-0.0331,A
574,0.49837,0.1,1,0.29902,0.35717,0.71433,574,2.40879,0.084,0.04153,0.5399,5,2U1D,2.0,False,2.033,83,True,right,0.08306,0.4439,0.7022,0.2583,1.5185,1.8189,0.3004,A
575,0.49837,0.1,2,0.37378,0.22427,0.70603,575,2.19284,-0.216,-0.10798,0.39039,5,2D1U,1.0,True,0.309,75,True,left,-0.08306,1.5401,1.7905,0.2504,0.5568,0.6911,0.1343,A
576,0.49837,1.2,2,0.2741,0.34055,0.55652,576,2.24267,0.138,0.06645,0.57313,5,2U1D,1.0,False,0.3,83,False,left,0.16612,1.5685,2.0681,0.4996,0.1182,0.9349,0.8167,A
577,0.49837,1.2,2,0.21596,0.41531,0.70603,577,2.43372,0.192,0.09967,0.59805,5,2U1D,2.0,True,0.207,83,False,right,-0.24919,1.4465,1.9716,0.5251,0.2633,0.6635,0.4003,A
578,0.49837,1.2,2,0.43192,0.34055,0.51498,578,2.38387,0.192,0.09967,0.59805,5,2U1D,2.0,True,0.233,83,False,right,0.08306,1.6421,2.1665,0.5244,0.3165,1.0499,0.7334,A
579,0.49837,1.2,1,0.32394,0.34886,0.47345,579,2.03501,-0.216,-0.10798,0.39039,5,2D1U,1.0,False,0.44,75,True,left,-0.08306,0.2476,0.7899,0.5423,1.2309,1.7979,0.567,A
580,0.49837,0.1,2,0.25749,0.43192,0.42362,580,1.97687,-0.27,-0.1329,0.36547,5,2D1U,1.0,True,0.294,75,False,left,0.16612,1.2651,1.4899,0.2248,0.3151,0.6988,0.3837,A
581,0.49837,0.1,1,0.23257,0.33225,0.51498,581,2.1513,0.138,0.06645,0.57313,5,2U1D,1.0,True,1.408,84,True,left,-0.24919,0.3738,0.6654,0.2917,1.4489,1.4156,-0.0333,A
582,0.49837,0.1,2,0.32394,0.24088,0.59805,582,2.02671,-0.27,-0.1329,0.36547,5,2D1U,1.0,True,0.658,75,False,left,0.08306,1.4651,1.6896,0.2245,0.4234,0.7234,0.3,A
583,0.49837,0.1,1,0.24919,0.34886,0.59805,583,2.08486,-0.216,-0.10798,0.39039,5,2D1U,2.0,True,0.116,76,True,right,-0.08306,0.3909,0.4996,0.1087,1.2825,1.4159,0.1334,A
584,0.49837,1.2,2,0.35717,0.41531,0.88046,584,2.72444,0.138,0.06645,0.57313,5,2U1D,1.0,False,0.617,84,True,left,0.16612,1.9762,2.4762,0.5,0.2012,1.0181,0.8169,A
585,0.49837,1.2,1,0.29902,0.38209,0.78909,585,2.35896,-0.216,-0.10798,0.39039,5,2D1U,2.0,True,0.502,76,True,right,-0.24919,0.2248,0.7663,0.5416,1.6078,2.0078,0.4,A
586,0.49837,1.2,1,0.32394,0.3987,0.83893,586,2.47525,-0.162,-0.08306,0.41531,5,2D1U,1.0,False,0.716,76,False,left,0.08306,0.2465,0.8131,0.5667,1.5381,2.2712,0.7331,A
587,0.49837,1.2,1,0.36547,0.36547,0.58143,587,2.20113,-0.216,-0.10798,0.39039,5,2D1U,2.0,True,0.342,77,True,right,-0.08306,0.2944,0.836,0.5416,1.3861,1.9527,0.5667,A
588,0.49837,0.1,1,0.33225,0.22427,0.6645,588,2.31744,0.192,0.09967,0.59805,5,2U1D,1.0,True,0.403,85,True,left,0.16612,0.4737,0.7905,0.3168,1.5153,1.8983,0.3831,A
589,0.49837,0.1,1,0.32394,0.34886,0.51498,589,2.2842,0.192,0.09967,0.59805,5,2U1D,1.0,True,0.291,85,True,left,-0.24919,0.4672,0.784,0.3168,1.5667,1.5341,-0.0326,A
590,0.49837,0.1,1,0.36547,0.31564,0.78909,590,2.5417,0.138,0.06645,0.57313,5,2U1D,2.0,False,0.487,86,True,right,0.08306,0.51,0.8017,0.2917,1.6937,1.9937,0.3001,A
591,0.49837,0.1,2,0.44023,0.32394,0.81401,591,2.46694,-0.216,-0.10798,0.39039,5,2D1U,1.0,True,0.309,77,True,left,-0.08306,1.7177,1.9681,0.2504,0.6269,0.76,0.1331,A
592,0.49837,1.2,1,0.2658,0.21596,0.44023,592,2.01841,0.192,0.09967,0.59805,5,2U1D,1.0,True,0.309,87,True,left,0.16612,0.1904,0.9404,0.7499,1.2245,999,997.7755,A
593,0.49837,1.2,2,0.38209,0.21596,0.47345,593,2.16792,0.192,0.09967,0.59805,5,2U1D,1.0,False,0.986,87,True,left,-0.24919,1.3812,1.9071,0.5259,0.4314,0.8316,0.4002,A
594,0.49837,1.2,1,0.36547,0.22427,0.54821,594,2.05163,-0.162,-0.08306,0.41531,5,2D1U,2.0,True,0.367,78,True,right,0.08306,0.2943,0.8609,0.5665,1.2935,2.0278,0.7344,A
595,0.49837,1.2,2,0.36547,0.22427,0.88046,595,2.59154,0.246,0.12459,0.62297,5,2U1D,2.0,True,0.423,87,False,right,-0.08306,1.8555,2.4058,0.5503,0.3305,0.8973,0.5668,A
596,0.49837,0.1,2,0.37378,0.29072,0.44023,596,2.22607,0.246,0.12459,0.62297,5,2U1D,2.0,True,1.729,87,False,right,0.16612,1.3959,1.8796,0.4836,0.4293,0.8126,0.3833,A
597,0.49837,0.1,1,0.24088,0.33225,0.44023,597,1.92704,-0.162,-0.08306,0.41531,5,2D1U,2.0,True,0.283,78,True,right,-0.24919,0.3798,0.5127,0.1329,1.2213,1.1881,-0.0332,A
598,0.49837,0.1,2,0.37378,0.43192,0.49837,598,2.40049,0.192,0.09967,0.59805,5,2U1D,2.0,True,0.113,88,True,right,0.08306,1.4151,1.8725,0.4573,0.4731,0.7728,0.2997,A
599,0.49837,0.1,2,0.24919,0.39039,0.41531,599,2.00179,-0.108,-0.05814,0.44853,5,2D1U,1.0,True,0.403,78,False,left,-0.08306,1.1276,1.4361,0.3085,0.4364,0.569,0.1326,A
600,0.49837,1.2,2,0.32394,0.31564,0.60635,600,2.19283,-0.108,-0.05814,0.44853,5,2D1U,1.0,True,0.391,78,False,left,0.16612,1.6667,2.0415,0.3748,0.1667,0.9841,0.8174,A
601,0.49837,1.2,1,0.38209,0.37378,0.68941,601,2.5417,0.192,0.09967,0.59805,5,2U1D,1.0,True,0.454,88,True,left,-0.24919,0.3081,1.0573,0.7492,1.7994,2.1993,0.3998,A
