,standardDur,audNoise,order,preDur,postDur,isiDur,trial_num,totalDur,delta_dur_percents,deltaDurS,testDurS,intensities,current_stair,responses,is_correct,response_rts,stair_num_reversal,stair_is_reversal,response_keys,conflictDur,recordedOnsetVisualTest,recordedOffsetVisualTest,recordedDurVisualTest,recordedOnsetVisualStandard,recordedOffsetVisualStandard,recordedDurVisualStandard,modalityCue
0,0.50119,1.2,2,0.23389,0.22554,0.66826,0,1.77924,-0.7,-0.35083,0.15036,5,2U1D,1.0,True,0.389,0,False,left,0.2506,1.6017,1.7092,0.1075,0.0758,0.9009,0.8251,A
1,0.50119,1.2,2,0.20883,0.32577,0.58472,1,2.47254,0.7,0.35083,0.85203,5,2D1U,2.0,True,0.297,0,False,right,-0.2506,1.2444,2.0519,0.8075,0.3021,0.6264,0.3242,A
2,0.50119,1.2,1,0.42601,0.40095,0.77685,2,2.95703,0.7,0.35083,0.85203,5,2D1U,1.0,True,0.335,0,False,left,0.0,0.3927,1.3186,0.9259,2.0603,2.6344,0.5741,A
3,0.50119,1.2,2,0.20883,0.42601,0.70167,3,1.98806,-0.7,-0.35083,0.15036,5,2U1D,1.0,True,0.269,0,False,left,-0.16706,1.3979,1.5067,0.1087,0.2563,0.6653,0.409,A
4,0.50119,1.2,2,0.31742,0.3926,0.45107,4,1.76252,-0.8,-0.40095,0.10024,5,lapse_rate,1.0,True,0.371,0,False,left,0.2506,1.4639,1.5221,0.0581,0.1553,0.9798,0.8245,A
5,0.50119,0.1,1,0.34248,0.41766,0.50119,5,1.98806,-0.55,-0.27566,0.22554,5,2U1D,2.0,True,0.746,0,False,right,-0.2506,0.4059,0.4887,0.0828,1.1803,1.2894,0.1091,A
6,0.50119,1.2,1,0.36754,0.28401,0.80191,6,2.8568,0.8,0.40095,0.90215,5,lapse_rate,1.0,True,0.288,0,False,left,0.0,0.3357,1.3103,0.9746,2.0773,2.6518,0.5746,A
7,0.50119,0.1,1,0.38425,0.32577,0.76849,7,2.75655,0.55,0.27566,0.77685,5,2D1U,1.0,True,0.495,0,False,left,-0.16706,0.4521,1.0858,0.6337,2.0023,2.1937,0.1914,A
8,0.50119,1.2,2,0.23389,0.2506,0.79355,8,1.87947,-0.8,-0.40095,0.10024,5,lapse_rate,1.0,True,0.401,0,False,left,0.2506,1.7232,1.7815,0.0582,0.0727,0.8977,0.825,A
9,0.50119,0.1,2,0.36754,0.34248,0.7852,9,2.77326,0.55,0.27566,0.77685,5,2D1U,2.0,True,2.825,0,False,right,-0.2506,1.5197,2.2201,0.7005,0.5614,0.6697,0.1083,A
10,0.50119,0.1,2,0.2673,0.3926,0.71838,10,2.10501,-0.55,-0.27566,0.22554,5,2U1D,1.0,True,7.008,0,False,left,0.0,1.4713,1.6218,0.1505,0.33,0.6882,0.3582,A
11,0.50119,1.2,2,0.31742,0.22554,0.68496,11,2.02983,-0.4,-0.20048,0.30072,5,2U1D,1.0,True,0.333,0,False,left,-0.16706,1.4916,1.7504,0.2587,0.3672,0.775,0.4078,A
12,0.50119,0.1,2,0.38425,0.23389,0.52625,12,2.54773,0.8,0.40095,0.90215,5,lapse_rate,2.0,True,2.062,0,False,right,0.2506,1.522,2.3466,0.8246,0.3227,0.9304,0.6077,A
13,0.50119,1.2,2,0.35919,0.44272,0.85203,13,2.8568,0.4,0.20048,0.70167,5,2D1U,2.0,True,1.313,0,False,right,-0.2506,1.6568,2.3154,0.6586,0.4481,0.7734,0.3253,A
14,0.50119,1.2,1,0.30907,0.24224,0.82697,14,2.58114,0.4,0.20048,0.70167,5,2D1U,1.0,True,0.422,0,False,left,0.0,0.2716,1.0467,0.7751,1.8387,2.4131,0.5744,A
15,0.50119,1.2,1,0.41766,0.23389,0.66826,15,2.12172,-0.4,-0.20048,0.30072,5,2U1D,2.0,True,0.741,0,False,right,-0.16706,0.3801,0.7558,0.3757,1.4724,1.88,0.4076,A
16,0.50119,1.2,2,0.32577,0.30072,0.88544,16,2.91527,0.8,0.40095,0.90215,5,lapse_rate,2.0,True,0.368,0,False,right,0.2506,1.9065,2.7647,0.8583,0.1649,0.9898,0.8249,A
17,0.50119,1.2,1,0.3926,0.35919,0.45107,17,2.6062,0.8,0.40095,0.90215,5,lapse_rate,1.0,True,0.29,0,False,left,-0.2506,0.3537,1.3289,0.9752,1.8705,2.1946,0.3241,A
18,0.50119,0.1,2,0.40095,0.23389,0.55131,18,2.31383,0.25,0.1253,0.62649,5,2D1U,1.0,False,1.974,0,False,left,0.0,1.4435,1.9942,0.5507,0.4686,0.8275,0.3589,A
19,0.50119,0.1,1,0.22554,0.41766,0.58472,19,2.105,-0.25,-0.1253,0.37589,5,2U1D,1.0,False,1.531,0,False,left,-0.16706,0.2934,0.5267,0.2334,1.2598,1.4517,0.1919,A
20,0.50119,0.1,1,0.33413,0.20883,0.71002,20,2.0883,-0.34,-0.16706,0.33413,5,2U1D,2.0,True,0.341,1,True,right,0.2506,0.3957,0.5882,0.1925,1.2376,1.8461,0.6085,A
21,0.50119,0.1,2,0.42601,0.20883,0.5179,21,2.32219,0.34,0.16706,0.66826,5,2D1U,2.0,True,0.338,1,True,right,-0.2506,1.3113,1.9033,0.592,0.6191,0.7272,0.1081,A
22,0.50119,1.2,2,0.40095,0.20883,0.56802,22,2.58114,0.8,0.40095,0.90215,5,lapse_rate,2.0,True,1.317,0,False,right,0.0,1.5388,2.3971,0.8583,0.3639,0.9384,0.5745,A
23,0.50119,1.2,2,0.29236,0.20883,0.59308,23,1.92959,-0.34,-0.16706,0.33413,5,2U1D,1.0,True,0.304,1,True,left,-0.16706,1.3744,1.6652,0.2908,0.3405,0.7486,0.4081,A
24,0.50119,1.2,1,0.35919,0.29236,0.63484,24,2.45584,0.34,0.16706,0.66826,5,2D1U,1.0,True,0.288,1,True,left,0.2506,0.3201,1.062,0.7419,1.5368,2.3615,0.8247,A
25,0.50119,0.1,2,0.30072,0.3926,0.54296,25,1.83771,-0.8,-0.40095,0.10024,5,lapse_rate,1.0,True,0.571,0,False,left,-0.2506,1.2111,1.2372,0.0261,0.4941,0.6023,0.1082,A
26,0.50119,1.2,2,0.41766,0.35083,0.83532,26,2.46419,-0.286,-0.142,0.35919,5,2U1D,1.0,True,0.325,2,True,left,0.0,1.8202,2.1371,0.3169,0.3794,0.9538,0.5743,A
27,0.50119,1.2,1,0.42601,0.2673,0.54296,27,2.38066,0.286,0.142,0.6432,5,2D1U,1.0,True,0.284,2,True,left,-0.16706,0.395,1.1115,0.7165,1.7032,2.1116,0.4083,A
28,0.50119,0.1,1,0.42601,0.30072,0.76014,28,2.89021,0.8,0.40095,0.90215,5,lapse_rate,1.0,True,0.225,0,False,left,0.2506,0.4927,1.2502,0.7576,1.9499,2.5589,0.609,A
29,0.50119,0.1,1,0.37589,0.43437,0.50955,29,2.18019,-0.286,-0.142,0.35919,5,2U1D,1.0,False,0.333,2,True,left,-0.2506,0.4363,0.653,0.2167,1.3538,1.4614,0.1077,A
30,0.50119,0.1,2,0.25895,0.33413,0.84367,30,2.84009,0.8,0.40095,0.90215,5,lapse_rate,2.0,True,0.283,0,False,right,0.0,1.5925,2.4176,0.8251,0.3264,0.6843,0.3578,A
31,0.50119,0.1,2,0.41766,0.25895,0.52625,31,2.34725,0.286,0.142,0.6432,5,2D1U,2.0,True,0.562,2,True,right,-0.16706,1.3465,1.9133,0.5668,0.5628,0.7546,0.1917,A
32,0.50119,0.1,1,0.2506,0.21718,0.57637,32,2.44749,0.8,0.40095,0.90215,5,lapse_rate,1.0,True,0.272,0,False,left,0.2506,0.3166,1.0756,0.759,1.5923,2.1998,0.6076,A
33,0.50119,0.1,1,0.2506,0.24224,0.66826,33,2.28043,0.232,0.11694,0.61814,5,2D1U,1.0,True,0.331,2,False,left,-0.2506,0.3144,0.7898,0.4753,1.6477,1.7573,0.1096,A
34,0.50119,0.1,2,0.43437,0.42601,0.76014,34,2.45584,-0.34,-0.16706,0.33413,5,2U1D,1.0,True,0.241,3,True,left,0.0,1.6806,1.9391,0.2585,0.4971,0.8554,0.3583,A
35,0.50119,1.2,2,0.45107,0.20883,0.70167,35,2.76491,0.8,0.40095,0.90215,5,lapse_rate,2.0,True,0.326,0,False,right,-0.16706,1.6391,2.4971,0.8581,0.4982,0.9061,0.4079,A
36,0.50119,1.2,2,0.30072,0.41766,0.43437,36,1.98807,-0.34,-0.16706,0.33413,5,2U1D,1.0,True,0.239,3,True,left,0.2506,1.4335,1.7249,0.2915,0.1419,0.9671,0.8252,A
37,0.50119,1.2,2,0.42601,0.24224,0.70167,37,2.48925,0.232,0.11694,0.61814,5,2D1U,2.0,True,0.302,2,False,right,-0.2506,1.5713,2.1463,0.575,0.5136,0.8381,0.3246,A
38,0.50119,1.2,2,0.20883,0.23389,0.66826,38,1.71241,-0.8,-0.40095,0.10024,5,lapse_rate,1.0,True,0.299,0,False,left,0.0,1.4454,1.5043,0.0588,0.1714,0.7455,0.5741,A
39,0.50119,1.2,2,0.33413,0.38425,0.6599,39,2.23866,-0.286,-0.142,0.35919,5,2U1D,1.0,True,0.246,4,True,left,-0.16706,1.4784,1.7955,0.3171,0.3782,0.787,0.4088,A
40,0.50119,1.2,1,0.40931,0.28401,0.87709,40,2.66468,0.178,0.09189,0.59308,5,2D1U,1.0,True,0.349,2,False,left,0.2506,0.3709,1.0377,0.6668,1.755,2.5793,0.8243,A
41,0.50119,0.1,2,0.27566,0.35919,0.62649,41,2.35561,0.178,0.09189,0.59308,5,2D1U,2.0,True,0.949,2,False,right,-0.2506,1.2664,1.7833,0.5169,0.4668,0.5754,0.1086,A
42,0.50119,0.1,1,0.35919,0.28401,0.67661,42,2.72315,0.8,0.40095,0.90215,5,lapse_rate,1.0,True,0.254,0,False,left,0.0,0.4215,1.1799,0.7584,1.922,2.28,0.358,A
43,0.50119,0.1,2,0.33413,0.20883,0.77685,43,2.18019,-0.286,-0.142,0.35919,5,2U1D,1.0,True,0.808,4,True,left,-0.16706,1.5141,1.7975,0.2833,0.4811,0.6724,0.1913,A
44,0.50119,0.1,1,0.20883,0.20883,0.70167,44,2.18018,0.124,0.05847,0.55966,5,2D1U,1.0,True,1.492,2,False,left,0.2506,0.2766,0.6936,0.4169,1.3359,1.9436,0.6077,A
45,0.50119,0.1,1,0.44272,0.35919,0.86038,45,2.26372,-0.8,-0.40095,0.10024,5,lapse_rate,2.0,True,0.254,0,False,right,-0.2506,0.5051,0.464,-0.0412,1.5146,1.6226,0.108,A
46,0.50119,0.1,1,0.32577,0.40931,0.55966,46,2.18018,-0.232,-0.11694,0.38425,5,2U1D,1.0,False,0.365,4,False,left,0.0,0.3887,0.6309,0.2422,1.256,1.6142,0.3582,A
47,0.50119,1.2,1,0.31742,0.40931,0.76849,47,2.55607,0.124,0.05847,0.55966,5,2D1U,1.0,True,0.245,2,False,left,-0.16706,0.2807,0.9137,0.6329,1.731,2.139,0.408,A
48,0.50119,1.2,1,0.37589,0.42601,0.55131,48,2.21359,-0.286,-0.142,0.35919,5,2U1D,1.0,False,0.734,5,True,left,0.2506,0.3425,0.7767,0.4342,1.168,1.9935,0.8256,A
49,0.50119,0.1,1,0.24224,0.25895,0.44272,49,2.34725,0.8,0.40095,0.90215,5,lapse_rate,1.0,True,0.413,0,False,left,-0.2506,0.3035,1.0619,0.7585,1.6957,1.8037,0.108,A
50,0.50119,1.2,2,0.38425,0.37589,0.85203,50,2.44749,-0.34,-0.16706,0.33413,5,2U1D,1.0,True,0.274,5,False,left,0.0,1.8034,2.0957,0.2923,0.346,0.9211,0.5751,A
51,0.50119,1.2,2,0.38425,0.28401,0.87709,51,2.58114,0.07,0.03341,0.5346,5,2D1U,1.0,False,0.959,2,False,left,-0.16706,1.7504,2.2414,0.491,0.4332,0.8414,0.4081,A
52,0.50119,0.1,2,0.36754,0.31742,0.55966,52,1.84605,-0.8,-0.40095,0.10024,5,lapse_rate,1.0,True,0.239,0,False,left,0.2506,1.5434,1.5698,0.0264,0.3108,0.9187,0.6079,A
53,0.50119,0.1,1,0.31742,0.20048,0.85203,53,1.97136,-0.8,-0.40095,0.10024,5,lapse_rate,2.0,True,0.392,0,False,right,-0.2506,0.3819,0.3406,-0.0413,1.382,1.4903,0.1083,A
54,0.50119,0.1,2,0.35083,0.28401,0.44272,54,2.13841,0.124,0.05847,0.55966,5,2D1U,1.0,False,1.893,3,True,left,0.0,1.2861,1.77,0.484,0.4199,0.7777,0.3578,A
55,0.50119,0.1,1,0.3926,0.43437,0.65155,55,2.31384,-0.34,-0.16706,0.33413,5,2U1D,2.0,True,0.289,5,False,right,-0.16706,0.4576,0.6492,0.1916,1.4489,1.6402,0.1912,A
56,0.50119,0.1,2,0.2673,0.28401,0.61814,56,2.26372,0.178,0.09189,0.59308,5,2D1U,2.0,True,1.25,3,False,right,0.2506,1.5009,2.018,0.5171,0.2094,0.8187,0.6093,A
57,0.50119,1.2,1,0.29236,0.42601,0.70167,57,2.82338,0.8,0.40095,0.90215,5,lapse_rate,1.0,True,0.205,0,False,left,-0.2506,0.2566,1.2313,0.9747,2.0234,2.3483,0.3249,A
58,0.50119,0.1,2,0.33413,0.20048,0.5346,58,1.92959,-0.286,-0.142,0.35919,5,2U1D,1.0,True,0.345,6,True,left,0.0,1.3604,1.6437,0.2834,0.4017,0.7605,0.3587,A
59,0.50119,1.2,1,0.41766,0.24224,0.85203,59,2.11336,-0.8,-0.40095,0.10024,5,lapse_rate,2.0,True,1.176,0,False,right,-0.16706,0.3818,0.5555,0.1737,1.4559,1.8638,0.4078,A
60,0.50119,1.2,1,0.43437,0.31742,0.49284,60,2.10501,-0.286,-0.142,0.35919,5,2U1D,2.0,True,0.393,6,True,right,0.2506,0.3978,0.8317,0.4339,1.1647,1.9904,0.8257,A
61,0.50119,1.2,1,0.42601,0.35919,0.43437,61,2.31384,0.178,0.09189,0.59308,5,2D1U,2.0,False,1.371,3,False,right,-0.2506,0.3906,1.057,0.6664,1.5817,1.9061,0.3244,A
62,0.50119,1.2,2,0.34248,0.35919,0.40095,62,2.22195,0.232,0.11694,0.61814,5,2D1U,2.0,True,0.237,3,False,right,0.0,1.3129,1.8874,0.5745,0.3047,0.879,0.5744,A
63,0.50119,0.1,2,0.43437,0.37589,0.54296,63,1.95465,-0.8,-0.40095,0.10024,5,lapse_rate,1.0,True,0.276,0,False,left,-0.16706,1.3813,1.4062,0.025,0.582,0.7733,0.1913,A
64,0.50119,1.2,1,0.33413,0.24224,0.76849,64,2.2303,-0.232,-0.11694,0.38425,5,2U1D,1.0,False,1.376,6,False,left,0.2506,0.2972,0.7556,0.4585,1.3636,2.1884,0.8248,A
65,0.50119,0.1,1,0.40095,0.30907,0.5179,65,2.0883,-0.286,-0.142,0.35919,5,2U1D,2.0,True,0.532,7,True,right,-0.2506,0.4649,0.6814,0.2165,1.3891,1.4977,0.1086,A
66,0.50119,1.2,1,0.20883,0.24224,0.62649,66,1.67899,-0.8,-0.40095,0.10024,5,lapse_rate,2.0,True,0.293,0,False,right,0.0,0.1762,0.351,0.1748,0.9433,1.5177,0.5744,A
67,0.50119,0.1,1,0.40095,0.41766,0.5346,67,2.47254,0.232,0.11694,0.61814,5,2D1U,1.0,True,1.283,3,False,left,-0.16706,0.465,0.9396,0.4747,1.6236,1.8152,0.1916,A
68,0.50119,0.1,2,0.29236,0.21718,0.50955,68,2.11336,0.178,0.09189,0.59308,5,2D1U,1.0,False,0.622,4,True,left,0.2506,1.4122,1.9299,0.5177,0.2296,0.8381,0.6085,A
69,0.50119,0.1,2,0.37589,0.2673,0.49284,69,1.99641,-0.286,-0.142,0.35919,5,2U1D,1.0,True,0.323,7,True,left,-0.2506,1.2317,1.5154,0.2838,0.565,0.6734,0.1084,A
70,0.50119,1.2,1,0.45107,0.35083,0.41766,70,1.82099,-0.8,-0.40095,0.10024,5,lapse_rate,2.0,True,0.315,0,False,right,0.0,0.4166,0.5917,0.1751,0.9746,1.5494,0.5748,A
71,0.50119,1.2,1,0.33413,0.25895,0.63484,71,1.82935,-0.8,-0.40095,0.10024,5,lapse_rate,2.0,True,0.449,0,False,right,-0.16706,0.3005,0.4748,0.1743,1.1586,1.567,0.4083,A
72,0.50119,1.2,1,0.30072,0.43437,0.49284,72,2.11337,-0.232,-0.11694,0.38425,5,2U1D,2.0,True,1.131,8,True,right,0.2506,0.2643,0.7223,0.458,1.0561,1.8809,0.8248,A
73,0.50119,1.2,2,0.41766,0.2506,0.85203,73,2.63962,0.232,0.11694,0.61814,5,2D1U,2.0,True,0.476,5,True,right,-0.2506,1.7198,2.2938,0.574,0.5108,0.8358,0.325,A
74,0.50119,1.2,2,0.35919,0.30072,0.76849,74,2.54773,0.232,0.11694,0.61814,5,2D1U,2.0,True,0.928,5,True,right,0.0,1.6964,2.2721,0.5757,0.3213,0.8965,0.5752,A
75,0.50119,1.2,2,0.2673,0.28401,0.81026,75,2.76491,0.8,0.40095,0.90215,5,lapse_rate,2.0,True,0.311,0,False,right,-0.16706,1.5667,2.4253,0.8585,0.3172,0.7259,0.4087,A
76,0.50119,1.2,1,0.2506,0.3926,0.52625,76,2.05489,-0.232,-0.11694,0.38425,5,2U1D,1.0,False,0.255,8,True,left,0.2506,0.2133,0.6719,0.4586,1.0381,1.8631,0.8249,A
77,0.50119,0.1,2,0.40095,0.31742,0.57637,77,2.69808,0.8,0.40095,0.90215,5,lapse_rate,2.0,True,0.53,0,False,right,-0.2506,1.3374,2.1621,0.8247,0.5871,0.6952,0.1081,A
78,0.50119,0.1,2,0.44272,0.42601,0.54296,78,2.50596,0.178,0.09189,0.59308,5,2D1U,1.0,False,0.215,6,True,left,0.0,1.4729,1.9894,0.5164,0.5068,0.8648,0.358,A
79,0.50119,0.1,1,0.31742,0.27566,0.55966,79,2.01312,-0.286,-0.142,0.35919,5,2U1D,2.0,True,0.733,9,True,right,-0.16706,0.3861,0.6031,0.2169,1.3109,1.5029,0.192,A
80,0.50119,0.1,1,0.25895,0.40931,0.65155,80,2.18019,-0.286,-0.142,0.35919,5,2U1D,2.0,True,1.167,9,True,right,0.2506,0.3272,0.5445,0.2173,1.1358,1.7447,0.6088,A
81,0.50119,0.1,1,0.37589,0.31742,0.79355,81,2.60619,0.232,0.11694,0.61814,5,2D1U,1.0,True,0.364,7,True,left,-0.2506,0.4445,0.9186,0.4741,1.9019,2.0103,0.1084,A
82,0.50119,1.2,2,0.20048,0.2673,0.82697,82,2.69809,0.8,0.40095,0.90215,5,lapse_rate,2.0,True,0.331,0,False,right,0.0,1.6009,2.4596,0.8587,0.1683,0.7423,0.574,A
83,0.50119,1.2,2,0.40931,0.20883,0.46778,83,2.20525,0.232,0.11694,0.61814,5,2D1U,1.0,False,0.321,7,True,left,-0.16706,1.3658,1.9404,0.5745,0.4572,0.8658,0.4086,A
84,0.50119,0.1,2,0.25895,0.3926,0.63484,84,1.88782,-0.8,-0.40095,0.10024,5,lapse_rate,1.0,True,0.289,0,False,left,0.2506,1.51,1.535,0.025,0.2018,0.8096,0.6078,A
85,0.50119,1.2,1,0.34248,0.31742,0.83532,85,2.38066,-0.232,-0.11694,0.38425,5,2U1D,1.0,False,0.283,10,True,left,-0.2506,0.3107,0.7692,0.4585,1.6937,2.0192,0.3255,A
86,0.50119,0.1,2,0.33413,0.41766,0.57637,86,1.92959,-0.8,-0.40095,0.10024,5,lapse_rate,1.0,True,0.283,0,False,left,0.0,1.4029,1.427,0.0241,0.4024,0.7602,0.3578,A
87,0.50119,1.2,1,0.30072,0.40931,0.86038,87,2.7148,0.286,0.142,0.6432,5,2D1U,1.0,True,0.796,7,False,left,-0.16706,0.2683,0.9853,0.717,1.8932,2.3016,0.4084,A
88,0.50119,1.2,1,0.27566,0.3926,0.46778,88,1.99642,-0.286,-0.142,0.35919,5,2U1D,2.0,True,0.211,11,True,right,0.2506,0.2373,0.6698,0.4325,0.9788,1.8031,0.8243,A
89,0.50119,0.1,2,0.35083,0.2506,0.60978,89,2.3556,0.286,0.142,0.6432,5,2D1U,2.0,True,0.686,7,False,right,-0.2506,1.3228,1.8892,0.5664,0.5392,0.6473,0.1081,A
90,0.50119,0.1,2,0.38425,0.3926,0.70167,90,2.3389,-0.286,-0.142,0.35919,5,2U1D,1.0,True,0.553,11,True,left,0.0,1.5727,1.8558,0.2831,0.448,0.8059,0.3579,A
91,0.50119,0.1,1,0.37589,0.2673,0.57637,91,2.6229,0.8,0.40095,0.90215,5,lapse_rate,1.0,True,0.365,0,False,left,-0.16706,0.4387,1.1968,0.7581,1.9223,2.1146,0.1924,A
92,0.50119,0.1,2,0.2673,0.21718,0.45943,92,2.06324,0.232,0.11694,0.61814,5,2D1U,2.0,True,0.249,8,True,right,0.2506,1.3421,1.8833,0.5411,0.2088,0.8168,0.608,A
93,0.50119,0.1,2,0.22554,0.44272,0.80191,93,2.0716,-0.8,-0.40095,0.10024,5,lapse_rate,1.0,True,0.292,0,False,left,-0.2506,1.3867,1.4116,0.0249,0.4121,0.5198,0.1077,A
94,0.50119,0.1,2,0.21718,0.3926,0.74343,94,2.23865,-0.232,-0.11694,0.38425,5,2U1D,1.0,True,0.276,12,True,left,0.0,1.4491,1.7569,0.3078,0.2822,0.6403,0.358,A
95,0.50119,1.2,1,0.23389,0.30907,0.81861,95,2.4809,0.232,0.11694,0.61814,5,2D1U,1.0,True,0.284,8,True,left,-0.16706,0.1966,0.8887,0.6921,1.7554,2.1631,0.4077,A
96,0.50119,1.2,2,0.40931,0.33413,0.62649,96,2.25537,-0.232,-0.11694,0.38425,5,2U1D,1.0,True,0.311,12,True,left,0.2506,1.7357,2.077,0.3413,0.252,1.077,0.825,A
97,0.50119,0.1,1,0.29236,0.32577,0.40095,97,1.62051,-0.8,-0.40095,0.10024,5,lapse_rate,2.0,True,0.338,0,False,right,-0.2506,0.3536,0.312,-0.0417,0.9041,1.0123,0.1082,A
98,0.50119,0.1,2,0.30072,0.41766,0.61814,98,1.93795,-0.8,-0.40095,0.10024,5,lapse_rate,1.0,True,0.221,0,False,left,0.0,1.411,1.436,0.025,0.3692,0.7283,0.3591,A
99,0.50119,1.2,1,0.32577,0.43437,0.60978,99,2.46419,0.178,0.09189,0.59308,5,2D1U,1.0,True,0.232,8,False,left,-0.16706,0.2874,0.9537,0.6663,1.6129,2.0204,0.4075,A
100,0.50119,1.2,1,0.22554,0.44272,0.58472,100,2.16348,-0.178,-0.09189,0.40931,5,2U1D,2.0,True,0.217,12,False,right,0.2506,0.1926,0.6765,0.4839,1.101,1.9263,0.8254,A
101,0.50119,0.1,1,0.21718,0.30072,0.69332,101,1.81265,-0.8,-0.40095,0.10024,5,lapse_rate,2.0,True,0.134,0,False,right,-0.2506,0.2788,0.2372,-0.0417,1.1204,1.2289,0.1085,A
102,0.50119,0.1,1,0.22554,0.27566,0.63484,102,2.23031,0.178,0.09189,0.59308,5,2D1U,1.0,True,0.257,8,False,left,0.0,0.2943,0.744,0.4497,1.4438,1.8026,0.3588,A
103,0.50119,0.1,1,0.44272,0.35083,0.47613,103,2.18018,-0.178,-0.09189,0.40931,5,2U1D,1.0,False,0.291,12,False,left,-0.16706,0.505,0.7713,0.2664,1.3965,1.588,0.1915,A
104,0.50119,0.1,1,0.36754,0.2506,0.6432,104,2.32219,0.124,0.05847,0.55966,5,2D1U,1.0,True,0.348,8,False,left,0.2506,0.4301,0.8476,0.4175,1.4301,2.039,0.6089,A
105,0.50119,0.1,2,0.41766,0.21718,0.55131,105,2.07159,-0.232,-0.11694,0.38425,5,2U1D,1.0,True,0.372,13,True,left,-0.2506,1.3345,1.6429,0.3084,0.6096,0.7184,0.1088,A
106,0.50119,1.2,1,0.33413,0.28401,0.47613,106,2.49761,0.8,0.40095,0.90215,5,lapse_rate,1.0,True,0.216,0,False,left,0.0,0.3013,1.2761,0.9748,1.7176,2.2931,0.5755,A
107,0.50119,1.2,2,0.23389,0.37589,0.86873,107,2.53936,0.124,0.05847,0.55966,5,2D1U,1.0,False,0.775,8,False,left,-0.16706,1.5931,2.1093,0.5162,0.2848,0.6933,0.4084,A
108,0.50119,1.2,2,0.23389,0.40095,0.6432,108,2.16348,-0.232,-0.11694,0.38425,5,2U1D,1.0,True,0.125,13,True,left,0.2506,1.5728,1.9148,0.342,0.0727,0.8981,0.8254,A
109,0.50119,1.2,1,0.36754,0.44272,0.44272,109,2.65632,0.8,0.40095,0.90215,5,lapse_rate,1.0,True,0.269,0,False,left,-0.2506,0.3315,1.3066,0.9751,1.8391,2.1639,0.3248,A
110,0.50119,1.2,2,0.25895,0.31742,0.65155,110,2.63126,0.8,0.40095,0.90215,5,lapse_rate,2.0,True,0.284,0,False,right,0.0,1.4804,2.339,0.8587,0.2218,0.7967,0.5749,A
111,0.50119,1.2,2,0.30072,0.34248,0.68496,111,2.23866,-0.178,-0.09189,0.40931,5,2U1D,1.0,True,0.286,14,True,left,-0.16706,1.476,1.8426,0.3666,0.3508,0.7596,0.4088,A
112,0.50119,1.2,1,0.2506,0.24224,0.87709,112,2.4642,0.178,0.09189,0.59308,5,2D1U,1.0,True,0.324,9,True,left,0.2506,0.2184,0.8852,0.6668,1.6021,2.4271,0.825,A
113,0.50119,0.1,2,0.3926,0.22554,0.49284,113,2.02148,-0.178,-0.09189,0.40931,5,2U1D,1.0,True,0.358,14,True,left,-0.2506,1.2468,1.5801,0.3333,0.5796,0.6884,0.1088,A
114,0.50119,0.1,2,0.21718,0.27566,0.44272,114,2.3389,0.8,0.40095,0.90215,5,lapse_rate,2.0,True,0.29,0,False,right,0.0,1.1466,1.9719,0.8253,0.2803,0.6377,0.3574,A
115,0.50119,0.1,2,0.29236,0.42601,0.60978,115,2.42242,0.178,0.09189,0.59308,5,2D1U,1.0,False,0.279,9,True,left,-0.16706,1.3077,1.824,0.5163,0.4409,0.6321,0.1911,A
116,0.50119,0.1,1,0.31742,0.35083,0.72673,116,2.33054,-0.124,-0.05847,0.43437,5,2U1D,1.0,False,0.507,14,False,left,0.2506,0.3797,0.6719,0.2922,1.3384,1.9464,0.6079,A
117,0.50119,0.1,2,0.40095,0.20883,0.80191,117,2.01312,-0.8,-0.40095,0.10024,5,lapse_rate,1.0,True,0.346,0,False,left,-0.2506,1.5647,1.589,0.0243,0.5896,0.6976,0.108,A
118,0.50119,0.1,1,0.28401,0.35083,0.5346,118,2.28877,0.232,0.11694,0.61814,5,2D1U,1.0,True,0.295,9,False,left,0.0,0.3506,0.8261,0.4755,1.4259,1.7848,0.3589,A
119,0.50119,0.1,2,0.32577,0.3926,0.71002,119,2.02982,-0.8,-0.40095,0.10024,5,lapse_rate,1.0,True,0.334,0,False,left,-0.16706,1.4415,1.4662,0.0247,0.475,0.6664,0.1914,A
120,0.50119,1.2,1,0.22554,0.44272,0.72673,120,2.30549,-0.178,-0.09189,0.40931,5,2U1D,1.0,False,3.334,15,True,left,0.2506,0.1897,0.6728,0.4831,1.2397,2.0641,0.8244,A
121,0.50119,1.2,1,0.20883,0.38425,0.74343,121,2.45584,0.232,0.11694,0.61814,5,2D1U,1.0,True,1.078,9,False,left,-0.2506,0.1718,0.8642,0.6924,1.6975,2.0227,0.3252,A
122,0.50119,1.2,1,0.2673,0.2506,0.6599,122,2.27207,0.178,0.09189,0.59308,5,2D1U,1.0,True,1.05,10,True,left,0.0,0.2297,0.8958,0.6661,1.5207,2.0958,0.5752,A
123,0.50119,1.2,2,0.33413,0.41766,0.84367,123,2.4809,-0.232,-0.11694,0.38425,5,2U1D,1.0,True,0.221,15,False,left,-0.16706,1.6667,2.0081,0.3414,0.3828,0.792,0.4092,A
124,0.50119,0.1,2,0.35083,0.23389,0.72673,124,2.71479,0.8,0.40095,0.90215,5,lapse_rate,2.0,True,0.312,0,False,right,0.2506,1.6872,2.5115,0.8243,0.2871,0.8956,0.6085,A
125,0.50119,0.1,1,0.28401,0.41766,0.89379,125,2.4809,-0.232,-0.11694,0.38425,5,2U1D,1.0,False,0.325,15,False,left,-0.2506,0.3522,0.5944,0.2422,1.6774,1.786,0.1086,A
126,0.50119,1.2,2,0.35083,0.33413,0.42601,126,2.51431,0.8,0.40095,0.90215,5,lapse_rate,1.0,False,0.583,0,False,left,0.0,1.3467,2.2058,0.8591,0.3133,0.889,0.5756,A
127,0.50119,0.1,2,0.23389,0.2673,0.49284,127,2.0883,0.178,0.09189,0.59308,5,2D1U,1.0,False,0.636,10,True,left,-0.16706,1.1356,1.6526,0.517,0.3855,0.5778,0.1922,A
128,0.50119,0.1,2,0.29236,0.24224,0.6432,128,2.29713,0.232,0.11694,0.61814,5,2D1U,2.0,True,0.342,11,True,right,0.2506,1.5515,2.0928,0.5413,0.2344,0.8426,0.6082,A
129,0.50119,1.2,2,0.2506,0.35083,0.81861,129,2.82338,0.8,0.40095,0.90215,5,lapse_rate,1.0,False,6.067,0,False,left,-0.2506,1.5136,2.372,0.8584,0.3386,0.6642,0.3256,A
130,0.50119,0.1,2,0.34248,0.3926,0.40931,130,2.00477,-0.286,-0.142,0.35919,5,2U1D,1.0,True,0.28,15,False,left,0.0,1.2403,1.5242,0.2839,0.4073,0.7655,0.3582,A
131,0.50119,1.2,2,0.30907,0.23389,0.74343,131,1.88782,-0.8,-0.40095,0.10024,5,lapse_rate,1.0,True,0.433,0,False,left,-0.16706,1.5394,1.5977,0.0583,0.3567,0.7646,0.4079,A
132,0.50119,1.2,1,0.31742,0.37589,0.58472,132,2.13841,-0.286,-0.142,0.35919,5,2U1D,1.0,False,2.247,15,False,left,0.2506,0.2817,0.7149,0.4333,1.14,1.9652,0.8253,A
133,0.50119,1.2,1,0.40095,0.22554,0.44272,133,2.18854,0.232,0.11694,0.61814,5,2D1U,1.0,True,1.083,11,True,left,-0.2506,0.3622,1.0532,0.691,1.5864,1.9115,0.3251,A
134,0.50119,1.2,2,0.35083,0.31742,0.84367,134,2.34724,-0.34,-0.16706,0.33413,5,2U1D,1.0,True,1.445,15,False,left,0.0,1.768,2.059,0.291,0.3176,0.8929,0.5753,A
135,0.50119,1.2,2,0.38425,0.29236,0.79355,135,2.56443,0.178,0.09189,0.59308,5,2D1U,2.0,True,0.322,12,True,right,-0.16706,1.6619,2.2117,0.5497,0.4287,0.8372,0.4085,A
136,0.50119,1.2,2,0.22554,0.34248,0.63484,136,1.80429,-0.8,-0.40095,0.10024,5,lapse_rate,1.0,True,0.3,0,False,left,0.2506,1.561,1.619,0.0581,0.0693,0.8937,0.8244,A
137,0.50119,0.1,1,0.32577,0.31742,0.66826,137,2.14677,-0.34,-0.16706,0.33413,5,2U1D,2.0,True,1.107,15,False,right,-0.2506,0.3878,0.5793,0.1916,1.4375,1.5458,0.1083,A
138,0.50119,0.1,1,0.44272,0.41766,0.55966,138,2.51431,0.178,0.09189,0.59308,5,2D1U,1.0,True,0.374,12,True,left,0.0,0.5029,0.9534,0.4505,1.5778,1.9366,0.3588,A
139,0.50119,1.2,1,0.42601,0.31742,0.73508,139,2.07994,-0.8,-0.40095,0.10024,5,lapse_rate,2.0,True,0.367,0,False,right,-0.16706,0.3888,0.5636,0.1748,1.3469,1.7558,0.4089,A
140,0.50119,0.1,2,0.30907,0.33413,0.40931,140,2.11336,0.124,0.05847,0.55966,5,2D1U,1.0,False,0.499,12,False,left,0.2506,1.3365,1.8191,0.4825,0.2526,0.8609,0.6083,A
141,0.50119,0.1,2,0.38425,0.3926,0.81861,141,2.45584,-0.286,-0.142,0.35919,5,2U1D,1.0,True,0.29,16,True,left,-0.2506,1.5693,1.8521,0.2828,0.5778,0.6852,0.1074,A
142,0.50119,1.2,2,0.42601,0.20048,0.42601,142,2.45584,0.8,0.40095,0.90215,5,lapse_rate,1.0,False,0.674,0,False,left,0.0,1.4257,2.2844,0.8588,0.3928,0.9676,0.5747,A
143,0.50119,1.2,2,0.33413,0.37589,0.55131,143,2.12171,-0.286,-0.142,0.35919,5,2U1D,1.0,True,0.233,16,True,left,-0.16706,1.3752,1.6919,0.3167,0.3837,0.7918,0.4081,A
144,0.50119,1.2,1,0.37589,0.25895,0.46778,144,2.19689,0.178,0.09189,0.59308,5,2D1U,1.0,True,2.084,13,True,left,0.2506,0.3391,1.0061,0.667,1.3144,2.1394,0.825,A
145,0.50119,0.1,2,0.33413,0.25895,0.69332,145,1.88783,-0.8,-0.40095,0.10024,5,lapse_rate,1.0,True,0.295,0,False,left,-0.2506,1.3874,1.4121,0.0247,0.5204,0.629,0.1086,A
146,0.50119,1.2,2,0.43437,0.21718,0.68496,146,2.43078,0.178,0.09189,0.59308,5,2D1U,1.0,False,0.483,13,True,left,0.0,1.688,2.2377,0.5497,0.396,0.9713,0.5752,A
147,0.50119,1.2,1,0.34248,0.43437,0.61814,147,2.79833,0.8,0.40095,0.90215,5,lapse_rate,1.0,True,0.889,0,False,left,-0.16706,0.3103,1.2853,0.975,1.9519,2.3604,0.4085,A
148,0.50119,1.2,1,0.30907,0.31742,0.84367,148,2.3556,-0.232,-0.11694,0.38425,5,2U1D,1.0,False,0.343,16,False,left,0.2506,0.2705,0.7288,0.4583,1.4122,2.2373,0.8251,A
149,0.50119,0.1,2,0.23389,0.30072,0.73508,149,2.38902,0.232,0.11694,0.61814,5,2D1U,2.0,True,0.365,13,False,right,-0.2506,1.3286,1.8708,0.5422,0.4209,0.5285,0.1076,A
150,0.50119,1.2,2,0.42601,0.41766,0.40931,150,2.65632,0.8,0.40095,0.90215,5,lapse_rate,2.0,True,0.388,0,False,right,0.0,1.4056,2.2641,0.8585,0.3896,0.964,0.5744,A
151,0.50119,0.1,2,0.22554,0.2506,0.72673,151,2.06325,-0.286,-0.142,0.35919,5,2U1D,1.0,True,0.715,17,True,left,-0.16706,1.3583,1.6411,0.2827,0.3749,0.5662,0.1913,A
152,0.50119,0.1,1,0.30072,0.36754,0.57637,152,2.36396,0.232,0.11694,0.61814,5,2D1U,1.0,True,0.266,13,False,left,0.2506,0.3695,0.8443,0.4748,1.3613,1.9696,0.6083,A
153,0.50119,0.1,1,0.44272,0.2673,0.60143,153,2.17183,-0.286,-0.142,0.35919,5,2U1D,2.0,True,1.1,17,True,right,-0.2506,0.5037,0.7199,0.2161,1.5112,1.6197,0.1085,A
154,0.50119,0.1,1,0.43437,0.21718,0.47613,154,1.72911,-0.8,-0.40095,0.10024,5,lapse_rate,2.0,True,0.58,0,False,right,0.0,0.4981,0.4553,-0.0428,0.9972,1.3552,0.358,A
155,0.50119,1.2,2,0.23389,0.40095,0.61814,155,2.34725,0.178,0.09189,0.59308,5,2D1U,2.0,True,1.584,14,True,right,-0.16706,1.3376,1.8867,0.549,0.2784,0.6875,0.4092,A
156,0.50119,0.1,2,0.28401,0.29236,0.54296,156,2.52267,0.8,0.40095,0.90215,5,lapse_rate,2.0,True,0.217,0,False,right,0.2506,1.443,2.2672,0.8242,0.2261,0.8338,0.6077,A
157,0.50119,1.2,1,0.35919,0.44272,0.5179,157,2.20525,-0.232,-0.11694,0.38425,5,2U1D,1.0,False,0.319,18,True,left,-0.2506,0.3266,0.7851,0.4585,1.3934,1.7177,0.3243,A
158,0.50119,1.2,1,0.29236,0.40095,0.45107,158,2.00476,-0.286,-0.142,0.35919,5,2U1D,2.0,True,1.123,19,True,right,0.0,0.2559,0.6891,0.4332,1.1058,1.6809,0.5751,A
159,0.50119,0.1,2,0.40931,0.35083,0.6599,159,2.82338,0.8,0.40095,0.90215,5,lapse_rate,2.0,True,0.341,0,False,right,-0.16706,1.4768,2.3025,0.8256,0.5602,0.7518,0.1916,A
160,0.50119,1.2,2,0.33413,0.41766,0.63484,160,2.4809,0.178,0.09189,0.59308,5,2D1U,1.0,False,0.25,14,True,left,0.2506,1.6682,2.2167,0.5485,0.1759,1.0009,0.8249,A
161,0.50119,0.1,1,0.29236,0.42601,0.70167,161,2.53937,0.232,0.11694,0.61814,5,2D1U,1.0,True,0.237,15,True,left,-0.2506,0.3575,0.8321,0.4746,1.7236,1.8316,0.108,A
162,0.50119,0.1,2,0.2673,0.33413,0.47613,162,1.93794,-0.286,-0.142,0.35919,5,2U1D,1.0,True,0.247,19,True,left,0.0,1.2315,1.514,0.2824,0.3312,0.689,0.3578,A
163,0.50119,0.1,1,0.20048,0.25895,0.7852,163,2.64797,0.8,0.40095,0.90215,5,lapse_rate,1.0,True,0.253,0,False,left,-0.16706,0.2646,1.0239,0.7593,1.9568,2.148,0.1913,A
164,0.50119,0.1,2,0.3926,0.20883,0.49284,164,1.6957,-0.8,-0.40095,0.10024,5,lapse_rate,1.0,True,0.555,0,False,left,0.2506,1.4979,1.523,0.0251,0.3307,0.9397,0.609,A
165,0.50119,0.1,2,0.21718,0.41766,0.77685,165,2.29713,-0.232,-0.11694,0.38425,5,2U1D,1.0,True,0.352,20,True,left,-0.2506,1.3565,1.664,0.3075,0.4061,0.5151,0.109,A
166,0.50119,0.1,2,0.34248,0.30907,0.58472,166,2.3556,0.232,0.11694,0.61814,5,2D1U,2.0,True,0.267,15,True,right,0.0,1.4137,1.9542,0.5405,0.405,0.7628,0.3578,A
167,0.50119,1.2,1,0.35083,0.43437,0.70167,167,2.58114,0.178,0.09189,0.59308,5,2D1U,1.0,True,0.259,16,True,left,-0.16706,0.3121,0.9791,0.667,1.7297,2.1374,0.4077,A
168,0.50119,1.2,1,0.22554,0.35083,0.62649,168,2.0883,-0.232,-0.11694,0.38425,5,2U1D,1.0,False,0.779,20,True,left,0.2506,0.1882,0.6473,0.4591,1.1131,1.9383,0.8252,A
169,0.50119,1.2,1,0.45107,0.23389,0.79355,169,2.07994,-0.8,-0.40095,0.10024,5,lapse_rate,2.0,True,0.274,0,False,right,-0.2506,0.4119,0.5873,0.1754,1.4701,1.7951,0.3251,A
170,0.50119,0.1,2,0.38425,0.23389,0.6599,170,2.68138,0.8,0.40095,0.90215,5,lapse_rate,2.0,True,0.243,0,False,right,0.0,1.5362,2.3611,0.8249,0.4528,0.812,0.3592,A
171,0.50119,1.2,1,0.40095,0.32577,0.68496,171,2.27206,-0.286,-0.142,0.35919,5,2U1D,1.0,False,0.871,21,True,left,-0.16706,0.3624,0.7959,0.4335,1.5294,1.9377,0.4082,A
172,0.50119,1.2,1,0.30072,0.3926,0.48449,172,2.27208,0.178,0.09189,0.59308,5,2D1U,1.0,True,0.183,16,True,left,0.2506,0.2671,0.9342,0.6671,1.2595,2.0838,0.8243,A
173,0.50119,0.1,2,0.25895,0.24224,0.81026,173,2.14677,-0.34,-0.16706,0.33413,5,2U1D,1.0,True,0.299,21,False,left,-0.2506,1.4304,1.6889,0.2585,0.447,0.5555,0.1085,A
174,0.50119,0.1,2,0.24224,0.40095,0.40931,174,2.11335,0.124,0.05847,0.55966,5,2D1U,2.0,True,0.19,16,False,right,0.0,1.1397,1.6226,0.4828,0.3068,0.6643,0.3575,A
175,0.50119,0.1,1,0.35083,0.20883,0.74343,175,2.70643,0.8,0.40095,0.90215,5,lapse_rate,1.0,True,0.258,0,False,left,-0.16706,0.4149,1.1731,0.7582,2.0647,2.2563,0.1916,A
176,0.50119,0.1,2,0.44272,0.41766,0.68496,176,2.60619,0.124,0.05847,0.55966,5,2D1U,1.0,False,0.205,16,False,left,0.2506,1.7428,2.226,0.4833,0.3844,0.9925,0.6081,A
177,0.50119,0.1,1,0.30907,0.35919,0.89379,177,2.96539,0.8,0.40095,0.90215,5,lapse_rate,1.0,True,0.357,0,False,left,-0.2506,0.3711,1.1297,0.7586,2.2125,2.3207,0.1083,A
178,0.50119,0.1,1,0.25895,0.37589,0.60978,178,2.07994,-0.34,-0.16706,0.33413,5,2U1D,2.0,True,0.284,21,False,right,0.0,0.3201,0.5114,0.1912,1.187,1.5452,0.3582,A
179,0.50119,0.1,1,0.42601,0.44272,0.45943,179,1.92959,-0.8,-0.40095,0.10024,5,lapse_rate,2.0,True,0.239,0,False,right,-0.16706,0.4947,0.4531,-0.0415,1.061,1.2524,0.1914,A
180,0.50119,1.2,2,0.33413,0.37589,0.74343,180,2.54772,0.178,0.09189,0.59308,5,2D1U,2.0,True,0.241,17,True,right,0.2506,1.7722,2.3222,0.55,0.1723,0.9972,0.8249,A
181,0.50119,1.2,2,0.38425,0.44272,0.61814,181,2.30549,-0.286,-0.142,0.35919,5,2U1D,1.0,True,0.248,22,True,left,-0.2506,1.4507,1.7675,0.3168,0.4754,0.8001,0.3247,A
182,0.50119,1.2,1,0.43437,0.22554,0.48449,182,2.00478,-0.286,-0.142,0.35919,5,2U1D,2.0,True,1.354,22,True,right,0.0,0.4,0.8328,0.4328,1.2825,1.8576,0.5751,A
183,0.50119,0.1,1,0.31742,0.35919,0.82697,183,2.90692,0.8,0.40095,0.90215,5,lapse_rate,1.0,True,0.287,0,False,left,-0.16706,0.3786,1.137,0.7584,2.1123,2.3037,0.1915,A
184,0.50119,1.2,1,0.20048,0.29236,0.61814,184,2.20525,0.178,0.09189,0.59308,5,2D1U,1.0,True,0.288,17,True,left,0.2506,0.1649,0.8316,0.6667,1.2899,2.1155,0.8256,A
185,0.50119,0.1,2,0.40095,0.20883,0.45107,185,1.66228,-0.8,-0.40095,0.10024,5,lapse_rate,1.0,True,0.413,0,False,left,-0.2506,1.2148,1.2398,0.025,0.5894,0.6985,0.109,A
186,0.50119,0.1,2,0.2506,0.42601,0.61814,186,2.3556,0.124,0.05847,0.55966,5,2D1U,1.0,False,0.22,18,True,left,0.0,1.3562,1.8388,0.4827,0.3139,0.6722,0.3583,A
187,0.50119,0.1,1,0.44272,0.22554,0.50119,187,2.05489,-0.232,-0.11694,0.38425,5,2U1D,2.0,True,1.137,22,False,right,-0.16706,0.5048,0.7475,0.2427,1.3966,1.5888,0.1923,A
188,0.50119,1.2,1,0.25895,0.30907,0.56802,188,2.53938,0.8,0.40095,0.90215,5,lapse_rate,1.0,True,0.274,0,False,left,0.2506,0.2198,1.1953,0.9755,1.6033,2.429,0.8257,A
189,0.50119,0.1,2,0.33413,0.2506,0.67661,189,2.14678,-0.232,-0.11694,0.38425,5,2U1D,1.0,True,0.303,22,False,left,-0.2506,1.3728,1.6814,0.3086,0.5229,0.6318,0.1089,A
190,0.50119,0.1,2,0.35919,0.2673,0.74343,190,2.46419,0.178,0.09189,0.59308,5,2D1U,2.0,True,0.341,19,True,right,0.0,1.5904,2.1066,0.5162,0.4237,0.7817,0.358,A
191,0.50119,1.2,1,0.22554,0.41766,0.67661,191,2.41408,0.178,0.09189,0.59308,5,2D1U,1.0,True,0.244,19,True,left,-0.16706,0.1873,0.8536,0.6663,1.5793,1.9871,0.4078,A
192,0.50119,1.2,1,0.38425,0.29236,0.58472,192,2.17183,-0.178,-0.09189,0.40931,5,2U1D,1.0,False,0.348,22,False,left,0.2506,0.3469,0.8301,0.4832,1.2551,2.0803,0.8251,A
193,0.50119,1.2,2,0.20883,0.27566,0.46778,193,1.5537,-0.8,-0.40095,0.10024,5,lapse_rate,1.0,True,0.292,0,False,left,-0.2506,1.1258,1.1841,0.0583,0.3008,0.6254,0.3246,A
194,0.50119,1.2,2,0.34248,0.45107,0.88544,194,2.56443,-0.232,-0.11694,0.38425,5,2U1D,1.0,True,0.253,23,True,left,0.0,1.7954,2.137,0.3416,0.3038,0.8789,0.5751,A
195,0.50119,1.2,1,0.36754,0.45107,0.57637,195,2.45583,0.124,0.05847,0.55966,5,2D1U,1.0,True,7.548,20,True,left,-0.16706,0.3295,0.9634,0.6339,1.5876,1.9968,0.4092,A
196,0.50119,1.2,1,0.40931,0.36754,0.87709,196,3.05728,0.8,0.40095,0.90215,5,lapse_rate,1.0,True,1.332,0,False,left,0.2506,0.3724,1.3474,0.975,2.065,2.8895,0.8245,A
197,0.50119,0.1,1,0.22554,0.31742,0.61814,197,2.04654,-0.232,-0.11694,0.38425,5,2U1D,1.0,False,1.791,23,True,left,-0.2506,0.2936,0.5352,0.2416,1.3433,1.4522,0.109,A
198,0.50119,1.2,2,0.2673,0.43437,0.72673,198,2.02983,-0.8,-0.40095,0.10024,5,lapse_rate,1.0,True,0.298,0,False,left,0.0,1.5686,1.6268,0.0582,0.236,0.8104,0.5744,A
199,0.50119,0.1,2,0.37589,0.27566,0.76014,199,2.47254,0.124,0.05847,0.55966,5,2D1U,1.0,False,0.546,20,True,left,-0.16706,1.5391,2.0224,0.4833,0.5223,0.7147,0.1924,A
200,0.50119,0.1,1,0.28401,0.35083,0.54296,200,2.03818,-0.286,-0.142,0.35919,5,2U1D,2.0,True,0.266,23,False,right,0.2506,0.3522,0.5692,0.217,1.0519,1.6603,0.6084,A
201,0.50119,1.2,2,0.32577,0.42601,0.83532,201,2.18853,-0.8,-0.40095,0.10024,5,lapse_rate,1.0,True,0.251,0,False,left,-0.2506,1.6043,1.6625,0.0583,0.4127,0.7376,0.3249,A
202,0.50119,0.1,2,0.38425,0.38425,0.41766,202,2.28043,0.178,0.09189,0.59308,5,2D1U,2.0,True,0.305,21,True,right,0.0,1.2904,1.8064,0.516,0.4486,0.8067,0.3582,A
203,0.50119,1.2,2,0.25895,0.36754,0.5346,203,2.56443,0.8,0.40095,0.90215,5,lapse_rate,2.0,True,0.262,0,False,right,-0.16706,1.2809,2.1395,0.8586,0.3061,0.7149,0.4089,A
204,0.50119,1.2,1,0.35083,0.31742,0.45943,204,2.22195,0.178,0.09189,0.59308,5,2D1U,1.0,True,0.242,21,True,left,0.2506,0.3136,0.9806,0.6669,1.2804,2.1055,0.8251,A
205,0.50119,1.2,1,0.37589,0.38425,0.81026,205,2.43078,-0.286,-0.142,0.35919,5,2U1D,1.0,False,0.284,23,False,left,-0.2506,0.3393,0.7736,0.4343,1.6726,1.998,0.3254,A
206,0.50119,1.2,1,0.38425,0.42601,0.84367,206,2.71478,0.124,0.05847,0.55966,5,2D1U,2.0,False,2.151,22,True,right,0.0,0.3527,0.9867,0.634,1.795,2.3693,0.5743,A
207,0.50119,0.1,1,0.21718,0.30072,0.72673,207,2.64797,0.8,0.40095,0.90215,5,lapse_rate,1.0,True,0.293,0,False,left,-0.16706,0.2801,1.0387,0.7586,1.9136,2.105,0.1913,A
208,0.50119,1.2,2,0.34248,0.34248,0.55966,208,2.07994,-0.34,-0.16706,0.33413,5,2U1D,1.0,True,0.367,23,False,left,0.2506,1.5981,1.8899,0.2918,0.1812,1.0063,0.8251,A
209,0.50119,0.1,1,0.41766,0.20048,0.74343,209,1.963,-0.8,-0.40095,0.10024,5,lapse_rate,2.0,True,0.325,0,False,right,-0.2506,0.4817,0.44,-0.0417,1.3734,1.4816,0.1083,A
210,0.50119,0.1,1,0.28401,0.2673,0.76849,210,2.41407,0.178,0.09189,0.59308,5,2D1U,1.0,True,1.479,23,True,left,0.0,0.3482,0.7978,0.4495,1.6314,1.9894,0.358,A
211,0.50119,0.1,1,0.20883,0.40931,0.58472,211,2.03818,-0.34,-0.16706,0.33413,5,2U1D,2.0,True,1.075,23,False,right,-0.16706,0.2776,0.4692,0.1916,1.2026,1.3947,0.1922,A
212,0.50119,0.1,1,0.30072,0.34248,0.73508,212,2.23866,-0.286,-0.142,0.35919,5,2U1D,2.0,True,0.535,24,True,right,0.2506,0.3654,0.582,0.2167,1.2573,1.8651,0.6078,A
213,0.50119,1.2,2,0.40095,0.30907,0.40095,213,2.51431,0.8,0.40095,0.90215,5,lapse_rate,2.0,True,0.225,0,False,right,-0.2506,1.2503,2.1092,0.8589,0.492,0.8173,0.3253,A
214,0.50119,0.1,2,0.36754,0.31742,0.86873,214,2.64796,0.178,0.09189,0.59308,5,2D1U,2.0,True,1.363,23,True,right,0.0,1.7263,2.2437,0.5174,0.4349,0.7935,0.3586,A
215,0.50119,1.2,2,0.28401,0.44272,0.54296,215,1.87112,-0.8,-0.40095,0.10024,5,lapse_rate,1.0,True,0.275,0,False,left,-0.16706,1.3133,1.3714,0.0581,0.3298,0.7378,0.4081,A
216,0.50119,1.2,1,0.29236,0.25895,0.80191,216,2.2136,-0.286,-0.142,0.35919,5,2U1D,2.0,True,0.31,24,True,right,0.2506,0.2565,0.69,0.4335,1.3325,2.1563,0.8239,A
217,0.50119,1.2,1,0.2673,0.32577,0.81861,217,2.47253,0.124,0.05847,0.55966,5,2D1U,1.0,True,0.25,24,True,left,-0.2506,0.2342,0.8683,0.6341,1.7758,2.1013,0.3255,A
218,0.50119,1.2,2,0.21718,0.38425,0.80191,218,2.46419,0.124,0.05847,0.55966,5,2D1U,1.0,False,1.84,24,True,left,0.0,1.5942,2.1114,0.5172,0.1856,0.7612,0.5755,A
219,0.50119,1.2,1,0.42601,0.32577,0.58472,219,2.22194,-0.232,-0.11694,0.38425,5,2U1D,1.0,False,0.308,24,False,left,-0.16706,0.3949,0.8528,0.4579,1.4858,1.8944,0.4086,A
220,0.50119,1.2,1,0.22554,0.2506,0.88544,220,2.76492,0.8,0.40095,0.90215,5,lapse_rate,1.0,True,0.303,0,False,left,0.2506,0.1919,1.1671,0.9751,1.8925,2.7176,0.8252,A
221,0.50119,0.1,1,0.20048,0.35083,0.42601,221,1.8377,-0.286,-0.142,0.35919,5,2U1D,2.0,True,0.206,25,True,right,-0.2506,0.2663,0.4831,0.2168,1.0999,1.2078,0.108,A
222,0.50119,1.2,1,0.32577,0.34248,0.74343,222,2.01311,-0.8,-0.40095,0.10024,5,lapse_rate,2.0,True,0.216,0,False,right,0.0,0.2884,0.4625,0.1742,1.1712,1.7459,0.5747,A
223,0.50119,0.1,2,0.30072,0.40095,0.73508,223,2.53102,0.178,0.09189,0.59308,5,2D1U,2.0,True,0.454,25,True,right,-0.16706,1.4424,1.9581,0.5157,0.4502,0.6417,0.1915,A
224,0.50119,0.1,1,0.44272,0.22554,0.6432,224,2.40573,0.178,0.09189,0.59308,5,2D1U,1.0,True,0.359,25,True,left,0.2506,0.5065,0.9561,0.4497,1.5396,2.1474,0.6078,A
225,0.50119,0.1,2,0.38425,0.31742,0.60978,225,2.17183,-0.286,-0.142,0.35919,5,2U1D,1.0,True,0.267,25,True,left,-0.2506,1.3568,1.6409,0.2841,0.574,0.6823,0.1083,A
226,0.50119,1.2,1,0.31742,0.44272,0.86038,226,2.22195,-0.8,-0.40095,0.10024,5,lapse_rate,2.0,True,0.184,0,False,right,0.0,0.2816,0.4566,0.175,1.2816,1.8571,0.5755,A
227,0.50119,1.2,1,0.35919,0.24224,0.6599,227,1.86276,-0.8,-0.40095,0.10024,5,lapse_rate,2.0,True,2.129,0,False,right,-0.16706,0.3274,0.5026,0.1752,1.2109,1.6191,0.4082,A
228,0.50119,1.2,1,0.38425,0.36754,0.75179,228,2.38902,-0.232,-0.11694,0.38425,5,2U1D,1.0,False,0.263,26,True,left,0.2506,0.3501,0.8088,0.4587,1.4001,2.2256,0.8255,A
229,0.50119,1.2,1,0.29236,0.36754,0.84367,229,2.56442,0.124,0.05847,0.55966,5,2D1U,1.0,True,0.308,26,True,left,-0.2506,0.2567,0.8902,0.6335,1.823,2.1482,0.3252,A
230,0.50119,1.2,1,0.30907,0.40931,0.70167,230,2.28043,-0.286,-0.142,0.35919,5,2U1D,2.0,True,0.305,27,True,right,0.0,0.277,0.7099,0.4329,1.3767,1.9525,0.5758,A
231,0.50119,1.2,1,0.41766,0.25895,0.72673,231,2.00477,-0.8,-0.40095,0.10024,5,lapse_rate,2.0,True,0.356,0,False,right,-0.16706,0.3861,0.5609,0.1748,1.336,1.7438,0.4079,A
232,0.50119,1.2,1,0.36754,0.21718,0.77685,232,2.42242,0.124,0.05847,0.55966,5,2D1U,1.0,True,0.381,26,True,left,0.2506,0.3294,0.9629,0.6336,1.5795,2.4044,0.8249,A
233,0.50119,0.1,2,0.35919,0.42601,0.86038,233,3.04892,0.8,0.40095,0.90215,5,lapse_rate,2.0,True,0.261,0,False,right,-0.2506,1.5822,2.4071,0.8249,0.5477,0.656,0.1083,A
234,0.50119,0.1,1,0.2673,0.21718,0.54296,234,1.88782,-0.286,-0.142,0.35919,5,2U1D,1.0,False,0.306,27,True,left,0.0,0.3303,0.5471,0.2167,1.1557,1.5137,0.358,A
235,0.50119,0.1,2,0.44272,0.37589,0.74343,235,2.59783,0.07,0.03341,0.5346,5,2D1U,1.0,False,0.313,26,False,left,-0.16706,1.5905,2.0491,0.4586,0.5895,0.7817,0.1922,A
236,0.50119,0.1,2,0.22554,0.31742,0.58472,236,2.18853,0.124,0.05847,0.55966,5,2D1U,2.0,True,0.381,27,True,right,0.2506,1.4271,1.9097,0.4825,0.1678,0.7762,0.6084,A
237,0.50119,0.1,2,0.45107,0.31742,0.52625,237,2.69808,0.8,0.40095,0.90215,5,lapse_rate,2.0,True,0.284,0,False,right,-0.2506,1.3389,2.164,0.8251,0.6388,0.7477,0.1088,A
238,0.50119,0.1,2,0.43437,0.2673,0.70167,238,2.23866,-0.34,-0.16706,0.33413,5,2U1D,1.0,True,0.255,27,False,left,0.0,1.6242,1.8828,0.2587,0.499,0.858,0.359,A
239,0.50119,1.2,2,0.21718,0.2506,0.45107,239,2.32219,0.8,0.40095,0.90215,5,lapse_rate,2.0,True,0.332,0,False,right,-0.16706,1.1609,2.0191,0.8581,0.2693,0.6774,0.4081,A
240,0.50119,1.2,1,0.36754,0.31742,0.55131,240,2.29712,0.124,0.05847,0.55966,5,2D1U,1.0,True,0.298,27,True,left,0.2506,0.3342,0.9672,0.633,1.3586,2.1849,0.8263,A
241,0.50119,1.2,1,0.3926,0.20048,0.5346,241,1.963,-0.34,-0.16706,0.33413,5,2U1D,2.0,True,0.492,27,False,right,-0.2506,0.3569,0.7652,0.4083,1.3906,1.7152,0.3246,A
242,0.50119,1.2,1,0.23389,0.44272,0.45943,242,1.99642,-0.286,-0.142,0.35919,5,2U1D,2.0,True,0.217,28,True,right,0.0,0.1985,0.6322,0.4337,1.0564,1.6319,0.5755,A
243,0.50119,0.1,1,0.21718,0.38425,0.56802,243,1.77088,-0.8,-0.40095,0.10024,5,lapse_rate,2.0,True,0.224,0,False,right,-0.16706,0.2809,0.2397,-0.0412,0.9557,1.1472,0.1916,A
244,0.50119,1.2,1,0.22554,0.40095,0.63484,244,2.29712,0.07,0.03341,0.5346,5,2D1U,1.0,True,0.249,28,True,left,0.2506,0.1876,0.7966,0.609,1.2712,2.0966,0.8254,A
245,0.50119,0.1,2,0.42601,0.41766,0.48449,245,2.36395,0.07,0.03341,0.5346,5,2D1U,1.0,False,0.616,28,True,left,-0.2506,1.2781,1.7354,0.4573,0.6189,0.7271,0.1082,A
246,0.50119,0.1,1,0.38425,0.29236,0.74343,246,2.28042,-0.286,-0.142,0.35919,5,2U1D,2.0,True,0.116,28,True,right,0.0,0.4474,0.664,0.2166,1.472,1.831,0.359,A
247,0.50119,0.1,1,0.20883,0.29236,0.43437,247,2.3389,0.8,0.40095,0.90215,5,lapse_rate,1.0,True,0.277,0,False,left,-0.16706,0.2783,1.0366,0.7584,1.6198,1.8111,0.1914,A
248,0.50119,0.1,2,0.28401,0.43437,0.82697,248,2.14678,-0.8,-0.40095,0.10024,5,lapse_rate,1.0,True,0.292,0,False,left,0.2506,1.7242,1.7491,0.0249,0.2247,0.8326,0.608,A
249,0.50119,0.1,2,0.40095,0.41766,0.61814,249,2.32219,-0.232,-0.11694,0.38425,5,2U1D,1.0,True,0.3,28,False,left,-0.2506,1.3784,1.6873,0.3088,0.5871,0.6954,0.1083,A
250,0.50119,0.1,1,0.35919,0.31742,0.69332,250,2.43078,0.124,0.05847,0.55966,5,2D1U,1.0,True,1.299,29,True,left,0.0,0.4201,0.8365,0.4164,1.5951,1.9541,0.359,A
251,0.50119,1.2,2,0.30907,0.20048,0.71002,251,2.10501,-0.232,-0.11694,0.38425,5,2U1D,1.0,True,0.295,28,False,left,-0.16706,1.5028,1.8452,0.3424,0.3537,0.7619,0.4082,A
252,0.50119,1.2,2,0.27566,0.35919,0.75179,252,2.44749,0.124,0.05847,0.55966,5,2D1U,1.0,False,1.625,29,True,left,0.2506,1.7228,2.239,0.5162,0.1145,0.9396,0.825,A
253,0.50119,1.2,2,0.27566,0.38425,0.76014,253,2.02148,-0.8,-0.40095,0.10024,5,lapse_rate,1.0,True,0.223,0,False,left,-0.2506,1.4806,1.5392,0.0586,0.3645,0.6891,0.3246,A
254,0.50119,1.2,2,0.28401,0.2673,0.5179,254,1.97971,-0.178,-0.09189,0.40931,5,2U1D,1.0,True,0.29,28,False,left,0.0,1.3734,1.7402,0.3668,0.2489,0.824,0.5751,A
255,0.50119,1.2,1,0.40931,0.41766,0.44272,255,2.36396,0.178,0.09189,0.59308,5,2D1U,1.0,True,0.219,29,False,left,-0.16706,0.3725,1.0384,0.6659,1.5301,1.9381,0.4079,A
256,0.50119,1.2,1,0.23389,0.32577,0.61814,256,2.58114,0.8,0.40095,0.90215,5,lapse_rate,1.0,True,0.258,0,False,left,0.2506,0.1986,1.1736,0.975,1.6317,2.4575,0.8259,A
257,0.50119,0.1,2,0.2506,0.40095,0.84367,257,2.89856,0.8,0.40095,0.90215,5,lapse_rate,2.0,True,0.32,0,False,right,-0.2506,1.4534,2.2789,0.8255,0.4372,0.545,0.1077,A
258,0.50119,0.1,1,0.24224,0.40095,0.62649,258,2.18018,-0.178,-0.09189,0.40931,5,2U1D,1.0,False,0.241,28,False,left,0.0,0.3074,0.574,0.2667,1.2655,1.6241,0.3586,A
259,0.50119,0.1,1,0.35083,0.30907,0.74343,259,2.4976,0.178,0.09189,0.59308,5,2D1U,2.0,False,0.572,29,False,right,-0.16706,0.418,0.8673,0.4493,1.759,1.951,0.1919,A
260,0.50119,1.2,1,0.31742,0.31742,0.41766,260,1.65393,-0.8,-0.40095,0.10024,5,lapse_rate,2.0,True,0.38,0,False,right,0.2506,0.2784,0.4534,0.175,0.7115,1.5372,0.8257,A
261,0.50119,0.1,1,0.34248,0.38425,0.5179,261,2.13007,-0.232,-0.11694,0.38425,5,2U1D,1.0,False,0.426,29,True,left,-0.2506,0.4102,0.6518,0.2416,1.3596,1.4686,0.109,A
262,0.50119,0.1,1,0.40095,0.35919,0.70167,262,2.58114,0.232,0.11694,0.61814,5,2D1U,1.0,True,0.563,29,False,left,0.0,0.4621,0.9372,0.4751,1.7034,2.0626,0.3592,A
263,0.50119,1.2,1,0.2506,0.36754,0.87709,263,2.61456,0.232,0.11694,0.61814,5,2D1U,1.0,True,0.371,29,False,left,-0.16706,0.2125,0.904,0.6916,1.8291,2.2377,0.4087,A
264,0.50119,1.2,1,0.25895,0.30907,0.65155,264,2.62291,0.8,0.40095,0.90215,5,lapse_rate,1.0,True,0.281,0,False,left,0.2506,0.2225,1.1973,0.9748,1.6884,2.514,0.8256,A
265,0.50119,1.2,1,0.30072,0.29236,0.86873,265,2.32219,-0.286,-0.142,0.35919,5,2U1D,1.0,False,1.146,29,False,left,-0.2506,0.2668,0.6996,0.4328,1.6578,1.9834,0.3256,A
266,0.50119,0.1,1,0.22554,0.20883,0.6599,266,1.6957,-0.8,-0.40095,0.10024,5,lapse_rate,2.0,True,0.31,0,False,right,0.0,0.2889,0.2472,-0.0417,0.9718,1.3306,0.3588,A
267,0.50119,1.2,1,0.28401,0.29236,0.84367,267,2.51431,0.178,0.09189,0.59308,5,2D1U,1.0,True,0.307,30,True,left,-0.16706,0.2461,0.9129,0.6668,1.8051,2.2135,0.4084,A
268,0.50119,1.2,2,0.21718,0.33413,0.65155,268,2.03818,-0.34,-0.16706,0.33413,5,2U1D,1.0,True,0.277,29,False,left,0.2506,1.5644,1.8569,0.2924,0.0562,0.8813,0.8251,A
269,0.50119,0.1,1,0.36754,0.30072,0.45943,269,2.22196,0.178,0.09189,0.59308,5,2D1U,1.0,True,0.257,30,True,left,-0.2506,0.4289,0.8785,0.4496,1.5291,1.6371,0.1081,A
270,0.50119,0.1,2,0.42601,0.35083,0.6599,270,2.27206,-0.34,-0.16706,0.33413,5,2U1D,1.0,True,0.27,29,False,left,0.0,1.5748,1.8337,0.259,0.4913,0.8504,0.359,A
271,0.50119,0.1,2,0.30907,0.21718,0.48449,271,2.41408,0.8,0.40095,0.90215,5,lapse_rate,2.0,True,0.228,0,False,right,-0.16706,1.1978,2.0223,0.8246,0.4559,0.6479,0.1919,A
272,0.50119,0.1,2,0.21718,0.28401,0.89379,272,2.45583,0.124,0.05847,0.55966,5,2D1U,1.0,False,0.302,30,False,left,0.2506,1.7221,2.206,0.4839,0.1553,0.7639,0.6086,A
273,0.50119,0.1,1,0.30907,0.35919,0.86038,273,2.38902,-0.286,-0.142,0.35919,5,2U1D,1.0,False,0.113,30,True,left,-0.2506,0.374,0.5901,0.2161,1.6407,1.7485,0.1077,A
274,0.50119,0.1,2,0.31742,0.24224,0.41766,274,1.57875,-0.8,-0.40095,0.10024,5,lapse_rate,1.0,True,0.318,0,False,left,0.0,1.2249,1.2505,0.0255,0.3832,0.7424,0.3592,A
275,0.50119,1.2,1,0.30072,0.41766,0.82697,275,2.94869,0.8,0.40095,0.90215,5,lapse_rate,1.0,True,0.278,0,False,left,-0.16706,0.266,1.2408,0.9748,2.1154,2.5246,0.4092,A
276,0.50119,1.2,2,0.23389,0.27566,0.74343,276,2.34725,0.178,0.09189,0.59308,5,2D1U,1.0,False,0.514,31,True,left,0.2506,1.6698,2.2206,0.5508,0.0703,0.8952,0.8248,A
277,0.50119,1.2,1,0.33413,0.40095,0.66826,277,2.23866,-0.34,-0.16706,0.33413,5,2U1D,2.0,True,0.712,31,True,right,-0.2506,0.2989,0.7074,0.4085,1.4656,1.7907,0.3251,A
278,0.50119,1.2,2,0.23389,0.23389,0.81026,278,2.11336,-0.34,-0.16706,0.33413,5,2U1D,1.0,True,0.318,31,True,left,0.0,1.6161,1.9073,0.2911,0.1989,0.774,0.5752,A
279,0.50119,1.2,1,0.20048,0.38425,0.62649,279,1.81265,-0.8,-0.40095,0.10024,5,lapse_rate,2.0,True,0.25,0,False,right,-0.16706,0.164,0.3389,0.1749,1.0138,1.4221,0.4083,A
280,0.50119,1.2,2,0.45107,0.40931,0.61814,280,2.59785,0.232,0.11694,0.61814,5,2D1U,1.0,False,0.969,31,False,left,0.2506,1.7638,2.3388,0.5749,0.2886,1.1139,0.8253,A
281,0.50119,0.1,2,0.30072,0.2673,0.42601,281,1.85441,-0.286,-0.142,0.35919,5,2U1D,1.0,True,0.266,32,True,left,-0.2506,1.0895,1.3723,0.2828,0.4886,0.5972,0.1085,A
282,0.50119,0.1,1,0.27566,0.44272,0.5179,282,2.38067,0.286,0.142,0.6432,5,2D1U,1.0,True,0.975,31,False,left,0.0,0.3374,0.837,0.4995,1.4206,1.779,0.3584,A
283,0.50119,0.1,2,0.21718,0.2673,0.43437,283,1.52028,-0.8,-0.40095,0.10024,5,lapse_rate,1.0,True,0.258,0,False,left,-0.16706,1.0608,1.0855,0.0247,0.3697,0.5607,0.191,A
284,0.50119,1.2,2,0.38425,0.21718,0.89379,284,2.09665,-0.8,-0.40095,0.10024,5,lapse_rate,1.0,True,0.324,0,False,left,0.2506,1.9712,2.0292,0.0579,0.221,1.0463,0.8254,A
285,0.50119,0.1,1,0.40931,0.2506,0.85203,285,2.37232,-0.286,-0.142,0.35919,5,2U1D,2.0,True,0.175,32,True,right,-0.2506,0.4772,0.6937,0.2165,1.7354,1.8437,0.1083,A
286,0.50119,0.1,1,0.30907,0.41766,0.58472,286,2.45584,0.286,0.142,0.6432,5,2D1U,1.0,True,0.455,31,False,left,0.0,0.3752,0.8757,0.5005,1.526,1.8835,0.3575,A
287,0.50119,1.2,1,0.30072,0.31742,0.60978,287,1.82935,-0.8,-0.40095,0.10024,5,lapse_rate,2.0,True,0.96,0,False,right,-0.16706,0.2684,0.444,0.1756,1.1017,1.5106,0.4089,A
288,0.50119,1.2,1,0.34248,0.30072,0.67661,288,2.43914,0.232,0.11694,0.61814,5,2D1U,1.0,True,0.19,32,True,left,0.2506,0.3071,0.9983,0.6912,1.5152,2.3401,0.8249,A
289,0.50119,1.2,2,0.41766,0.30072,0.74343,289,2.34725,-0.232,-0.11694,0.38425,5,2U1D,1.0,True,0.224,32,False,left,-0.2506,1.6102,1.9515,0.3413,0.5109,0.8348,0.3239,A
290,0.50119,1.2,1,0.30907,0.42601,0.85203,290,2.70644,0.232,0.11694,0.61814,5,2D1U,1.0,True,0.275,32,True,left,0.0,0.2719,0.9639,0.692,1.7806,2.3554,0.5748,A
291,0.50119,1.2,2,0.41766,0.27566,0.60143,291,2.18019,-0.232,-0.11694,0.38425,5,2U1D,1.0,True,0.258,32,False,left,-0.16706,1.5095,1.8513,0.3419,0.4676,0.876,0.4084,A
292,0.50119,0.1,1,0.40095,0.33413,0.45943,292,1.79594,-0.8,-0.40095,0.10024,5,lapse_rate,2.0,True,0.108,0,False,right,0.2506,0.4654,0.4238,-0.0416,0.8241,1.4319,0.6078,A
293,0.50119,0.1,1,0.27566,0.43437,0.5179,293,2.3222,0.178,0.09189,0.59308,5,2D1U,1.0,True,0.399,32,False,left,-0.2506,0.3385,0.7884,0.4499,1.4977,1.6058,0.1081,A
294,0.50119,0.1,2,0.21718,0.36754,0.88544,294,2.38066,-0.178,-0.09189,0.40931,5,2U1D,1.0,True,0.356,32,False,left,0.0,1.5878,1.9207,0.3329,0.2792,0.6379,0.3588,A
295,0.50119,0.1,2,0.3926,0.41766,0.50955,295,2.72315,0.8,0.40095,0.90215,5,lapse_rate,2.0,True,0.552,0,False,right,-0.16706,1.3111,2.1362,0.825,0.5447,0.737,0.1923,A
296,0.50119,0.1,2,0.35919,0.25895,0.79355,296,2.50596,0.178,0.09189,0.59308,5,2D1U,1.0,False,0.286,32,False,left,0.2506,1.7636,2.2804,0.5168,0.2973,0.9055,0.6082,A
297,0.50119,1.2,2,0.35919,0.37589,0.73508,297,2.07159,-0.8,-0.40095,0.10024,5,lapse_rate,1.0,True,0.267,0,False,left,-0.2506,1.5407,1.5989,0.0582,0.449,0.7749,0.3259,A
298,0.50119,0.1,2,0.33413,0.42601,0.88544,298,2.55608,-0.178,-0.09189,0.40931,5,2U1D,1.0,True,0.324,32,False,left,0.0,1.7057,2.0384,0.3327,0.3967,0.756,0.3593,A
299,0.50119,1.2,1,0.42601,0.3926,0.40931,299,2.16348,-0.124,-0.05847,0.43437,5,2U1D,1.0,False,0.275,32,False,left,-0.16706,0.39,0.8982,0.5082,1.3565,1.7645,0.4081,A
300,0.50119,1.2,2,0.42601,0.43437,0.84367,300,2.82338,0.232,0.11694,0.61814,5,2D1U,1.0,False,0.375,33,True,left,0.2506,1.9645,2.5406,0.576,0.2653,1.0905,0.8252,A
301,0.50119,0.1,2,0.21718,0.44272,0.73508,301,2.79832,0.8,0.40095,0.90215,5,lapse_rate,2.0,True,0.355,0,False,right,-0.2506,1.3123,2.1369,0.8246,0.4038,0.5119,0.1081,A
302,0.50119,1.2,2,0.34248,0.30907,0.48449,302,2.28043,0.286,0.142,0.6432,5,2D1U,1.0,False,0.317,33,False,left,0.0,1.3972,1.9974,0.6002,0.3058,0.8808,0.575,A
303,0.50119,1.2,2,0.3926,0.37589,0.90215,303,3.07398,0.8,0.40095,0.90215,5,lapse_rate,2.0,True,0.411,0,False,right,-0.16706,1.7798,2.6377,0.8579,0.4378,0.8465,0.4087,A
304,0.50119,1.2,1,0.22554,0.2506,0.45943,304,1.84607,-0.178,-0.09189,0.40931,5,2U1D,1.0,False,0.255,33,True,left,0.2506,0.1907,0.6737,0.483,0.9741,1.7992,0.8251,A
305,0.50119,0.1,2,0.27566,0.28401,0.74343,305,2.47255,0.34,0.16706,0.66826,5,2D1U,2.0,True,0.299,33,False,right,-0.2506,1.3855,1.9777,0.5921,0.4688,0.5775,0.1087,A
306,0.50119,0.1,2,0.30907,0.31742,0.59308,306,2.10501,-0.232,-0.11694,0.38425,5,2U1D,1.0,True,0.257,33,False,left,0.0,1.3905,1.6993,0.3088,0.3743,0.7327,0.3585,A
307,0.50119,1.2,1,0.31742,0.30072,0.81026,307,2.02983,-0.8,-0.40095,0.10024,5,lapse_rate,2.0,True,0.283,0,False,right,-0.16706,0.2855,0.4598,0.1743,1.3188,1.7265,0.4077,A
308,0.50119,0.1,1,0.43437,0.2673,0.85203,308,2.43914,-0.232,-0.11694,0.38425,5,2U1D,1.0,False,0.3,33,False,left,0.2506,0.5017,0.7435,0.2417,1.5352,2.1429,0.6077,A
309,0.50119,1.2,1,0.44272,0.32577,0.76014,309,2.93197,0.8,0.40095,0.90215,5,lapse_rate,1.0,True,0.258,0,False,left,-0.2506,0.4045,1.3791,0.9746,2.2286,2.5545,0.3258,A
310,0.50119,0.1,1,0.40931,0.43437,0.82697,310,2.8401,0.34,0.16706,0.66826,5,2D1U,1.0,True,0.516,33,False,left,0.0,0.475,1.0001,0.5251,1.8924,2.2509,0.3585,A
311,0.50119,1.2,1,0.42601,0.43437,0.44272,311,1.90453,-0.8,-0.40095,0.10024,5,lapse_rate,2.0,True,0.396,0,False,right,-0.16706,0.389,0.5643,0.1752,1.0567,1.4647,0.408,A
312,0.50119,1.2,2,0.33413,0.27566,0.43437,312,2.18855,0.286,0.142,0.6432,5,2D1U,1.0,False,0.339,34,True,left,0.2506,1.4643,2.0643,0.6,0.1722,0.9982,0.8261,A
313,0.50119,1.2,1,0.31742,0.25895,0.46778,313,1.90453,-0.286,-0.142,0.35919,5,2U1D,1.0,False,0.248,33,False,left,-0.2506,0.2836,0.7164,0.4327,1.2753,1.5997,0.3244,A
314,0.50119,1.2,1,0.3926,0.35919,0.54296,314,2.4642,0.34,0.16706,0.66826,5,2D1U,1.0,True,0.341,35,True,left,0.0,0.3564,1.0984,0.742,1.6067,2.1819,0.5751,A
315,0.50119,1.2,1,0.21718,0.45107,0.81861,315,2.32218,-0.34,-0.16706,0.33413,5,2U1D,2.0,True,0.511,33,False,right,-0.16706,0.1824,0.5908,0.4085,1.4573,1.866,0.4087,A
316,0.50119,0.1,1,0.23389,0.42601,0.85203,316,2.91527,0.8,0.40095,0.90215,5,lapse_rate,1.0,True,0.273,0,False,left,0.2506,0.3023,1.0608,0.7585,1.8527,2.4611,0.6084,A
317,0.50119,0.1,1,0.33413,0.32577,0.56802,317,2.06324,-0.34,-0.16706,0.33413,5,2U1D,2.0,True,0.296,33,False,right,-0.2506,0.3986,0.5893,0.1907,1.348,1.456,0.108,A
318,0.50119,0.1,1,0.43437,0.40095,0.75179,318,2.75656,0.34,0.16706,0.66826,5,2D1U,1.0,True,0.837,35,True,left,0.0,0.4975,1.0226,0.525,1.8392,2.1974,0.3582,A
319,0.50119,0.1,1,0.25895,0.36754,0.85203,319,2.07995,-0.8,-0.40095,0.10024,5,lapse_rate,2.0,True,0.317,0,False,right,-0.16706,0.323,0.2813,-0.0417,1.2813,1.4735,0.1922,A
320,0.50119,0.1,1,0.38425,0.23389,0.79355,320,2.55608,0.286,0.142,0.6432,5,2D1U,1.0,True,0.862,36,True,left,0.2506,0.4464,0.9473,0.5008,1.6797,2.2886,0.6089,A
321,0.50119,0.1,2,0.44272,0.22554,0.54296,321,1.81265,-0.8,-0.40095,0.10024,5,lapse_rate,1.0,True,0.356,0,False,left,-0.2506,1.3469,1.3719,0.025,0.6302,0.7385,0.1083,A
322,0.50119,0.1,2,0.33413,0.33413,0.86873,322,2.39737,-0.286,-0.142,0.35919,5,2U1D,1.0,True,0.295,34,True,left,0.0,1.6901,1.9734,0.2832,0.3977,0.7558,0.3581,A
323,0.50119,0.1,1,0.22554,0.20048,0.88544,323,2.7148,0.8,0.40095,0.90215,5,lapse_rate,1.0,True,0.35,0,False,left,-0.16706,0.2898,1.0478,0.758,2.0818,2.2733,0.1915,A
324,0.50119,1.2,1,0.2673,0.21718,0.82697,324,2.17183,-0.286,-0.142,0.35919,5,2U1D,2.0,True,0.342,34,True,right,0.2506,0.2294,0.6625,0.4331,1.3293,2.1547,0.8254,A
325,0.50119,1.2,2,0.43437,0.21718,0.50955,325,2.30549,0.286,0.142,0.6432,5,2D1U,1.0,False,0.353,36,True,left,-0.2506,1.3944,1.9944,0.6,0.528,0.8531,0.3251,A
326,0.50119,1.2,1,0.35919,0.35919,0.65155,326,2.53938,0.34,0.16706,0.66826,5,2D1U,1.0,True,0.22,37,True,left,0.0,0.3281,1.0707,0.7426,1.6864,2.2614,0.575,A
327,0.50119,0.1,2,0.30072,0.23389,0.76014,327,2.69809,0.8,0.40095,0.90215,5,lapse_rate,2.0,True,0.303,0,False,right,-0.16706,1.4638,2.2889,0.8251,0.4473,0.6389,0.1917,A
328,0.50119,1.2,2,0.40095,0.40095,0.81026,328,2.4976,-0.232,-0.11694,0.38425,5,2U1D,1.0,True,0.274,34,False,left,0.2506,1.9044,2.2458,0.3414,0.2374,1.0624,0.825,A
329,0.50119,0.1,1,0.24224,0.28401,0.40095,329,1.81264,-0.232,-0.11694,0.38425,5,2U1D,2.0,True,0.675,34,False,right,-0.2506,0.3039,0.5454,0.2415,1.1375,1.2458,0.1083,A
330,0.50119,1.2,1,0.27566,0.3926,0.6599,330,1.92959,-0.8,-0.40095,0.10024,5,lapse_rate,2.0,True,0.266,0,False,right,0.0,0.2424,0.4184,0.1759,1.0436,1.6184,0.5747,A
331,0.50119,0.1,1,0.44272,0.25895,0.43437,331,2.30549,0.34,0.16706,0.66826,5,2D1U,1.0,True,0.209,37,True,left,-0.16706,0.5077,1.033,0.5253,1.616,1.8073,0.1913,A
332,0.50119,0.1,2,0.31742,0.35083,0.61814,332,2.19689,-0.178,-0.09189,0.40931,5,2U1D,1.0,True,0.126,34,False,left,0.2506,1.5461,1.8801,0.334,0.255,0.8629,0.6079,A
333,0.50119,1.2,2,0.35083,0.40095,0.50955,333,2.66467,0.8,0.40095,0.90215,5,lapse_rate,2.0,True,0.398,0,False,right,-0.2506,1.3112,2.1694,0.8582,0.4442,0.7694,0.3252,A
334,0.50119,0.1,1,0.27566,0.31742,0.86038,334,2.59785,0.286,0.142,0.6432,5,2D1U,1.0,True,0.464,38,True,left,0.0,0.3378,0.8383,0.5005,1.7633,2.1216,0.3583,A
335,0.50119,1.2,1,0.36754,0.36754,0.84367,335,2.72314,0.286,0.142,0.6432,5,2D1U,1.0,True,0.273,38,True,left,-0.16706,0.3304,1.047,0.7166,1.9383,2.3468,0.4086,A
336,0.50119,0.1,2,0.22554,0.33413,0.73508,336,1.89618,-0.8,-0.40095,0.10024,5,lapse_rate,1.0,True,0.278,0,False,left,0.2506,1.5734,1.5999,0.0265,0.1655,0.774,0.6084,A
337,0.50119,1.2,2,0.44272,0.33413,0.59308,337,2.28043,-0.178,-0.09189,0.40931,5,2U1D,2.0,False,1.292,34,False,right,-0.2506,1.481,1.8478,0.3668,0.5314,0.8561,0.3248,A
338,0.50119,1.2,1,0.35083,0.36754,0.55966,338,2.39736,0.232,0.11694,0.61814,5,2D1U,1.0,True,0.265,38,False,left,0.0,0.3147,1.0066,0.6919,1.5308,2.1059,0.5751,A
339,0.50119,1.2,1,0.27566,0.43437,0.60978,339,2.43914,0.232,0.11694,0.61814,5,2D1U,1.0,True,0.233,38,False,left,-0.16706,0.2429,0.9355,0.6925,1.5934,2.0013,0.408,A
340,0.50119,0.1,2,0.37589,0.38425,0.43437,340,2.07995,-0.232,-0.11694,0.38425,5,2U1D,1.0,True,0.298,35,True,left,0.2506,1.4252,1.733,0.3079,0.3176,0.925,0.6073,A
341,0.50119,0.1,1,0.32577,0.34248,0.43437,341,2.19689,0.178,0.09189,0.59308,5,2D1U,1.0,True,0.629,38,False,left,-0.2506,0.3897,0.8404,0.4507,1.4645,1.573,0.1085,A
342,0.50119,0.1,1,0.40095,0.28401,0.87709,342,2.44749,-0.232,-0.11694,0.38425,5,2U1D,2.0,True,0.435,35,True,right,0.0,0.4637,0.705,0.2413,1.6471,2.0054,0.3583,A
343,0.50119,0.1,1,0.22554,0.2673,0.63484,343,2.03818,-0.178,-0.09189,0.40931,5,2U1D,2.0,True,0.258,36,True,right,-0.16706,0.2869,0.5538,0.2669,1.3369,1.5285,0.1916,A
344,0.50119,1.2,1,0.3926,0.28401,0.50955,344,2.28043,0.178,0.09189,0.59308,5,2D1U,1.0,True,0.266,38,False,left,0.2506,0.3549,1.021,0.6662,1.371,2.1958,0.8248,A
345,0.50119,1.2,1,0.3926,0.36754,0.84367,345,2.66466,0.124,0.05847,0.55966,5,2D1U,1.0,True,0.294,38,False,left,-0.2506,0.357,0.9903,0.6333,1.9241,2.2491,0.325,A
346,0.50119,1.2,1,0.35919,0.40095,0.67661,346,2.34725,-0.178,-0.09189,0.40931,5,2U1D,1.0,False,0.92,36,True,left,0.0,0.3273,0.8096,0.4823,1.4516,2.027,0.5753,A
347,0.50119,1.2,2,0.35919,0.30907,0.46778,347,2.19689,0.124,0.05847,0.55966,5,2D1U,2.0,True,1.149,38,False,right,-0.16706,1.3143,1.8311,0.5168,0.4064,0.8143,0.4079,A
348,0.50119,0.1,1,0.20048,0.43437,0.71838,348,2.23867,-0.232,-0.11694,0.38425,5,2U1D,2.0,True,0.91,37,True,right,0.2506,0.2653,0.507,0.2417,1.166,1.7741,0.6081,A
349,0.50119,0.1,1,0.41766,0.20883,0.81861,349,2.48089,0.07,0.03341,0.5346,5,2D1U,1.0,True,0.533,38,False,left,-0.2506,0.4823,0.8733,0.391,1.8814,1.9899,0.1085,A
350,0.50119,0.1,1,0.31742,0.20883,0.72673,350,2.28877,0.07,0.03341,0.5346,5,2D1U,1.0,True,0.501,38,False,left,0.0,0.3858,0.7772,0.3914,1.5687,1.9269,0.3583,A
351,0.50119,0.1,1,0.30907,0.38425,0.44272,351,2.14678,0.016,0.00835,0.50955,5,2D1U,1.0,True,0.197,38,False,left,-0.16706,0.3743,0.7409,0.3666,1.3331,1.5242,0.1911,A
352,0.50119,1.2,2,0.25895,0.38425,0.5179,352,2.04654,-0.232,-0.11694,0.38425,5,2U1D,1.0,True,0.299,37,True,left,0.2506,1.4759,1.8178,0.3419,0.101,0.9258,0.8248,A
353,0.50119,1.2,2,0.42601,0.29236,0.82697,353,2.55608,0.016,0.00835,0.50955,5,2D1U,2.0,True,0.4,38,False,right,-0.2506,1.6958,2.1627,0.4669,0.512,0.837,0.3251,A
354,0.50119,1.2,2,0.22554,0.37589,0.50119,354,2.01312,-0.178,-0.09189,0.40931,5,2U1D,1.0,True,0.25,38,True,left,0.0,1.3004,1.6674,0.367,0.1924,0.7671,0.5747,A
355,0.50119,1.2,1,0.24224,0.29236,0.50955,355,1.95465,-0.178,-0.09189,0.40931,5,2U1D,1.0,False,0.282,38,True,left,-0.16706,0.2054,0.6883,0.4829,1.2474,1.6548,0.4074,A
356,0.50119,0.1,2,0.27566,0.33413,0.77685,356,2.27208,-0.232,-0.11694,0.38425,5,2U1D,1.0,True,0.304,39,True,left,0.2506,1.6677,1.9755,0.3078,0.2175,0.8253,0.6078,A
357,0.50119,0.1,2,0.34248,0.38425,0.5179,357,2.23031,-0.038,-0.01671,0.48449,5,2D1U,1.0,True,1.875,38,False,left,-0.2506,1.2215,1.6301,0.4087,0.5297,0.638,0.1083,A
358,0.50119,0.1,1,0.41766,0.34248,0.70167,358,2.34725,-0.232,-0.11694,0.38425,5,2U1D,2.0,True,0.291,39,True,right,0.0,0.486,0.7275,0.2415,1.4943,1.8533,0.359,A
359,0.50119,0.1,2,0.31742,0.32577,0.50955,359,2.06324,-0.178,-0.09189,0.40931,5,2U1D,1.0,True,0.318,40,True,left,-0.16706,1.2284,1.5616,0.3333,0.4617,0.6532,0.1916,A
360,0.50119,1.2,1,0.2506,0.43437,0.86038,360,2.53103,-0.038,-0.01671,0.48449,5,2D1U,1.0,False,0.317,38,False,left,0.2506,0.2174,0.7757,0.5583,1.4763,2.3006,0.8243,A
361,0.50119,1.2,2,0.21718,0.2673,0.42601,361,1.86275,-0.092,-0.05012,0.45107,5,2D1U,2.0,False,1.108,39,True,right,-0.2506,1.0876,1.4955,0.408,0.3039,0.6288,0.3249,A
362,0.50119,1.2,2,0.33413,0.42601,0.86873,362,2.53937,-0.178,-0.09189,0.40931,5,2U1D,1.0,True,0.254,40,True,left,0.0,1.7759,2.1422,0.3663,0.3005,0.8754,0.5749,A
363,0.50119,1.2,2,0.35083,0.40095,0.6432,363,2.33054,-0.124,-0.05847,0.43437,5,2U1D,1.0,True,0.29,40,False,left,-0.16706,1.4848,1.876,0.3912,0.4009,0.8096,0.4087,A
364,0.50119,0.1,2,0.2673,0.20048,0.76014,364,2.15512,-0.146,-0.07518,0.42601,5,2D1U,1.0,True,0.386,39,False,left,0.2506,1.6431,1.992,0.3489,0.2088,0.8179,0.6092,A
365,0.50119,0.1,1,0.29236,0.3926,0.52625,365,2.13841,-0.146,-0.07518,0.42601,5,2D1U,2.0,True,0.955,39,False,right,-0.2506,0.3606,0.6436,0.283,1.3604,1.4686,0.1082,A
366,0.50119,0.1,2,0.27566,0.41766,0.81861,366,2.44749,-0.124,-0.05847,0.43437,5,2U1D,1.0,True,0.262,40,False,left,0.0,1.58,1.9379,0.3579,0.3379,0.696,0.3581,A
367,0.50119,0.1,1,0.34248,0.42601,0.80191,367,2.53937,-0.07,-0.03341,0.46778,5,2U1D,2.0,True,0.483,40,False,right,-0.16706,0.4031,0.7284,0.3253,1.678,1.8699,0.1919,A
368,0.50119,1.2,2,0.27566,0.33413,0.45107,368,2.01312,-0.092,-0.05012,0.45107,5,2D1U,1.0,True,0.265,40,True,left,0.2506,1.42,1.8287,0.4087,0.1124,0.9369,0.8245,A
369,0.50119,1.2,2,0.41766,0.41766,0.67661,369,2.4809,-0.07,-0.03341,0.46778,5,2U1D,1.0,True,0.816,40,False,left,-0.2506,1.5392,1.9638,0.4246,0.5056,0.8305,0.3249,A
370,0.50119,1.2,1,0.3926,0.29236,0.45943,370,2.09665,-0.092,-0.05012,0.45107,5,2D1U,1.0,False,0.217,40,True,left,0.0,0.3598,0.8853,0.5255,1.3099,1.8851,0.5753,A
371,0.50119,1.2,1,0.23389,0.24224,0.5346,371,2.00476,-0.016,-0.00835,0.49284,5,2U1D,1.0,False,0.289,40,False,left,-0.16706,0.1979,0.7646,0.5667,1.3488,1.7563,0.4075,A
372,0.50119,0.1,2,0.32577,0.35083,0.68496,372,2.33053,-0.07,-0.03341,0.46778,5,2U1D,1.0,True,0.566,41,True,left,0.2506,1.6218,2.0142,0.3924,0.2637,0.8722,0.6085,A
373,0.50119,0.1,2,0.40095,0.28401,0.5179,373,2.13006,-0.146,-0.07518,0.42601,5,2D1U,1.0,True,2.567,41,True,left,-0.2506,1.2862,1.6367,0.3505,0.5939,0.7035,0.1096,A
374,0.50119,0.1,1,0.31742,0.34248,0.7852,374,2.41407,-0.07,-0.03341,0.46778,5,2U1D,1.0,False,0.31,41,True,left,0.0,0.3792,0.7042,0.325,1.5543,1.9128,0.3585,A
375,0.50119,0.1,2,0.22554,0.32577,0.55131,375,2.03818,-0.124,-0.05847,0.43437,5,2U1D,1.0,True,0.81,41,False,left,-0.16706,1.1806,1.5388,0.3582,0.3725,0.5642,0.1917,A
376,0.50119,1.2,2,0.30072,0.30072,0.47613,376,2.00477,-0.146,-0.07518,0.42601,5,2D1U,1.0,True,1.118,41,True,left,0.2506,1.4706,1.8537,0.3831,0.1375,0.9624,0.8248,A
377,0.50119,1.2,2,0.25895,0.27566,0.86038,377,2.33055,-0.124,-0.05847,0.43437,5,2U1D,1.0,True,0.809,41,False,left,-0.2506,1.5664,1.9578,0.3914,0.3489,0.6748,0.3259,A
378,0.50119,1.2,1,0.37589,0.41766,0.89379,378,2.6396,-0.092,-0.05012,0.45107,5,2D1U,2.0,True,0.336,42,True,right,0.0,0.343,0.8681,0.5251,1.7255,2.3012,0.5757,A
379,0.50119,1.2,2,0.20883,0.21718,0.54296,379,1.93794,-0.07,-0.03341,0.46778,5,2U1D,1.0,True,0.507,42,True,left,-0.16706,1.2413,1.6665,0.4252,0.2577,0.666,0.4083,A
380,0.50119,0.1,1,0.20048,0.21718,0.74343,380,2.11335,-0.092,-0.05012,0.45107,5,2D1U,2.0,True,0.317,42,True,right,0.2506,0.2655,0.5731,0.3076,1.2572,1.8658,0.6086,A
381,0.50119,0.1,1,0.35083,0.44272,0.76014,381,2.52266,-0.07,-0.03341,0.46778,5,2U1D,1.0,False,0.3,42,True,left,-0.2506,0.4125,0.7377,0.3252,1.6881,1.7962,0.1081,A
382,0.50119,0.1,2,0.3926,0.35919,0.6599,382,2.34725,-0.124,-0.05847,0.43437,5,2U1D,1.0,True,1.412,43,True,left,0.0,1.5395,1.8978,0.3584,0.4559,0.8143,0.3584,A
383,0.50119,0.1,1,0.3926,0.3926,0.56802,383,2.28878,-0.124,-0.05847,0.43437,5,2U1D,1.0,False,0.402,43,True,left,-0.16706,0.4554,0.7473,0.2919,1.4633,1.6557,0.1924,A
384,0.50119,1.2,1,0.3926,0.23389,0.66826,384,2.28043,-0.038,-0.01671,0.48449,5,2D1U,2.0,True,0.301,42,False,right,0.2506,0.3554,0.9137,0.5583,1.4221,2.2471,0.825,A
385,0.50119,1.2,1,0.37589,0.22554,0.45107,385,2.03818,-0.038,-0.01671,0.48449,5,2D1U,1.0,False,0.229,42,False,left,-0.2506,0.3374,0.8958,0.5583,1.4373,1.763,0.3257,A
386,0.50119,1.2,1,0.30907,0.27566,0.80191,386,2.29714,-0.178,-0.09189,0.40931,5,2U1D,1.0,False,1.89,43,False,left,0.0,0.2739,0.7573,0.4834,1.5241,2.0992,0.5751,A
387,0.50119,1.2,1,0.41766,0.30907,0.52625,387,2.13842,-0.232,-0.11694,0.38425,5,2U1D,1.0,False,0.34,43,False,left,-0.16706,0.3791,0.8373,0.4582,1.4124,1.8207,0.4083,A
388,0.50119,0.1,1,0.36754,0.38425,0.57637,388,2.28042,-0.092,-0.05012,0.45107,5,2D1U,1.0,False,0.283,43,True,left,0.2506,0.4346,0.7428,0.3082,1.2593,1.8671,0.6078,A
389,0.50119,0.1,2,0.30072,0.24224,0.82697,389,2.29713,-0.146,-0.07518,0.42601,5,2D1U,1.0,True,0.255,43,False,left,-0.2506,1.4876,1.8375,0.3499,0.4875,0.5959,0.1084,A
390,0.50119,0.1,2,0.28401,0.34248,0.63484,390,2.12171,-0.286,-0.142,0.35919,5,2U1D,1.0,True,0.336,43,False,left,0.0,1.409,1.6924,0.2834,0.3502,0.7089,0.3586,A
391,0.50119,0.1,1,0.40095,0.40931,0.6432,391,2.31384,-0.286,-0.142,0.35919,5,2U1D,2.0,True,0.174,43,False,right,-0.16706,0.463,0.6797,0.2167,1.4713,1.663,0.1917,A
392,0.50119,1.2,1,0.33413,0.42601,0.40095,392,2.04653,-0.232,-0.11694,0.38425,5,2U1D,2.0,True,0.417,44,True,right,0.2506,0.3035,0.7615,0.458,1.0036,1.8284,0.8248,A
393,0.50119,1.2,2,0.20048,0.2673,0.56802,393,1.963,-0.146,-0.07518,0.42601,5,2D1U,1.0,True,0.313,43,False,left,-0.2506,1.2145,1.5983,0.3837,0.2897,0.615,0.3253,A
394,0.50119,1.2,2,0.33413,0.38425,0.70167,394,2.30549,-0.232,-0.11694,0.38425,5,2U1D,1.0,True,0.229,44,True,left,0.0,1.6073,1.9487,0.3414,0.2985,0.8739,0.5754,A
395,0.50119,1.2,1,0.35919,0.28401,0.62649,395,2.22195,-0.092,-0.05012,0.45107,5,2D1U,1.0,False,0.339,44,True,left,-0.16706,0.322,0.8466,0.5246,1.5215,1.9294,0.4079,A
396,0.50119,0.1,2,0.2506,0.35919,0.52625,396,2.06324,-0.146,-0.07518,0.42601,5,2D1U,1.0,True,0.114,45,True,left,0.2506,1.3961,1.7463,0.3503,0.1963,0.8044,0.6081,A
397,0.50119,0.1,2,0.24224,0.40095,0.88544,397,2.43913,-0.178,-0.09189,0.40931,5,2U1D,2.0,False,1.141,44,False,right,-0.2506,1.4877,1.8211,0.3334,0.4295,0.5379,0.1084,A
398,0.50119,0.1,2,0.33413,0.38425,0.47613,398,2.12171,-0.146,-0.07518,0.42601,5,2D1U,2.0,False,0.492,45,True,right,0.0,1.298,1.6481,0.3501,0.3981,0.7559,0.3578,A
399,0.50119,0.1,2,0.3926,0.25895,0.75179,399,2.28878,-0.232,-0.11694,0.38425,5,2U1D,2.0,False,2.513,45,True,right,-0.16706,1.5474,1.8556,0.3083,0.5398,0.7312,0.1914,A
400,0.50119,1.2,1,0.23389,0.23389,0.79355,400,2.16347,-0.2,-0.10024,0.40095,5,2D1U,2.0,True,0.33,45,False,right,0.2506,0.1961,0.6705,0.4744,1.3045,2.1296,0.8251,A
401,0.50119,1.2,1,0.33413,0.40095,0.61814,401,2.2136,-0.286,-0.142,0.35919,5,2U1D,1.0,False,0.206,45,False,left,-0.2506,0.3004,0.7338,0.4333,1.4421,1.767,0.3249,A
402,0.50119,1.2,2,0.22554,0.41766,0.45107,402,1.99641,-0.2,-0.10024,0.40095,5,2D1U,1.0,True,0.259,45,False,left,0.0,1.2471,1.6058,0.3586,0.1891,0.764,0.5749,A
403,0.50119,1.2,1,0.37589,0.38425,0.62649,403,2.22195,-0.34,-0.16706,0.33413,5,2U1D,2.0,True,0.222,45,False,right,-0.16706,0.3401,0.7487,0.4085,1.424,1.8325,0.4086,A
404,0.50119,0.1,2,0.20883,0.40095,0.47613,404,1.92123,-0.34,-0.16706,0.33413,5,2U1D,1.0,True,0.255,45,False,left,0.2506,1.3013,1.5596,0.2583,0.1513,0.7594,0.6081,A
405,0.50119,0.1,2,0.28401,0.33413,0.44272,405,1.98806,-0.146,-0.07518,0.42601,5,2D1U,1.0,True,0.348,46,True,left,-0.2506,1.0894,1.4388,0.3494,0.4725,0.5809,0.1084,A
406,0.50119,0.1,2,0.42601,0.23389,0.46778,406,1.98806,-0.286,-0.142,0.35919,5,2U1D,1.0,True,0.314,46,True,left,0.0,1.3852,1.6682,0.283,0.4933,0.8519,0.3587,A
407,0.50119,0.1,1,0.30072,0.40931,0.71838,407,2.28879,-0.286,-0.142,0.35919,5,2U1D,2.0,True,0.219,46,True,right,-0.16706,0.3626,0.5796,0.217,1.4461,1.6379,0.1919,A
408,0.50119,1.2,2,0.37589,0.40931,0.83532,408,2.54772,-0.146,-0.07518,0.42601,5,2D1U,1.0,True,0.215,46,True,left,0.2506,1.9051,2.2888,0.3837,0.2136,1.0388,0.8251,A
409,0.50119,1.2,2,0.25895,0.20048,0.67661,409,2.02148,-0.232,-0.11694,0.38425,5,2U1D,1.0,True,0.317,46,False,left,-0.2506,1.3815,1.7235,0.342,0.3483,0.6733,0.325,A
410,0.50119,1.2,2,0.2506,0.32577,0.65155,410,2.11336,-0.232,-0.11694,0.38425,5,2U1D,1.0,True,0.19,46,False,left,0.0,1.4745,1.8161,0.3417,0.2164,0.7915,0.5751,A
411,0.50119,1.2,1,0.24224,0.36754,0.44272,411,2.00476,-0.092,-0.05012,0.45107,5,2D1U,1.0,False,0.396,46,False,left,-0.16706,0.204,0.729,0.525,1.2205,1.629,0.4085,A
412,0.50119,0.1,1,0.30907,0.43437,0.41766,412,2.0883,-0.146,-0.07518,0.42601,5,2D1U,2.0,True,0.113,47,True,right,0.2506,0.3765,0.6592,0.2827,1.0177,1.6258,0.6081,A
413,0.50119,0.1,2,0.24224,0.20883,0.42601,413,1.80428,-0.146,-0.07518,0.42601,5,2D1U,1.0,True,6.404,47,True,left,-0.2506,1.0302,1.3801,0.3499,0.4302,0.5386,0.1083,A
414,0.50119,0.1,1,0.29236,0.30072,0.57637,414,2.07995,-0.178,-0.09189,0.40931,5,2U1D,1.0,False,3.791,46,False,left,0.0,0.3599,0.6256,0.2657,1.268,1.6261,0.3581,A
415,0.50119,0.1,1,0.35083,0.27566,0.77685,415,2.28878,-0.232,-0.11694,0.38425,5,2U1D,2.0,True,0.258,47,True,right,-0.16706,0.4141,0.6555,0.2415,1.5806,1.7724,0.1918,A
416,0.50119,1.2,2,0.33413,0.35083,0.89379,416,2.46419,-0.232,-0.11694,0.38425,5,2U1D,1.0,True,0.288,47,True,left,0.2506,1.9216,2.2634,0.3418,0.1714,0.9966,0.8252,A
417,0.50119,1.2,2,0.35919,0.37589,0.57637,417,2.26371,-0.092,-0.05012,0.45107,5,2D1U,1.0,True,1.359,48,True,left,-0.2506,1.3819,1.7902,0.4083,0.4489,0.7731,0.3242,A
418,0.50119,1.2,2,0.21718,0.40931,0.84367,418,2.42242,-0.092,-0.05012,0.45107,5,2D1U,1.0,True,0.393,48,True,left,0.0,1.6297,2.0387,0.409,0.1799,0.7552,0.5753,A
419,0.50119,1.2,2,0.29236,0.25895,0.65155,419,2.11336,-0.178,-0.09189,0.40931,5,2U1D,1.0,True,0.386,48,True,left,-0.16706,1.4364,1.8026,0.3661,0.3445,0.753,0.4085,A
420,0.50119,0.1,2,0.44272,0.23389,0.75179,420,2.41408,-0.038,-0.01671,0.48449,5,2D1U,1.0,True,0.297,48,False,left,0.2506,1.8073,2.2154,0.4081,0.3816,0.9904,0.6088,A
421,0.50119,0.1,2,0.25895,0.40931,0.81026,421,2.38902,-0.178,-0.09189,0.40931,5,2U1D,2.0,False,0.45,48,True,right,-0.2506,1.4286,1.7618,0.3333,0.4451,0.5539,0.1088,A
422,0.50119,0.1,2,0.20883,0.40095,0.50119,422,2.09665,-0.038,-0.01671,0.48449,5,2D1U,2.0,False,1.083,48,False,right,0.0,1.1977,1.6063,0.4086,0.2721,0.6309,0.3588,A
423,0.50119,0.1,2,0.20883,0.30907,0.55131,423,1.95465,-0.232,-0.11694,0.38425,5,2U1D,1.0,True,0.175,49,True,left,-0.16706,1.1642,1.4729,0.3087,0.3562,0.5478,0.1916,A
424,0.50119,1.2,1,0.40095,0.23389,0.42601,424,1.94629,-0.232,-0.11694,0.38425,5,2U1D,2.0,True,0.456,49,True,right,0.2506,0.3695,0.828,0.4585,1.0949,1.9195,0.8246,A
425,0.50119,1.2,1,0.2673,0.42601,0.71002,425,2.31383,-0.178,-0.09189,0.40931,5,2U1D,1.0,False,0.227,50,True,left,-0.2506,0.2306,0.7141,0.4835,1.5144,1.8387,0.3243,A
426,0.50119,1.2,1,0.24224,0.27566,0.55131,426,2.02147,-0.092,-0.05012,0.45107,5,2D1U,1.0,False,0.342,49,True,left,0.0,0.2049,0.7296,0.5247,1.2467,1.8215,0.5748,A
427,0.50119,1.2,1,0.42601,0.35919,0.75179,427,2.46419,-0.146,-0.07518,0.42601,5,2D1U,2.0,True,0.32,49,False,right,-0.16706,0.3928,0.8922,0.4994,1.6922,2.1008,0.4086,A
428,0.50119,0.1,2,0.22554,0.31742,0.85203,428,2.32219,-0.146,-0.07518,0.42601,5,2D1U,1.0,True,0.314,49,False,left,0.2506,1.6915,2.0421,0.3506,0.1667,0.7749,0.6082,A
429,0.50119,0.1,1,0.25895,0.29236,0.71002,429,2.21359,-0.092,-0.05012,0.45107,5,2D1U,2.0,True,0.32,50,True,right,-0.2506,0.3268,0.6351,0.3082,1.5354,1.6436,0.1082,A
430,0.50119,0.1,2,0.33413,0.40095,0.70167,430,2.32219,-0.232,-0.11694,0.38425,5,2U1D,1.0,True,0.115,51,True,left,0.0,1.5227,1.8308,0.3081,0.3974,0.7562,0.3587,A
431,0.50119,0.1,1,0.2506,0.40931,0.69332,431,2.23867,-0.232,-0.11694,0.38425,5,2U1D,2.0,True,0.113,51,True,right,-0.16706,0.3148,0.5564,0.2416,1.3987,1.5901,0.1914,A
432,0.50119,1.2,2,0.40095,0.35919,0.86873,432,2.58113,-0.092,-0.05012,0.45107,5,2D1U,1.0,True,0.3,50,True,left,0.2506,1.9639,2.3739,0.41,0.2398,1.0651,0.8253,A
433,0.50119,1.2,1,0.28401,0.20048,0.83532,433,2.30549,-0.038,-0.01671,0.48449,5,2D1U,2.0,True,0.225,50,False,right,-0.2506,0.2507,0.8091,0.5584,1.7342,2.0589,0.3247,A
434,0.50119,1.2,1,0.41766,0.31742,0.72673,434,2.37231,-0.178,-0.09189,0.40931,5,2U1D,2.0,True,0.179,52,True,right,0.0,0.3841,0.8675,0.4833,1.5585,2.1341,0.5756,A
435,0.50119,1.2,2,0.3926,0.41766,0.5179,435,2.23866,-0.178,-0.09189,0.40931,5,2U1D,1.0,True,0.112,52,True,left,-0.16706,1.3979,1.7644,0.3665,0.4392,0.8469,0.4077,A
436,0.50119,0.1,1,0.43437,0.41766,0.55966,436,2.39737,-0.038,-0.01671,0.48449,5,2D1U,2.0,True,0.115,50,False,right,0.2506,0.4977,0.8403,0.3426,1.3401,1.9476,0.6075,A
437,0.50119,0.1,1,0.23389,0.35919,0.47613,437,2.00477,-0.124,-0.05847,0.43437,5,2U1D,2.0,True,1.062,52,False,right,-0.2506,0.2966,0.5882,0.2916,1.2549,1.3631,0.1082,A
438,0.50119,0.1,1,0.35919,0.41766,0.46778,438,2.25537,0.016,0.00835,0.50955,5,2D1U,1.0,True,0.48,50,False,left,0.0,0.4276,0.7949,0.3673,1.3282,1.6862,0.358,A
439,0.50119,0.1,1,0.38425,0.22554,0.71002,439,2.25537,-0.124,-0.05847,0.43437,5,2U1D,2.0,True,0.251,52,False,right,-0.16706,0.4481,0.7393,0.2912,1.5983,1.7898,0.1915,A
440,0.50119,1.2,2,0.30907,0.38425,0.48449,440,2.14678,-0.07,-0.03341,0.46778,5,2U1D,1.0,True,0.245,52,False,left,0.2506,1.4891,1.9141,0.425,0.1486,0.9733,0.8247,A
441,0.50119,1.2,2,0.30907,0.36754,0.5179,441,2.20525,0.016,0.00835,0.50955,5,2D1U,1.0,False,0.691,50,False,left,-0.2506,1.2724,1.7387,0.4663,0.397,0.7226,0.3256,A
442,0.50119,1.2,2,0.43437,0.40095,0.6599,442,2.53101,0.07,0.03341,0.5346,5,2D1U,2.0,True,0.225,51,True,right,0.0,1.6653,2.1573,0.492,0.3981,0.973,0.5749,A
443,0.50119,1.2,1,0.30907,0.43437,0.55966,443,2.33889,0.07,0.03341,0.5346,5,2D1U,1.0,True,0.228,51,True,left,-0.16706,0.2759,0.8842,0.6082,1.4928,1.901,0.4082,A
444,0.50119,0.1,1,0.41766,0.28401,0.44272,444,2.11336,-0.07,-0.03341,0.46778,5,2U1D,2.0,True,0.31,52,False,right,0.2506,0.4803,0.8055,0.3251,1.1894,1.7973,0.6079,A
445,0.50119,0.1,2,0.38425,0.21718,0.40931,445,2.02148,0.016,0.00835,0.50955,5,2D1U,2.0,True,0.291,52,True,right,-0.2506,1.1614,1.5938,0.4325,0.5775,0.686,0.1085,A
446,0.50119,0.1,1,0.23389,0.31742,0.69332,446,2.23866,-0.016,-0.00835,0.49284,5,2U1D,1.0,False,0.157,52,False,left,0.0,0.3016,0.6517,0.3501,1.4101,1.768,0.358,A
447,0.50119,0.1,2,0.3926,0.35919,0.50955,447,2.27208,0.016,0.00835,0.50955,5,2D1U,2.0,True,0.211,52,True,right,-0.16706,1.3041,1.7376,0.4335,0.5373,0.7291,0.1918,A
448,0.50119,1.2,2,0.21718,0.30072,0.5346,448,2.02147,-0.07,-0.03341,0.46778,5,2U1D,1.0,True,0.273,53,True,left,0.2506,1.4522,1.8769,0.4248,0.0597,0.8853,0.8256,A
449,0.50119,1.2,1,0.30907,0.33413,0.86873,449,2.4809,-0.07,-0.03341,0.46778,5,2U1D,1.0,False,0.942,53,True,left,-0.2506,0.2701,0.8117,0.5416,1.7695,2.095,0.3255,A
450,0.50119,1.2,1,0.25895,0.43437,0.47613,450,2.15513,-0.038,-0.01671,0.48449,5,2D1U,1.0,False,0.27,52,False,left,0.0,0.2275,0.7857,0.5583,1.2274,1.8022,0.5748,A
451,0.50119,1.2,2,0.32577,0.22554,0.66826,451,2.17183,-0.092,-0.05012,0.45107,5,2D1U,1.0,True,0.292,53,True,left,-0.16706,1.4813,1.891,0.4097,0.3735,0.7816,0.4081,A
452,0.50119,0.1,1,0.28401,0.30072,0.47613,452,2.01312,-0.092,-0.05012,0.45107,5,2D1U,1.0,False,0.258,53,True,left,0.2506,0.3455,0.654,0.3084,1.0697,1.6787,0.6091,A
453,0.50119,0.1,1,0.29236,0.23389,0.62649,453,2.0883,-0.124,-0.05847,0.43437,5,2U1D,2.0,True,1.406,53,False,right,-0.2506,0.3589,0.6516,0.2927,1.4679,1.5759,0.108,A
454,0.50119,0.1,2,0.23389,0.23389,0.88544,454,2.28878,-0.124,-0.05847,0.43437,5,2U1D,1.0,True,0.25,53,False,left,0.0,1.6069,1.965,0.3581,0.2983,0.6571,0.3587,A
455,0.50119,0.1,1,0.34248,0.2673,0.62649,455,2.20524,-0.07,-0.03341,0.46778,5,2U1D,1.0,False,0.91,54,True,left,-0.16706,0.4053,0.7303,0.325,1.5054,1.697,0.1916,A
456,0.50119,1.2,2,0.36754,0.43437,0.7852,456,2.51431,-0.146,-0.07518,0.42601,5,2D1U,1.0,True,0.285,53,False,left,0.2506,1.8501,2.2333,0.3832,0.2075,1.0335,0.826,A
457,0.50119,1.2,2,0.37589,0.22554,0.69332,457,2.22195,-0.146,-0.07518,0.42601,5,2D1U,1.0,True,0.272,53,False,left,-0.2506,1.5199,1.9039,0.384,0.4705,0.7952,0.3247,A
458,0.50119,1.2,2,0.30072,0.33413,0.74343,458,2.33054,-0.092,-0.05012,0.45107,5,2D1U,2.0,False,0.256,54,True,right,0.0,1.6157,2.0239,0.4081,0.2656,0.8402,0.5747,A
459,0.50119,1.2,1,0.30907,0.34248,0.83532,459,2.41407,-0.146,-0.07518,0.42601,5,2D1U,1.0,False,0.686,55,True,left,-0.16706,0.2723,0.7731,0.5008,1.6565,2.064,0.4075,A
460,0.50119,0.1,2,0.2506,0.20883,0.56802,460,1.96301,-0.124,-0.05847,0.43437,5,2U1D,1.0,True,0.305,55,True,left,0.2506,1.4363,1.7938,0.3575,0.1938,0.8027,0.6089,A
461,0.50119,0.1,1,0.40931,0.21718,0.57637,461,2.105,-0.2,-0.10024,0.40095,5,2D1U,2.0,True,0.245,55,False,right,-0.2506,0.4701,0.728,0.2579,1.4949,1.604,0.1092,A
462,0.50119,0.1,1,0.28401,0.37589,0.69332,462,2.25536,-0.2,-0.10024,0.40095,5,2D1U,2.0,True,0.279,55,False,right,0.0,0.351,0.6089,0.2579,1.3676,1.7262,0.3586,A
463,0.50119,0.1,1,0.35083,0.29236,0.55131,463,2.13006,-0.124,-0.05847,0.43437,5,2U1D,1.0,False,2.409,55,True,left,-0.16706,0.4176,0.7097,0.2921,1.4102,1.6019,0.1917,A
464,0.50119,1.2,2,0.31742,0.23389,0.71838,464,2.19689,-0.146,-0.07518,0.42601,5,2D1U,1.0,True,0.337,56,True,left,0.2506,1.7344,2.1177,0.3833,0.1589,0.9844,0.8255,A
465,0.50119,1.2,1,0.29236,0.20048,0.46778,465,1.88782,-0.146,-0.07518,0.42601,5,2D1U,1.0,False,0.275,56,True,left,-0.2506,0.2585,0.7595,0.501,1.3174,1.6429,0.3255,A
466,0.50119,1.2,1,0.33413,0.27566,0.49284,466,2.01313,-0.178,-0.09189,0.40931,5,2U1D,1.0,False,0.592,55,False,left,0.0,0.3028,0.7858,0.483,1.2437,1.8194,0.5756,A
467,0.50119,1.2,2,0.31742,0.29236,0.89379,467,2.40571,-0.2,-0.10024,0.40095,5,2D1U,1.0,True,1.224,57,True,left,-0.16706,1.6988,2.0572,0.3584,0.3644,0.7731,0.4087,A
468,0.50119,0.1,1,0.2673,0.36754,0.40095,468,1.92123,-0.232,-0.11694,0.38425,5,2U1D,1.0,False,0.122,55,False,left,0.2506,0.3323,0.5739,0.2416,0.9154,1.5235,0.6082,A
469,0.50119,0.1,2,0.36754,0.20883,0.62649,469,2.105,-0.2,-0.10024,0.40095,5,2D1U,1.0,True,1.073,57,True,left,-0.2506,1.3593,1.6835,0.3242,0.5594,0.6678,0.1084,A
470,0.50119,0.1,2,0.21718,0.2506,0.88544,470,2.28042,-0.146,-0.07518,0.42601,5,2D1U,1.0,True,0.284,58,True,left,0.0,1.5914,1.9419,0.3505,0.2836,0.6415,0.3579,A
471,0.50119,0.1,2,0.31742,0.34248,0.77685,471,2.29713,-0.286,-0.142,0.35919,5,2U1D,1.0,True,0.733,55,False,left,-0.16706,1.5013,1.7849,0.2835,0.4683,0.6615,0.1933,A
472,0.50119,1.2,1,0.24224,0.34248,0.45107,472,1.96299,-0.146,-0.07518,0.42601,5,2D1U,2.0,True,0.196,58,True,right,0.2506,0.2052,0.7052,0.5,0.9964,1.8219,0.8254,A
473,0.50119,1.2,2,0.34248,0.44272,0.71838,473,2.45584,-0.092,-0.05012,0.45107,5,2D1U,1.0,True,0.258,58,False,left,-0.2506,1.5068,1.9147,0.4079,0.4314,0.7567,0.3253,A
474,0.50119,1.2,1,0.2506,0.22554,0.88544,474,2.22196,-0.286,-0.142,0.35919,5,2U1D,2.0,True,0.334,55,False,right,0.0,0.2124,0.6458,0.4335,1.4954,2.0703,0.5749,A
475,0.50119,1.2,2,0.32577,0.3926,0.7852,475,2.45583,-0.092,-0.05012,0.45107,5,2D1U,1.0,True,0.306,58,False,left,-0.16706,1.6017,2.0092,0.4075,0.3765,0.7845,0.408,A
476,0.50119,0.1,1,0.2506,0.44272,0.77685,476,2.35561,-0.232,-0.11694,0.38425,5,2U1D,2.0,True,0.354,56,True,right,0.2506,0.3142,0.5561,0.2419,1.2722,1.8807,0.6085,A
477,0.50119,0.1,2,0.36754,0.23389,0.83532,477,2.32219,-0.232,-0.11694,0.38425,5,2U1D,1.0,True,0.337,56,True,left,-0.2506,1.5641,1.873,0.3089,0.5562,0.6646,0.1084,A
478,0.50119,0.1,1,0.20048,0.43437,0.62649,478,2.24702,-0.038,-0.01671,0.48449,5,2D1U,2.0,True,1.811,58,False,right,0.0,0.2661,0.6075,0.3414,1.2995,1.6578,0.3584,A
479,0.50119,0.1,1,0.22554,0.34248,0.49284,479,2.04654,-0.038,-0.01671,0.48449,5,2D1U,1.0,False,0.887,58,False,left,-0.16706,0.2904,0.632,0.3417,1.2733,1.465,0.1916,A
480,0.50119,1.2,1,0.24224,0.40095,0.79355,480,2.34724,-0.178,-0.09189,0.40931,5,2U1D,2.0,True,1.701,56,False,right,0.2506,0.2052,0.6883,0.4832,1.3223,2.1471,0.8248,A
481,0.50119,1.2,1,0.22554,0.34248,0.54296,481,2.06324,-0.092,-0.05012,0.45107,5,2D1U,1.0,False,0.243,59,True,left,-0.2506,0.1872,0.7125,0.5253,1.3458,1.6704,0.3246,A
482,0.50119,1.2,1,0.20883,0.36754,0.80191,482,2.30548,-0.146,-0.07518,0.42601,5,2D1U,2.0,True,0.248,59,False,right,0.0,0.1756,0.6752,0.4996,1.4417,2.0164,0.5747,A
483,0.50119,1.2,1,0.30072,0.45107,0.57637,483,2.25536,-0.146,-0.07518,0.42601,5,2D1U,1.0,False,1.113,59,False,left,-0.16706,0.2671,0.7682,0.5011,1.3929,1.8013,0.4084,A
484,0.50119,0.1,1,0.41766,0.20048,0.86873,484,2.39737,-0.178,-0.09189,0.40931,5,2U1D,2.0,True,0.451,56,False,right,0.2506,0.4854,0.7522,0.2667,1.5605,2.1694,0.6089,A
485,0.50119,0.1,2,0.32577,0.29236,0.41766,485,1.97135,-0.124,-0.05847,0.43437,5,2U1D,1.0,True,0.267,56,False,left,-0.2506,1.1057,1.4642,0.3586,0.5143,0.6229,0.1085,A
486,0.50119,0.1,1,0.38425,0.31742,0.86873,486,2.47254,-0.2,-0.10024,0.40095,5,2D1U,2.0,True,0.616,59,False,right,0.0,0.4493,0.7079,0.2587,1.6408,1.9992,0.3584,A
487,0.50119,0.1,1,0.45107,0.25895,0.63484,487,2.247,-0.2,-0.10024,0.40095,5,2D1U,2.0,True,1.248,59,False,right,-0.16706,0.5168,0.7752,0.2584,1.5582,1.7502,0.1921,A
488,0.50119,1.2,2,0.36754,0.25895,0.52625,488,2.0883,-0.124,-0.05847,0.43437,5,2U1D,1.0,True,0.273,56,False,left,0.2506,1.5928,1.9845,0.3918,0.2097,1.0339,0.8242,A
489,0.50119,1.2,2,0.41766,0.35083,0.72673,489,2.42242,-0.146,-0.07518,0.42601,5,2D1U,1.0,True,0.687,60,True,left,-0.2506,1.593,1.9765,0.3834,0.5092,0.8342,0.325,A
490,0.50119,1.2,1,0.21718,0.24224,0.45943,490,1.88782,-0.07,-0.03341,0.46778,5,2U1D,1.0,False,1.32,56,False,left,0.0,0.1807,0.7222,0.5416,1.1472,1.7222,0.5751,A
491,0.50119,1.2,2,0.38425,0.2506,0.73508,491,2.29713,-0.146,-0.07518,0.42601,5,2D1U,2.0,False,0.276,60,True,right,-0.16706,1.6051,1.9887,0.3836,0.4305,0.8389,0.4084,A
492,0.50119,0.1,1,0.20883,0.31742,0.55966,492,2.02147,-0.124,-0.05847,0.43437,5,2U1D,2.0,True,1.455,57,True,right,0.2506,0.27,0.5625,0.2924,1.0623,1.6706,0.6083,A
493,0.50119,0.1,2,0.28401,0.2673,0.42601,493,1.87946,-0.2,-0.10024,0.40095,5,2D1U,2.0,False,0.326,61,True,right,-0.2506,1.0705,1.3957,0.3252,0.4708,0.5788,0.108,A
494,0.50119,0.1,1,0.21718,0.20883,0.55966,494,1.92123,-0.124,-0.05847,0.43437,5,2U1D,2.0,True,0.304,57,True,right,0.0,0.2793,0.5714,0.2921,1.1959,1.5545,0.3586,A
495,0.50119,0.1,2,0.2673,0.23389,0.86038,495,2.23865,-0.254,-0.1253,0.37589,5,2D1U,1.0,True,0.257,61,False,left,-0.16706,1.5342,1.8346,0.3004,0.4181,0.6091,0.191,A
496,0.50119,1.2,2,0.30072,0.30907,0.75179,496,2.33055,-0.07,-0.03341,0.46778,5,2U1D,1.0,True,0.408,58,True,left,0.2506,1.7457,2.1703,0.4246,0.1368,0.9627,0.8259,A
497,0.50119,1.2,2,0.35919,0.40095,0.85203,497,2.48925,-0.254,-0.1253,0.37589,5,2D1U,1.0,True,0.248,61,False,left,-0.2506,1.6592,1.9926,0.3334,0.4509,0.7754,0.3245,A
498,0.50119,1.2,2,0.32577,0.35083,0.76014,498,2.33888,-0.2,-0.10024,0.40095,5,2D1U,1.0,True,0.247,62,True,left,0.0,1.6574,2.0156,0.3582,0.2904,0.8655,0.5751,A
499,0.50119,1.2,2,0.33413,0.38425,0.68496,499,2.37231,-0.07,-0.03341,0.46778,5,2U1D,2.0,False,0.291,58,True,right,-0.16706,1.51,1.9345,0.4245,0.3849,0.7938,0.4089,A
500,0.50119,0.1,2,0.35083,0.33413,0.71002,500,2.33054,-0.124,-0.05847,0.43437,5,2U1D,1.0,True,0.134,59,True,left,0.2506,1.6746,2.0329,0.3583,0.2911,0.8994,0.6082,A
501,0.50119,0.1,2,0.35919,0.42601,0.89379,501,2.58113,-0.2,-0.10024,0.40095,5,2D1U,1.0,True,0.113,62,True,left,-0.2506,1.6177,1.9428,0.3251,0.5515,0.6596,0.1081,A
502,0.50119,0.1,2,0.29236,0.33413,0.41766,502,1.97135,-0.146,-0.07518,0.42601,5,2D1U,1.0,True,0.382,62,False,left,0.0,1.2017,1.5521,0.3503,0.3597,0.7188,0.3592,A
503,0.50119,0.1,1,0.2506,0.40931,0.49284,503,2.07995,-0.146,-0.07518,0.42601,5,2D1U,2.0,True,0.112,62,False,right,-0.16706,0.3169,0.6001,0.2833,1.2417,1.4336,0.1919,A
504,0.50119,1.2,1,0.27566,0.30907,0.54296,504,2.06325,-0.124,-0.05847,0.43437,5,2U1D,1.0,False,0.413,59,True,left,0.2506,0.2435,0.7515,0.508,1.1347,1.9598,0.8251,A
505,0.50119,1.2,1,0.3926,0.36754,0.68496,505,2.39736,-0.092,-0.05012,0.45107,5,2D1U,2.0,True,0.248,62,False,right,-0.2506,0.3551,0.8803,0.5252,1.6554,1.9808,0.3254,A
506,0.50119,1.2,1,0.28401,0.32577,0.44272,506,2.00476,-0.092,-0.05012,0.45107,5,2D1U,1.0,False,0.244,62,False,left,0.0,0.2473,0.7726,0.5253,1.1807,1.7546,0.5739,A
507,0.50119,1.2,1,0.35919,0.37589,0.81861,507,2.46419,-0.178,-0.09189,0.40931,5,2U1D,1.0,False,0.725,59,False,left,-0.16706,0.3196,0.803,0.4834,1.6693,2.0779,0.4086,A
508,0.50119,0.1,1,0.20048,0.40931,0.65155,508,2.14678,-0.232,-0.11694,0.38425,5,2U1D,2.0,True,0.897,59,False,right,0.2506,0.2625,0.5042,0.2417,1.0965,1.7043,0.6078,A
509,0.50119,0.1,1,0.22554,0.40931,0.46778,509,1.98807,-0.232,-0.11694,0.38425,5,2U1D,2.0,True,0.302,59,False,right,-0.2506,0.29,0.5315,0.2415,1.1902,1.2984,0.1083,A
510,0.50119,0.1,2,0.2673,0.35919,0.46778,510,2.02147,-0.146,-0.07518,0.42601,5,2D1U,1.0,True,0.25,63,True,left,0.0,1.2222,1.5724,0.3502,0.3309,0.6886,0.3577,A
511,0.50119,0.1,2,0.2673,0.43437,0.45107,511,2.07994,-0.146,-0.07518,0.42601,5,2D1U,2.0,False,0.15,63,True,right,-0.16706,1.1241,1.475,0.3509,0.4161,0.6079,0.1918,A
512,0.50119,1.2,1,0.22554,0.22554,0.48449,512,1.83771,-0.2,-0.10024,0.40095,5,2D1U,2.0,True,1.414,63,False,right,0.2506,0.1936,0.6685,0.4748,0.9937,1.8185,0.8249,A
513,0.50119,1.2,2,0.20883,0.35919,0.81026,513,2.28878,-0.178,-0.09189,0.40931,5,2U1D,1.0,True,0.294,60,True,left,-0.2506,1.4698,1.837,0.3672,0.3034,0.6287,0.3253,A
514,0.50119,1.2,2,0.40095,0.29236,0.86873,514,2.46418,-0.2,-0.10024,0.40095,5,2D1U,1.0,True,0.338,63,False,left,0.0,1.8416,2.2002,0.3586,0.366,0.9417,0.5757,A
515,0.50119,1.2,2,0.20883,0.43437,0.76014,515,2.33054,-0.146,-0.07518,0.42601,5,2D1U,2.0,False,0.114,64,True,right,-0.16706,1.4552,1.8389,0.3837,0.2555,0.6639,0.4084,A
516,0.50119,0.1,1,0.35083,0.34248,0.72673,516,2.32218,-0.2,-0.10024,0.40095,5,2D1U,2.0,True,0.39,65,True,right,0.2506,0.4159,0.6746,0.2587,1.3418,1.9495,0.6077,A
517,0.50119,0.1,2,0.35919,0.25895,0.76014,517,2.28878,-0.178,-0.09189,0.40931,5,2U1D,1.0,True,0.345,60,True,left,-0.2506,1.4815,1.8157,0.3342,0.5487,0.6572,0.1085,A
518,0.50119,0.1,2,0.36754,0.40931,0.6432,518,2.32219,-0.2,-0.10024,0.40095,5,2D1U,2.0,False,0.316,65,True,right,0.0,1.4956,1.8213,0.3257,0.43,0.7875,0.3574,A
519,0.50119,0.1,1,0.43437,0.2673,0.5179,519,2.15513,-0.124,-0.05847,0.43437,5,2U1D,2.0,True,0.381,60,False,right,-0.16706,0.4965,0.7879,0.2914,1.4536,1.6462,0.1926,A
520,0.50119,1.2,2,0.27566,0.20048,0.89379,520,2.30549,-0.124,-0.05847,0.43437,5,2U1D,1.0,True,0.334,60,False,left,0.2506,1.8626,2.2542,0.3916,0.1134,0.9377,0.8242,A
521,0.50119,1.2,2,0.43437,0.31742,0.76014,521,2.4809,-0.07,-0.03341,0.46778,5,2U1D,2.0,False,0.315,60,False,right,-0.2506,1.6397,2.0638,0.4241,0.5228,0.8478,0.325,A
522,0.50119,1.2,1,0.20883,0.23389,0.75179,522,2.07159,-0.254,-0.1253,0.37589,5,2D1U,2.0,True,0.303,65,False,right,0.0,0.1711,0.6212,0.45,1.3386,1.9133,0.5747,A
523,0.50119,1.2,2,0.35083,0.43437,0.55131,523,2.21359,-0.254,-0.1253,0.37589,5,2D1U,1.0,True,0.269,65,False,left,-0.16706,1.3882,1.7222,0.334,0.3966,0.8049,0.4083,A
524,0.50119,0.1,1,0.40095,0.40095,0.68496,524,2.389,-0.2,-0.10024,0.40095,5,2D1U,2.0,True,0.447,66,True,right,0.2506,0.4659,0.7234,0.2574,1.3487,1.9574,0.6087,A
525,0.50119,0.1,2,0.40931,0.38425,0.62649,525,2.32219,-0.2,-0.10024,0.40095,5,2D1U,1.0,True,0.279,66,True,left,-0.2506,1.3995,1.7245,0.325,0.5998,0.7078,0.108,A
526,0.50119,0.1,1,0.44272,0.30907,0.72673,526,2.41408,-0.124,-0.05847,0.43437,5,2U1D,2.0,True,0.226,61,True,right,0.0,0.5038,0.7952,0.2914,1.5868,1.945,0.3582,A
527,0.50119,0.1,1,0.42601,0.36754,0.77685,527,2.4976,-0.146,-0.07518,0.42601,5,2D1U,1.0,False,0.257,66,False,left,-0.16706,0.4912,0.7743,0.2831,1.699,1.8908,0.1919,A
528,0.50119,1.2,1,0.31742,0.31742,0.63484,528,2.20524,-0.124,-0.05847,0.43437,5,2U1D,1.0,False,0.344,61,True,left,0.2506,0.2798,0.7882,0.5084,1.264,2.0886,0.8246,A
529,0.50119,1.2,2,0.35083,0.23389,0.86873,529,2.36395,-0.178,-0.09189,0.40931,5,2U1D,1.0,True,0.262,61,False,left,-0.2506,1.6641,2.03,0.3659,0.4386,0.7635,0.3248,A
530,0.50119,1.2,2,0.32577,0.2673,0.52625,530,2.02982,-0.178,-0.09189,0.40931,5,2U1D,1.0,True,0.459,61,False,left,0.0,1.4206,1.7872,0.3666,0.2872,0.8622,0.575,A
531,0.50119,1.2,2,0.29236,0.2673,0.6599,531,2.15512,-0.124,-0.05847,0.43437,5,2U1D,2.0,False,0.325,62,True,right,-0.16706,1.4404,1.8331,0.3927,0.3411,0.7493,0.4082,A
532,0.50119,0.1,1,0.22554,0.35919,0.60143,532,2.0883,-0.2,-0.10024,0.40095,5,2D1U,2.0,True,0.114,67,True,right,0.2506,0.2948,0.5529,0.2581,1.0944,1.7023,0.6079,A
533,0.50119,0.1,1,0.2506,0.22554,0.83532,533,2.22196,-0.178,-0.09189,0.40931,5,2U1D,1.0,False,0.422,63,True,left,-0.2506,0.3178,0.5837,0.2659,1.6099,1.718,0.1081,A
534,0.50119,0.1,1,0.35919,0.35083,0.75179,534,2.34725,-0.232,-0.11694,0.38425,5,2U1D,2.0,True,0.234,63,False,right,0.0,0.424,0.6654,0.2414,1.4827,1.8406,0.3578,A
535,0.50119,0.1,1,0.40931,0.35083,0.52625,535,2.18853,-0.2,-0.10024,0.40095,5,2D1U,1.0,False,0.561,67,True,left,-0.16706,0.4752,0.7339,0.2587,1.4085,1.6001,0.1916,A
536,0.50119,1.2,2,0.3926,0.40931,0.45943,536,2.13842,-0.254,-0.1253,0.37589,5,2D1U,1.0,True,0.314,67,False,left,0.2506,1.5471,1.8804,0.3332,0.2301,1.0555,0.8253,A
537,0.50119,1.2,1,0.37589,0.29236,0.68496,537,2.23865,-0.232,-0.11694,0.38425,5,2U1D,1.0,False,0.291,63,False,left,-0.2506,0.3401,0.7981,0.458,1.573,1.8992,0.3262,A
538,0.50119,1.2,2,0.43437,0.38425,0.76014,538,2.45584,-0.254,-0.1253,0.37589,5,2D1U,1.0,True,0.555,67,False,left,0.0,1.7678,2.1004,0.3326,0.4001,0.9753,0.5753,A
539,0.50119,1.2,1,0.20048,0.2506,0.80191,539,2.11337,-0.286,-0.142,0.35919,5,2U1D,2.0,True,0.289,63,False,right,-0.16706,0.1672,0.6001,0.4329,1.4507,1.8592,0.4086,A
540,0.50119,0.1,2,0.20048,0.38425,0.85203,540,2.29714,-0.286,-0.142,0.35919,5,2U1D,1.0,True,0.27,63,False,left,0.2506,1.6651,1.9487,0.2836,0.1407,0.7489,0.6082,A
541,0.50119,0.1,2,0.42601,0.36754,0.61814,541,2.31383,-0.2,-0.10024,0.40095,5,2D1U,1.0,True,0.289,68,True,left,-0.2506,1.4117,1.7357,0.324,0.6198,0.7278,0.108,A
542,0.50119,0.1,2,0.45107,0.30072,0.5346,542,2.17183,-0.232,-0.11694,0.38425,5,2U1D,1.0,True,0.225,64,True,left,0.0,1.4741,1.7825,0.3084,0.5157,0.8742,0.3584,A
543,0.50119,0.1,1,0.33413,0.2506,0.57637,543,2.06324,-0.2,-0.10024,0.40095,5,2D1U,2.0,True,0.288,68,True,right,-0.16706,0.3968,0.6554,0.2586,1.3809,1.5714,0.1905,A
544,0.50119,1.2,1,0.3926,0.21718,0.76014,544,2.25536,-0.232,-0.11694,0.38425,5,2U1D,2.0,True,0.408,64,True,right,0.2506,0.3561,0.8151,0.459,1.4151,2.2402,0.825,A
545,0.50119,1.2,1,0.45107,0.28401,0.73508,545,2.39736,-0.146,-0.07518,0.42601,5,2D1U,1.0,False,0.532,68,False,left,-0.2506,0.411,0.9107,0.4997,1.7358,2.0609,0.3251,A
546,0.50119,1.2,2,0.45107,0.30072,0.85203,546,2.51432,-0.178,-0.09189,0.40931,5,2U1D,1.0,True,0.313,64,False,left,0.0,1.8709,2.2371,0.3662,0.4121,0.9876,0.5756,A
547,0.50119,1.2,2,0.30907,0.27566,0.57637,547,2.06324,-0.2,-0.10024,0.40095,5,2D1U,1.0,True,0.54,69,True,left,-0.16706,1.3759,1.7343,0.3583,0.3593,0.7675,0.4082,A
548,0.50119,0.1,1,0.31742,0.25895,0.89379,548,2.3723,-0.2,-0.10024,0.40095,5,2D1U,2.0,True,0.306,69,True,right,0.2506,0.3846,0.643,0.2584,1.4763,2.0846,0.6084,A
549,0.50119,0.1,1,0.44272,0.32577,0.69332,549,2.38901,-0.146,-0.07518,0.42601,5,2D1U,1.0,False,0.354,70,True,left,-0.2506,0.5066,0.79,0.2834,1.6735,1.7821,0.1086,A
550,0.50119,0.1,2,0.2506,0.35919,0.48449,550,2.00478,-0.178,-0.09189,0.40931,5,2U1D,1.0,True,0.128,64,False,left,0.0,1.222,1.5545,0.3326,0.3135,0.6721,0.3586,A
551,0.50119,0.1,2,0.3926,0.30907,0.48449,551,2.12172,-0.124,-0.05847,0.43437,5,2U1D,2.0,False,0.263,64,False,right,-0.16706,1.2817,1.6401,0.3584,0.5402,0.7317,0.1915,A
552,0.50119,1.2,2,0.40095,0.44272,0.55131,552,2.29712,-0.2,-0.10024,0.40095,5,2D1U,1.0,True,0.453,71,True,left,0.2506,1.6473,2.0057,0.3584,0.2384,1.0643,0.8259,A
553,0.50119,1.2,2,0.25895,0.35919,0.81861,553,2.33889,-0.2,-0.10024,0.40095,5,2D1U,1.0,True,0.279,71,True,left,-0.2506,1.5273,1.885,0.3577,0.3516,0.6776,0.326,A
554,0.50119,1.2,1,0.33413,0.24224,0.55131,554,2.05488,-0.146,-0.07518,0.42601,5,2D1U,1.0,False,0.497,72,True,left,0.0,0.2947,0.7954,0.5007,1.312,1.887,0.575,A
555,0.50119,1.2,1,0.29236,0.28401,0.62649,555,2.11336,-0.178,-0.09189,0.40931,5,2U1D,2.0,True,0.276,65,True,right,-0.16706,0.255,0.7394,0.4844,1.4147,1.8225,0.4078,A
556,0.50119,0.1,1,0.23389,0.38425,0.5346,556,2.06324,-0.178,-0.09189,0.40931,5,2U1D,2.0,True,1.148,65,True,right,0.2506,0.2973,0.5638,0.2665,1.039,1.6471,0.608,A
557,0.50119,0.1,2,0.35083,0.30907,0.42601,557,1.98805,-0.2,-0.10024,0.40095,5,2D1U,1.0,True,0.415,73,True,left,-0.2506,1.1449,1.4697,0.3248,0.5451,0.6531,0.108,A
558,0.50119,0.1,1,0.40931,0.42601,0.41766,558,2.18854,-0.124,-0.05847,0.43437,5,2U1D,2.0,True,0.975,66,True,right,0.0,0.4779,0.7698,0.2919,1.2529,1.6108,0.3579,A
559,0.50119,0.1,1,0.30907,0.41766,0.59308,559,2.25537,-0.124,-0.05847,0.43437,5,2U1D,1.0,False,1.039,66,True,left,-0.16706,0.3727,0.6638,0.2911,1.4063,1.5972,0.1909,A
560,0.50119,1.2,2,0.20883,0.3926,0.47613,560,1.98806,-0.178,-0.09189,0.40931,5,2U1D,1.0,True,0.451,67,True,left,0.2506,1.384,1.7515,0.3675,0.0508,0.8763,0.8255,A
561,0.50119,1.2,2,0.31742,0.2673,0.57637,561,2.06323,-0.2,-0.10024,0.40095,5,2D1U,1.0,True,0.339,73,True,left,-0.2506,1.3448,1.7032,0.3584,0.4118,0.7367,0.3249,A
562,0.50119,1.2,1,0.43437,0.42601,0.87709,562,2.64797,-0.178,-0.09189,0.40931,5,2U1D,2.0,True,0.254,67,True,right,0.0,0.3979,0.8811,0.4831,1.7221,2.2977,0.5756,A
563,0.50119,1.2,1,0.34248,0.35919,0.65155,563,2.28042,-0.146,-0.07518,0.42601,5,2D1U,2.0,True,0.358,74,True,right,-0.16706,0.309,0.8088,0.4998,1.5087,1.9172,0.4085,A
564,0.50119,0.1,2,0.45107,0.27566,0.5179,564,2.17183,-0.146,-0.07518,0.42601,5,2D1U,1.0,True,0.35,74,True,left,0.2506,1.5861,1.936,0.3499,0.3952,1.0035,0.6083,A
565,0.50119,0.1,1,0.22554,0.42601,0.87709,565,2.4642,-0.124,-0.05847,0.43437,5,2U1D,2.0,True,1.347,68,True,right,-0.2506,0.2909,0.583,0.2921,1.6491,1.7573,0.1083,A
566,0.50119,0.1,2,0.28401,0.2673,0.43437,566,1.92124,-0.124,-0.05847,0.43437,5,2U1D,1.0,True,0.332,68,True,left,0.0,1.2048,1.564,0.3592,0.3459,0.7042,0.3583,A
567,0.50119,0.1,1,0.37589,0.2506,0.41766,567,1.99641,-0.092,-0.05012,0.45107,5,2D1U,1.0,False,0.333,74,False,left,-0.16706,0.4387,0.7475,0.3088,1.3142,1.5058,0.1916,A
568,0.50119,1.2,1,0.30072,0.22554,0.7852,568,2.28043,-0.07,-0.03341,0.46778,5,2U1D,1.0,False,0.459,68,False,left,0.2506,0.2688,0.8103,0.5415,1.4353,2.2602,0.8249,A
569,0.50119,1.2,1,0.25895,0.36754,0.68496,569,2.24701,-0.124,-0.05847,0.43437,5,2U1D,1.0,False,1.364,69,True,left,-0.2506,0.2242,0.7329,0.5087,1.5078,1.8326,0.3249,A
570,0.50119,1.2,2,0.41766,0.23389,0.45943,570,2.02148,-0.178,-0.09189,0.40931,5,2U1D,1.0,True,0.309,69,False,left,0.0,1.4458,1.8129,0.3671,0.3795,0.9542,0.5748,A
571,0.50119,1.2,1,0.41766,0.35919,0.43437,571,2.13842,-0.146,-0.07518,0.42601,5,2D1U,2.0,True,0.291,75,True,right,-0.16706,0.385,0.8854,0.5004,1.3682,1.7767,0.4085,A
572,0.50119,0.1,2,0.22554,0.2673,0.77685,572,2.18019,-0.178,-0.09189,0.40931,5,2U1D,1.0,True,0.3,69,False,left,0.2506,1.6157,1.9487,0.3331,0.1663,0.7745,0.6083,A
573,0.50119,0.1,2,0.3926,0.25895,0.66826,573,2.24701,-0.146,-0.07518,0.42601,5,2D1U,1.0,True,0.324,75,True,left,-0.2506,1.4217,1.772,0.3503,0.5802,0.6883,0.1081,A
574,0.50119,0.1,2,0.36754,0.20883,0.55966,574,2.07159,-0.124,-0.05847,0.43437,5,2U1D,2.0,False,0.69,70,True,right,0.0,1.4187,1.7768,0.3582,0.4353,0.7936,0.3583,A
575,0.50119,0.1,1,0.29236,0.36754,0.68496,575,2.25536,-0.178,-0.09189,0.40931,5,2U1D,2.0,True,0.221,71,True,right,-0.16706,0.3529,0.6194,0.2666,1.453,1.6444,0.1914,A
576,0.50119,1.2,2,0.35083,0.40931,0.52625,576,2.19689,-0.178,-0.09189,0.40931,5,2U1D,1.0,True,0.233,71,True,left,0.2506,1.5728,1.9394,0.3666,0.1896,1.0147,0.8251,A
577,0.50119,1.2,1,0.40931,0.32577,0.87709,577,2.56443,-0.092,-0.05012,0.45107,5,2D1U,2.0,True,0.294,76,True,right,-0.2506,0.3716,0.8965,0.5248,1.8632,2.1885,0.3253,A
578,0.50119,1.2,1,0.2673,0.23389,0.56802,578,2.00477,-0.124,-0.05847,0.43437,5,2U1D,1.0,False,0.47,72,True,left,0.0,0.2283,0.7367,0.5084,1.2698,1.8448,0.575,A
579,0.50119,1.2,1,0.30072,0.3926,0.60143,579,2.24701,-0.092,-0.05012,0.45107,5,2D1U,2.0,True,0.111,76,True,right,-0.16706,0.2631,0.7879,0.5248,1.4379,1.8463,0.4085,A
580,0.50119,0.1,1,0.2673,0.31742,0.57637,580,2.07159,-0.178,-0.09189,0.40931,5,2U1D,2.0,True,0.25,73,True,right,0.2506,0.3348,0.6016,0.2667,1.1186,1.7271,0.6084,A
581,0.50119,0.1,1,0.24224,0.30072,0.45107,581,1.97971,-0.038,-0.01671,0.48449,5,2D1U,2.0,True,0.548,76,False,right,-0.2506,0.3074,0.6491,0.3417,1.2908,1.3992,0.1084,A
582,0.50119,0.1,1,0.20883,0.3926,0.57637,582,2.0883,-0.178,-0.09189,0.40931,5,2U1D,2.0,True,0.378,73,True,right,0.0,0.2722,0.539,0.2668,1.1806,1.5392,0.3586,A
583,0.50119,0.1,2,0.29236,0.45107,0.81026,583,2.53937,-0.038,-0.01671,0.48449,5,2D1U,1.0,True,0.615,76,False,left,-0.16706,1.5064,1.9148,0.4084,0.4397,0.6314,0.1917,A
584,0.50119,1.2,1,0.35919,0.24224,0.43437,584,1.97136,-0.124,-0.05847,0.43437,5,2U1D,2.0,True,1.364,74,True,right,0.2506,0.3225,0.8305,0.508,1.1056,1.9309,0.8253,A
585,0.50119,1.2,2,0.33413,0.2673,0.65155,585,2.26372,0.016,0.00835,0.50955,5,2D1U,1.0,False,0.591,76,False,left,-0.2506,1.4282,1.895,0.4668,0.4197,0.745,0.3252,A
586,0.50119,1.2,2,0.28401,0.2673,0.76014,586,2.24701,-0.124,-0.05847,0.43437,5,2U1D,1.0,True,1.482,74,True,left,0.0,1.6172,2.0087,0.3915,0.2504,0.8254,0.575,A
587,0.50119,1.2,2,0.36754,0.37589,0.5346,587,2.247,-0.07,-0.03341,0.46778,5,2U1D,1.0,True,0.471,74,False,left,-0.16706,1.3935,1.8179,0.4244,0.4181,0.8261,0.4081,A
588,0.50119,0.1,1,0.44272,0.24224,0.77685,588,2.43078,-0.07,-0.03341,0.46778,5,2U1D,2.0,True,0.392,74,False,right,0.2506,0.5031,0.8287,0.3256,1.5448,2.1532,0.6084,A
589,0.50119,0.1,2,0.42601,0.35919,0.77685,589,2.59784,0.07,0.03341,0.5346,5,2D1U,2.0,True,0.401,77,True,right,-0.2506,1.5631,2.0216,0.4584,0.6131,0.7213,0.1082,A
590,0.50119,0.1,1,0.30907,0.33413,0.61814,590,2.25537,-0.016,-0.00835,0.49284,5,2U1D,1.0,False,0.219,74,False,left,0.0,0.3757,0.7259,0.3501,1.4091,1.7673,0.3582,A
591,0.50119,0.1,2,0.37589,0.40931,0.49284,591,2.31383,0.07,0.03341,0.5346,5,2D1U,2.0,True,0.657,77,True,right,-0.16706,1.2772,1.7352,0.458,0.527,0.7186,0.1916,A
592,0.50119,1.2,1,0.29236,0.27566,0.59308,592,2.13007,-0.07,-0.03341,0.46778,5,2U1D,1.0,False,1.5,75,True,left,0.2506,0.2551,0.7965,0.5414,1.2299,2.0549,0.825,A
593,0.50119,1.2,1,0.29236,0.35083,0.6599,593,2.31383,0.016,0.00835,0.50955,5,2D1U,1.0,True,0.535,78,True,left,-0.2506,0.2531,0.8367,0.5836,1.5866,1.9117,0.3251,A
594,0.50119,1.2,1,0.28401,0.33413,0.48449,594,2.03819,-0.124,-0.05847,0.43437,5,2U1D,1.0,False,0.478,75,False,left,0.0,0.2508,0.7593,0.5085,1.2093,1.7843,0.575,A
595,0.50119,1.2,2,0.27566,0.28401,0.47613,595,1.9463,-0.178,-0.09189,0.40931,5,2U1D,1.0,True,0.266,75,False,left,-0.16706,1.2401,1.6066,0.3665,0.3234,0.7317,0.4083,A
596,0.50119,0.1,1,0.45107,0.40931,0.45943,596,2.23031,-0.178,-0.09189,0.40931,5,2U1D,2.0,True,0.45,75,False,right,0.2506,0.5145,0.7812,0.2667,1.1811,1.7894,0.6082,A
597,0.50119,0.1,2,0.41766,0.31742,0.46778,597,2.2136,0.016,0.00835,0.50955,5,2D1U,2.0,True,1.755,78,True,right,-0.2506,1.2478,1.6811,0.4333,0.606,0.7144,0.1084,A
598,0.50119,0.1,2,0.40931,0.40095,0.81861,598,2.56443,-0.124,-0.05847,0.43437,5,2U1D,1.0,True,0.258,76,True,left,0.0,1.717,2.0755,0.3585,0.4757,0.8338,0.3581,A
599,0.50119,0.1,1,0.37589,0.2673,0.67661,599,2.25536,-0.124,-0.05847,0.43437,5,2U1D,1.0,False,0.453,76,True,left,-0.16706,0.4399,0.7318,0.2919,1.5561,1.7479,0.1918,A
600,0.50119,1.2,2,0.28401,0.45107,0.46778,600,2.18854,-0.038,-0.01671,0.48449,5,2D1U,1.0,True,0.464,78,False,left,0.2506,1.4487,1.8903,0.4416,0.1231,0.948,0.8249,A
601,0.50119,1.2,1,0.42601,0.41766,0.56802,601,2.39737,-0.038,-0.01671,0.48449,5,2D1U,2.0,True,1.361,78,False,right,-0.2506,0.3868,0.9454,0.5586,1.6036,1.9286,0.325,A
602,0.50119,1.2,2,0.42601,0.28401,0.49284,602,2.11336,-0.178,-0.09189,0.40931,5,2U1D,1.0,True,0.284,77,True,left,0.0,1.4934,1.8604,0.3671,0.3936,0.9685,0.5749,A
603,0.50119,1.2,1,0.21718,0.32577,0.71838,603,2.27207,0.016,0.00835,0.50955,5,2D1U,2.0,False,0.293,78,False,right,-0.16706,0.1845,0.7676,0.5831,1.5344,1.9431,0.4087,A
604,0.50119,0.1,2,0.43437,0.28401,0.42601,604,2.05489,-0.178,-0.09189,0.40931,5,2U1D,1.0,True,0.265,77,True,left,0.2506,1.4709,1.8034,0.3325,0.3707,0.9786,0.6079,A
605,0.50119,0.1,2,0.3926,0.2506,0.75179,605,2.43078,0.07,0.03341,0.5346,5,2D1U,1.0,False,0.283,79,True,left,-0.2506,1.5059,1.9642,0.4583,0.5811,0.6893,0.1082,A
606,0.50119,0.1,1,0.2506,0.22554,0.84367,606,2.38066,0.124,0.05847,0.55966,5,2D1U,1.0,True,0.366,79,False,left,0.0,0.3167,0.733,0.4163,1.6417,2.0003,0.3585,A
