,standardDur,audNoise,order,preDur,postDur,isiDur,trial_num,totalDur,delta_dur_percents,deltaDurS,testDurS,intensities,current_stair,responses,is_correct,response_rts,stair_num_reversal,stair_is_reversal,response_keys,conflictDur,recordedOnsetVisualTest,recordedOffsetVisualTest,recordedDurVisualTest,recordedOnsetVisualStandard,recordedOffsetVisualStandard,recordedDurVisualStandard,modalityCue
0,0.50016,1.2,1,0.45014,0.43347,0.75024,0,2.93426,0.6,0.30009,0.80025,5,2D1U,1.0,True,0.642,0,False,left,0.16672,0.4181,1.2943,0.8762,1.9272,2.6693,0.7421,A
1,0.50016,0.1,2,0.24174,0.30009,0.77524,1,2.71751,0.8,0.40013,0.90028,5,lapse_rate,2.0,True,0.315,0,False,right,0.08336,1.5501,2.3748,0.8247,0.2675,0.7083,0.4408,A
2,0.50016,1.2,1,0.3251,0.36678,0.6502,2,1.94227,-0.8,-0.40013,0.10003,5,lapse_rate,2.0,True,0.335,0,False,right,-0.08336,0.2892,0.4652,0.176,1.1236,1.6146,0.491,A
3,0.50016,1.2,1,0.4168,0.2084,0.75024,3,2.07566,-0.6,-0.30009,0.20006,5,2U1D,2.0,True,0.357,0,False,right,0.16672,0.381,0.6557,0.2746,1.2892,2.0314,0.7422,A
4,0.50016,1.2,2,0.29176,0.25008,0.43347,4,2.27572,0.6,0.30009,0.80025,5,2D1U,2.0,True,0.276,0,False,right,0.08336,1.3455,2.1039,0.7584,0.22,0.8791,0.6591,A
5,0.50016,0.1,2,0.31677,0.24174,0.81692,5,2.60082,0.45,0.22507,0.72523,5,2D1U,2.0,True,0.209,0,False,right,-0.08336,1.5822,2.2316,0.6494,0.4234,0.6988,0.2753,A
6,0.50016,1.2,1,0.35845,0.33344,0.47515,6,2.56748,0.8,0.40013,0.90028,5,lapse_rate,1.0,True,0.28,0,False,left,0.16672,0.3212,1.2966,0.9754,1.6548,2.3962,0.7415,A
7,0.50016,0.1,1,0.22507,0.35011,0.4168,7,1.6922,-0.6,-0.30009,0.20006,5,2U1D,2.0,True,0.254,0,False,right,0.08336,0.2876,0.3453,0.0577,0.7873,1.2281,0.4408,A
8,0.50016,0.1,1,0.25008,0.2084,0.80859,8,2.49246,0.45,0.22507,0.72523,5,2D1U,1.0,True,0.234,0,False,left,-0.08336,0.3118,0.8954,0.5836,1.8119,2.0865,0.2746,A
9,0.50016,0.1,1,0.20006,0.43347,0.61686,9,1.85058,-0.8,-0.40013,0.10003,5,lapse_rate,2.0,True,0.501,0,False,right,0.16672,0.264,0.2215,-0.0425,0.822,1.3465,0.5245,A
10,0.50016,1.2,1,0.38345,0.25841,0.6502,10,2.06731,-0.45,-0.22507,0.27509,5,2U1D,2.0,True,0.283,0,False,right,0.08336,0.3524,0.702,0.3496,1.2779,1.9352,0.6573,A
11,0.50016,1.2,1,0.36678,0.30009,0.52516,11,2.34239,0.3,0.15005,0.6502,5,2D1U,1.0,True,0.314,0,False,left,-0.08336,0.3293,1.0552,0.7259,1.5879,2.0796,0.4917,A
12,0.50016,1.2,2,0.25841,0.24174,0.63353,12,1.90893,-0.45,-0.22507,0.27509,5,2U1D,1.0,True,0.758,0,False,left,0.16672,1.5473,1.7799,0.2326,0.1384,0.8801,0.7416,A
13,0.50016,1.2,2,0.36678,0.2084,0.89195,13,2.86757,0.8,0.40013,0.90028,5,lapse_rate,1.0,False,0.575,0,False,left,0.08336,1.8738,2.7319,0.8581,0.2907,0.9487,0.658,A
14,0.50016,0.1,2,0.30843,0.29176,0.79192,14,2.24238,-0.3,-0.15005,0.35011,5,2U1D,1.0,True,0.272,0,False,left,-0.08336,1.5495,1.8247,0.2753,0.4158,0.691,0.2752,A
15,0.50016,0.1,1,0.29176,0.25841,0.70022,15,1.85058,-0.8,-0.40013,0.10003,5,lapse_rate,2.0,True,0.299,0,False,right,0.16672,0.3555,0.3138,-0.0417,0.9975,1.5228,0.5253,A
16,0.50016,0.1,2,0.23341,0.20006,0.64187,16,2.2257,0.3,0.15005,0.6502,5,2D1U,2.0,True,0.302,0,False,right,0.08336,1.4035,1.9784,0.5749,0.2528,0.695,0.4423,A
17,0.50016,0.1,2,0.36678,0.25008,0.68355,17,2.37575,0.15,0.07502,0.57518,5,2D1U,2.0,True,1.183,0,False,right,-0.08336,1.5,2.0,0.5,0.4747,0.7498,0.2751,A
18,0.50016,1.2,2,0.38345,0.28342,0.73356,18,2.2507,-0.3,-0.15005,0.35011,5,2U1D,1.0,True,0.299,0,False,left,0.16672,1.7711,2.0804,0.3094,0.2642,1.0057,0.7415,A
19,0.50016,1.2,2,0.22507,0.37512,0.45848,19,1.65886,-0.8,-0.40013,0.10003,5,lapse_rate,1.0,True,0.367,0,False,left,0.08336,1.2954,1.3537,0.0583,0.1449,0.8039,0.659,A
20,0.50016,1.2,2,0.25841,0.37512,0.61686,20,2.17568,-0.15,-0.07502,0.42513,5,2U1D,2.0,False,0.915,0,False,right,-0.08336,1.4118,1.7944,0.3826,0.2705,0.7613,0.4908,A
21,0.50016,1.2,2,0.35845,0.3251,0.72523,21,2.00897,-0.8,-0.40013,0.10003,5,lapse_rate,1.0,True,0.291,0,False,left,0.16672,1.7397,1.7981,0.0585,0.24,0.9817,0.7416,A
22,0.50016,1.2,2,0.38345,0.38345,0.69188,22,2.53412,0.15,0.07502,0.57518,5,2D1U,2.0,True,0.24,0,False,right,0.08336,1.6928,2.2269,0.5341,0.3094,0.9672,0.6578,A
23,0.50016,1.2,1,0.37512,0.20006,0.63353,23,1.8089,-0.8,-0.40013,0.10003,5,lapse_rate,2.0,True,0.303,0,False,right,-0.08336,0.3429,0.5183,0.1754,1.1589,1.6516,0.4928,A
24,0.50016,0.1,2,0.28342,0.2084,0.40846,24,1.9006,-0.0,0.0,0.50016,5,2D1U,2.0,False,0.892,0,False,right,0.16672,1.2627,1.6874,0.4247,0.2627,0.7874,0.5247,A
25,0.50016,0.1,2,0.3251,0.37512,0.73356,25,2.31739,-0.24,-0.1167,0.38345,5,2U1D,1.0,True,0.252,1,True,left,0.08336,1.5903,1.8983,0.308,0.3481,0.7898,0.4417,A
26,0.50016,0.1,2,0.42513,0.45014,0.49182,26,1.96728,-0.8,-0.40013,0.10003,5,lapse_rate,1.0,True,0.313,0,False,left,-0.08336,1.3677,1.3923,0.0247,0.5342,0.8088,0.2746,A
27,0.50016,0.1,1,0.25008,0.42513,0.42513,27,1.98395,-0.24,-0.1167,0.38345,5,2U1D,2.0,True,0.291,1,True,right,0.16672,0.3155,0.5567,0.2412,0.9656,1.4898,0.5242,A
28,0.50016,1.2,1,0.34177,0.43347,0.82526,28,2.55914,-0.09,-0.04168,0.45848,5,2D1U,1.0,False,0.391,1,True,left,0.08336,0.311,0.8449,0.5339,1.5938,2.2521,0.6583,A
29,0.50016,1.2,2,0.40013,0.40846,0.66688,29,2.87591,0.8,0.40013,0.90028,5,lapse_rate,2.0,True,0.263,0,False,right,-0.08336,1.6029,2.4603,0.8575,0.4109,0.9018,0.4909,A
30,0.50016,1.2,2,0.21673,0.42513,0.40846,30,1.95894,-0.18,-0.0917,0.40846,5,2D1U,1.0,True,0.261,1,False,left,0.16672,1.281,1.6468,0.3659,0.0978,0.8396,0.7418,A
31,0.50016,1.2,1,0.22507,0.23341,0.64187,31,2.00897,-0.186,-0.0917,0.40846,5,2U1D,2.0,True,0.93,2,True,right,0.08336,0.1907,0.6744,0.4837,1.2403,1.8988,0.6585,A
32,0.50016,0.1,2,0.39179,0.25008,0.55851,32,2.109,-0.18,-0.0917,0.40846,5,2D1U,1.0,True,0.302,1,False,left,-0.08336,1.4018,1.7351,0.3334,0.5021,0.7769,0.2748,A
33,0.50016,1.2,2,0.20006,0.27509,0.40846,33,1.4838,-0.8,-0.40013,0.10003,5,lapse_rate,1.0,True,0.607,0,False,left,0.16672,1.2649,1.3233,0.0585,0.0815,0.8232,0.7417,A
34,0.50016,0.1,1,0.30009,0.40846,0.86694,34,2.48411,-0.186,-0.0917,0.40846,5,2U1D,1.0,False,1.528,2,True,left,0.08336,0.3649,0.632,0.2672,1.5238,1.9647,0.4408,A
35,0.50016,0.1,1,0.3251,0.40846,0.72523,35,2.39242,-0.126,-0.06669,0.43347,5,2D1U,2.0,True,1.071,2,True,right,-0.08336,0.3877,0.6798,0.292,1.5126,1.7874,0.2749,A
36,0.50016,1.2,1,0.40013,0.25008,0.81692,36,2.86757,0.8,0.40013,0.90028,5,lapse_rate,1.0,True,0.559,0,False,left,0.16672,0.3649,1.3401,0.9751,2.0404,2.7819,0.7415,A
37,0.50016,1.2,1,0.25841,0.4168,0.84193,37,2.40075,-0.24,-0.1167,0.38345,5,2U1D,1.0,False,0.974,3,True,left,0.08336,0.2233,0.6814,0.4581,1.4488,2.107,0.6582,A
38,0.50016,1.2,2,0.43347,0.21673,0.83359,38,2.41742,-0.126,-0.06669,0.43347,5,2D1U,2.0,False,0.887,2,True,right,-0.08336,1.8028,2.194,0.3912,0.4444,0.9361,0.4918,A
39,0.50016,1.2,2,0.38345,0.34177,0.6502,39,2.22569,-0.294,-0.15005,0.35011,5,2U1D,1.0,True,0.262,3,False,left,0.16672,1.6873,1.9955,0.3082,0.2624,1.0041,0.7417,A
40,0.50016,0.1,1,0.21673,0.26675,0.54184,40,2.42576,0.8,0.40013,0.90028,5,lapse_rate,1.0,True,0.216,0,False,left,0.08336,0.281,1.0395,0.7585,1.6067,2.0477,0.441,A
41,0.50016,0.1,1,0.35845,0.25841,0.45014,41,1.91727,-0.294,-0.15005,0.35011,5,2U1D,2.0,True,0.291,3,False,right,-0.08336,0.4268,0.6355,0.2087,1.1934,1.4685,0.2751,A
42,0.50016,0.1,2,0.37512,0.43347,0.71689,42,2.4341,-0.18,-0.0917,0.40846,5,2D1U,1.0,True,0.416,3,True,left,0.16672,1.6647,1.9984,0.3336,0.3569,0.8817,0.5249,A
43,0.50016,1.2,2,0.25008,0.21673,0.71689,43,1.78389,-0.8,-0.40013,0.10003,5,lapse_rate,1.0,True,0.397,0,False,left,0.08336,1.5792,1.6374,0.0582,0.1714,0.8291,0.6577,A
44,0.50016,0.1,2,0.35845,0.34177,0.61686,44,2.2257,-0.18,-0.0917,0.40846,5,2D1U,1.0,True,0.175,3,True,left,-0.08336,1.4217,1.7555,0.3337,0.4641,0.739,0.2749,A
45,0.50016,1.2,2,0.3251,0.4168,0.86694,45,2.49245,-0.24,-0.1167,0.38345,5,2U1D,1.0,True,0.24,4,True,left,0.16672,1.8473,2.1887,0.3414,0.205,0.9472,0.7422,A
46,0.50016,0.1,2,0.33344,0.34177,0.83359,46,2.90924,0.8,0.40013,0.90028,5,lapse_rate,2.0,True,0.196,0,False,right,0.08336,1.6987,2.5227,0.8239,0.356,0.7982,0.4422,A
47,0.50016,1.2,1,0.22507,0.27509,0.51683,47,1.9006,-0.24,-0.1167,0.38345,5,2U1D,2.0,True,0.242,4,True,right,-0.08336,0.1886,0.6472,0.4586,1.1719,1.6639,0.492,A
48,0.50016,1.2,1,0.39179,0.22507,0.60019,48,2.15068,-0.126,-0.06669,0.43347,5,2D1U,1.0,False,0.526,4,True,left,0.16672,0.3595,0.8672,0.5076,1.3513,2.0934,0.7422,A
49,0.50016,1.2,2,0.23341,0.36678,0.60852,49,2.60915,0.8,0.40013,0.90028,5,lapse_rate,2.0,True,0.299,0,False,right,0.08336,1.4587,2.3169,0.8582,0.1582,0.8174,0.6592,A
50,0.50016,0.1,1,0.31677,0.30009,0.76691,50,2.29239,-0.186,-0.0917,0.40846,5,2U1D,1.0,False,0.495,4,False,left,-0.08336,0.3793,0.6458,0.2665,1.5212,1.7953,0.2742,A
51,0.50016,0.1,2,0.34177,0.28342,0.63353,51,2.16734,-0.18,-0.0917,0.40846,5,2D1U,1.0,True,0.202,5,True,left,0.16672,1.5515,1.8851,0.3336,0.3267,0.8517,0.5251,A
52,0.50016,0.1,1,0.30009,0.38345,0.76691,52,2.85089,0.8,0.40013,0.90028,5,lapse_rate,1.0,True,0.317,0,False,left,0.08336,0.3673,1.125,0.7577,1.9164,2.3593,0.4429,A
53,0.50016,0.1,1,0.24174,0.25008,0.63353,53,2.03397,-0.18,-0.0917,0.40846,5,2D1U,2.0,True,0.276,5,True,right,-0.08336,0.3049,0.5719,0.2669,1.3132,1.5882,0.275,A
54,0.50016,1.2,2,0.20006,0.27509,0.79192,54,2.15068,-0.24,-0.1167,0.38345,5,2U1D,1.0,True,0.617,5,True,left,0.16672,1.6475,1.9887,0.3411,0.0807,0.8227,0.742,A
55,0.50016,0.1,2,0.30009,0.29176,0.80859,55,2.00063,-0.8,-0.40013,0.10003,5,lapse_rate,1.0,True,0.292,0,False,left,0.08336,1.6412,1.6653,0.024,0.3234,0.7656,0.4422,A
56,0.50016,1.2,1,0.42513,0.26675,0.46681,56,2.09232,-0.126,-0.06669,0.43347,5,2D1U,1.0,False,0.295,6,True,left,-0.08336,0.3938,0.9019,0.5081,1.3777,1.8686,0.4908,A
57,0.50016,0.1,1,0.44181,0.30843,0.56684,57,1.91727,-0.8,-0.40013,0.10003,5,lapse_rate,2.0,True,0.257,0,False,right,0.16672,0.5072,0.4662,-0.041,1.0165,1.541,0.5245,A
58,0.50016,1.2,1,0.24174,0.27509,0.4168,58,1.81724,-0.24,-0.1167,0.38345,5,2U1D,2.0,True,0.304,5,True,right,0.08336,0.2071,0.6658,0.4587,1.0075,1.6661,0.6586,A
59,0.50016,0.1,2,0.27509,0.22507,0.51683,59,1.92561,-0.18,-0.0917,0.40846,5,2D1U,1.0,True,0.241,7,True,left,-0.08336,1.2392,1.5721,0.3329,0.3807,0.6557,0.275,A
60,0.50016,0.1,1,0.33344,0.38345,0.69188,60,2.31739,-0.186,-0.0917,0.40846,5,2U1D,2.0,True,0.222,6,True,right,0.16672,0.402,0.6684,0.2664,1.3432,1.8688,0.5256,A
61,0.50016,0.1,2,0.37512,0.30843,0.65854,61,2.74253,0.8,0.40013,0.90028,5,lapse_rate,2.0,True,0.225,0,False,right,0.08336,1.5658,2.3905,0.8247,0.3988,0.8404,0.4416,A
62,0.50016,0.1,2,0.26675,0.21673,0.8586,62,2.2507,-0.186,-0.0917,0.40846,5,2U1D,1.0,True,0.267,6,True,left,-0.08336,1.5777,1.9113,0.3336,0.3776,0.6528,0.2752,A
63,0.50016,1.2,2,0.44181,0.30009,0.90028,63,2.5508,-0.18,-0.0917,0.40846,5,2D1U,1.0,True,0.226,7,True,left,0.16672,2.0014,2.3681,0.3668,0.3263,1.0673,0.741,A
64,0.50016,1.2,1,0.40013,0.34177,0.70856,64,2.05065,-0.8,-0.40013,0.10003,5,lapse_rate,2.0,True,0.249,0,False,right,0.08336,0.3671,0.5427,0.1755,1.1755,1.8345,0.659,A
65,0.50016,0.1,2,0.35011,0.39179,0.8586,65,3.00094,0.8,0.40013,0.90028,5,lapse_rate,2.0,True,0.11,0,False,right,-0.08336,1.6546,2.4801,0.8255,0.4553,0.7304,0.275,A
66,0.50016,1.2,2,0.30009,0.30843,0.45848,66,2.00063,-0.126,-0.06669,0.43347,5,2D1U,1.0,True,0.325,8,True,left,0.16672,1.418,1.8093,0.3913,0.185,0.9258,0.7408,A
67,0.50016,1.2,1,0.30843,0.38345,0.54184,67,2.16735,-0.132,-0.06669,0.43347,5,2U1D,1.0,False,0.354,6,False,left,0.08336,0.2774,0.7856,0.5082,1.2529,1.9109,0.658,A
68,0.50016,0.1,1,0.25841,0.45014,0.58352,68,2.20069,-0.186,-0.0917,0.40846,5,2U1D,2.0,True,0.723,7,True,right,-0.08336,0.3224,0.5893,0.2669,1.2812,1.5558,0.2746,A
69,0.50016,0.1,1,0.2084,0.40013,0.6252,69,2.16736,-0.126,-0.06669,0.43347,5,2D1U,2.0,True,0.232,8,True,right,0.16672,0.2742,0.5653,0.2911,1.1743,1.6985,0.5242,A
70,0.50016,0.1,2,0.27509,0.24174,0.55851,70,1.67553,-0.8,-0.40013,0.10003,5,lapse_rate,1.0,True,0.297,0,False,left,0.08336,1.3634,1.3882,0.0248,0.2966,0.7381,0.4416,A
71,0.50016,0.1,1,0.2084,0.21673,0.77524,71,2.16734,-0.072,-0.03334,0.46681,5,2D1U,2.0,True,0.39,8,False,right,-0.08336,0.2715,0.5961,0.3246,1.4797,1.755,0.2753,A
72,0.50016,1.2,1,0.26675,0.33344,0.44181,72,1.95062,-0.186,-0.0917,0.40846,5,2U1D,2.0,True,0.258,7,True,right,0.16672,0.2319,0.7155,0.4837,1.041,1.7819,0.7409,A
73,0.50016,0.1,2,0.36678,0.39179,0.45848,73,1.81724,-0.8,-0.40013,0.10003,5,lapse_rate,1.0,True,0.304,0,False,left,0.08336,1.3554,1.3805,0.0251,0.3895,0.8305,0.441,A
74,0.50016,0.1,2,0.44181,0.36678,0.66688,74,2.87591,0.8,0.40013,0.90028,5,lapse_rate,2.0,True,0.228,0,False,right,-0.08336,1.5618,2.3866,0.8247,0.5537,0.8278,0.2741,A
75,0.50016,1.2,1,0.23341,0.39179,0.7419,75,2.30073,-0.132,-0.06669,0.43347,5,2U1D,1.0,False,0.274,8,True,left,0.16672,0.1982,0.7064,0.5081,1.3315,2.0733,0.7419,A
76,0.50016,1.2,2,0.40846,0.43347,0.70856,76,2.51746,-0.072,-0.03334,0.46681,5,2D1U,1.0,True,0.214,8,False,left,0.08336,1.7291,2.1539,0.4248,0.3296,0.9882,0.6586,A
77,0.50016,0.1,2,0.36678,0.40013,0.47515,77,2.6425,0.8,0.40013,0.90028,5,lapse_rate,2.0,True,0.232,0,False,right,-0.08336,1.29,2.1156,0.8256,0.4733,0.7481,0.2748,A
78,0.50016,0.1,2,0.25841,0.34177,0.51683,78,2.02563,-0.186,-0.0917,0.40846,5,2U1D,1.0,True,0.234,9,True,left,0.16672,1.3493,1.6827,0.3334,0.241,0.7654,0.5244,A
79,0.50016,0.1,2,0.42513,0.30843,0.42513,79,2.15067,-0.018,-0.00834,0.49182,5,2D1U,1.0,True,0.404,8,False,left,0.08336,1.3851,1.8018,0.4166,0.4521,0.8942,0.4421,A
80,0.50016,0.1,2,0.37512,0.31677,0.5335,80,2.62583,0.8,0.40013,0.90028,5,lapse_rate,2.0,True,0.257,0,False,right,-0.08336,1.3568,2.1822,0.8254,0.4817,0.7567,0.275,A
81,0.50016,0.1,1,0.3251,0.38345,0.42513,81,2.0423,-0.186,-0.0917,0.40846,5,2U1D,1.0,False,0.266,9,True,left,0.16672,0.39,0.656,0.266,1.0652,1.5894,0.5242,A
82,0.50016,1.2,2,0.38345,0.39179,0.86694,82,2.63416,-0.018,-0.00834,0.49182,5,2D1U,1.0,True,0.26,8,False,left,0.08336,1.8685,2.3185,0.45,0.3092,0.9685,0.6593,A
83,0.50016,1.2,1,0.31677,0.23341,0.45014,83,1.88393,-0.24,-0.1167,0.38345,5,2U1D,1.0,False,0.265,9,False,left,-0.08336,0.2792,0.7381,0.4589,1.1954,1.6872,0.4918,A
84,0.50016,1.2,1,0.22507,0.42513,0.70022,84,2.36741,0.036,0.01667,0.51683,5,2D1U,2.0,False,0.47,8,False,right,0.16672,0.1874,0.7793,0.5919,1.3629,2.1041,0.7413,A
85,0.50016,1.2,2,0.2084,0.24174,0.47515,85,1.52548,-0.8,-0.40013,0.10003,5,lapse_rate,1.0,True,0.335,0,False,left,0.08336,1.298,1.357,0.059,0.1315,0.7898,0.6583,A
86,0.50016,0.1,2,0.30843,0.40013,0.55017,86,2.30073,0.09,0.04168,0.54184,5,2D1U,1.0,False,0.172,9,True,left,-0.08336,1.3051,1.7711,0.466,0.4132,0.6884,0.2752,A
87,0.50016,1.2,2,0.40013,0.40846,0.70022,87,2.90925,0.8,0.40013,0.90028,5,lapse_rate,2.0,True,0.262,0,False,right,0.16672,1.7572,2.6151,0.8579,0.2817,1.0239,0.7422,A
88,0.50016,0.1,2,0.37512,0.35845,0.40013,88,1.98397,-0.294,-0.15005,0.35011,5,2U1D,1.0,True,0.315,9,False,left,0.08336,1.3043,1.5789,0.2746,0.3956,0.8373,0.4418,A
89,0.50016,0.1,1,0.29176,0.35845,0.59185,89,2.09233,-0.294,-0.15005,0.35011,5,2U1D,2.0,True,0.266,9,False,right,-0.08336,0.3564,0.565,0.2086,1.2656,1.54,0.2744,A
90,0.50016,1.2,1,0.27509,0.37512,0.68355,90,2.4091,0.144,0.07502,0.57518,5,2D1U,1.0,True,0.281,9,False,left,0.16672,0.239,0.8924,0.6534,1.4554,2.1964,0.7411,A
91,0.50016,1.2,2,0.30009,0.37512,0.79192,91,2.06732,-0.8,-0.40013,0.10003,5,lapse_rate,1.0,True,0.187,0,False,left,0.08336,1.7045,1.7632,0.0587,0.2212,0.8797,0.6585,A
92,0.50016,0.1,2,0.35011,0.38345,0.81692,92,2.95092,0.8,0.40013,0.90028,5,lapse_rate,2.0,True,0.205,0,False,right,-0.08336,1.6195,2.4443,0.8248,0.4612,0.7357,0.2745,A
93,0.50016,1.2,2,0.22507,0.40846,0.5335,93,2.24237,0.144,0.07502,0.57518,5,2D1U,1.0,False,0.265,9,False,left,0.16672,1.4137,1.9473,0.5336,0.1058,0.8474,0.7416,A
94,0.50016,1.2,1,0.20006,0.33344,0.61686,94,2.03397,-0.24,-0.1167,0.38345,5,2U1D,2.0,True,0.276,10,True,right,0.08336,0.1656,0.6239,0.4584,1.1653,1.8232,0.658,A
95,0.50016,0.1,2,0.43347,0.40846,0.87527,95,2.81755,0.198,0.10003,0.60019,5,2D1U,2.0,True,0.243,9,False,right,-0.08336,1.7599,2.2843,0.5245,0.5426,0.8183,0.2756,A
96,0.50016,1.2,2,0.4168,0.43347,0.80859,96,2.25905,-0.8,-0.40013,0.10003,5,lapse_rate,1.0,True,0.243,0,False,left,0.16672,1.8868,1.945,0.0582,0.3035,1.0441,0.7406,A
97,0.50016,0.1,1,0.37512,0.43347,0.88361,97,2.57581,-0.24,-0.1167,0.38345,5,2U1D,2.0,True,0.437,10,True,right,0.08336,0.4428,0.685,0.2421,1.5931,2.0347,0.4417,A
98,0.50016,1.2,1,0.29176,0.29176,0.82526,98,2.80922,0.8,0.40013,0.90028,5,lapse_rate,1.0,True,0.245,0,False,left,-0.08336,0.2572,1.2321,0.9749,2.0663,2.5579,0.4915,A
99,0.50016,0.1,2,0.4168,0.40846,0.78358,99,2.51746,-0.186,-0.0917,0.40846,5,2U1D,1.0,True,0.263,10,False,left,0.16672,1.7776,2.1104,0.3328,0.4022,0.9275,0.5252,A
100,0.50016,1.2,2,0.38345,0.40846,0.44181,100,2.33407,0.198,0.10003,0.60019,5,2D1U,2.0,True,0.327,9,False,right,0.08336,1.4422,2.0005,0.5583,0.3085,0.9675,0.6589,A
101,0.50016,1.2,2,0.35845,0.40013,0.86694,101,3.02596,0.8,0.40013,0.90028,5,lapse_rate,2.0,True,0.282,0,False,right,-0.08336,1.7561,2.6149,0.8588,0.3642,0.8565,0.4923,A
102,0.50016,1.2,2,0.4168,0.35845,0.46681,102,2.15068,-0.186,-0.0917,0.40846,5,2U1D,1.0,True,0.258,10,False,left,0.16672,1.5389,1.9056,0.3667,0.2983,1.0393,0.741,A
103,0.50016,1.2,1,0.39179,0.29176,0.84193,103,2.60082,0.144,0.07502,0.57518,5,2D1U,1.0,True,0.376,10,True,left,0.08336,0.3605,1.0111,0.6506,1.7779,2.4356,0.6577,A
104,0.50016,1.2,1,0.36678,0.38345,0.54184,104,2.69251,0.8,0.40013,0.90028,5,lapse_rate,1.0,True,0.2,0,False,left,-0.08336,0.3314,1.3062,0.9748,1.8567,2.3477,0.4911,A
105,0.50016,0.1,2,0.29176,0.23341,0.76691,105,2.22571,-0.132,-0.06669,0.43347,5,2U1D,1.0,True,0.511,10,False,left,0.16672,1.6324,1.9905,0.3581,0.273,0.7989,0.5259,A
106,0.50016,0.1,1,0.35011,0.21673,0.86694,106,2.50912,0.144,0.07502,0.57518,5,2D1U,1.0,True,0.35,10,True,left,0.08336,0.4155,0.849,0.4335,1.7411,2.1821,0.441,A
107,0.50016,0.1,1,0.2084,0.28342,0.80859,107,2.23404,-0.132,-0.06669,0.43347,5,2U1D,2.0,True,0.808,10,False,right,-0.08336,0.2734,0.5656,0.2922,1.4824,1.7576,0.2751,A
108,0.50016,1.2,1,0.35845,0.23341,0.68355,108,2.31741,0.09,0.04168,0.54184,5,2D1U,2.0,False,0.437,10,False,right,0.16672,0.3277,0.9433,0.6156,1.5101,2.2517,0.7416,A
109,0.50016,1.2,1,0.22507,0.42513,0.8586,109,2.10899,-0.8,-0.40013,0.10003,5,lapse_rate,2.0,True,0.214,0,False,right,0.08336,0.1936,0.3691,0.1755,1.1518,1.811,0.6592,A
110,0.50016,1.2,1,0.26675,0.36678,0.49182,110,2.20069,0.144,0.07502,0.57518,5,2D1U,1.0,True,0.238,11,True,left,-0.08336,0.2307,0.8805,0.6497,1.3809,1.8728,0.4919,A
111,0.50016,0.1,1,0.40013,0.40846,0.7419,111,2.95093,0.8,0.40013,0.90028,5,lapse_rate,1.0,True,0.19,0,False,left,0.16672,0.4698,1.2276,0.7578,1.9523,2.4775,0.5253,A
112,0.50016,1.2,2,0.28342,0.43347,0.8586,112,2.53413,-0.078,-0.04168,0.45848,5,2U1D,1.0,True,0.224,10,False,left,0.08336,1.761,2.178,0.417,0.2122,0.8699,0.6577,A
113,0.50016,0.1,2,0.40846,0.31677,0.58352,113,2.38409,0.144,0.07502,0.57518,5,2D1U,2.0,True,0.261,11,True,right,-0.08336,1.4374,1.9371,0.4997,0.5114,0.7869,0.2756,A
114,0.50016,0.1,1,0.24174,0.22507,0.44181,114,1.86726,-0.078,-0.04168,0.45848,5,2U1D,1.0,False,0.298,10,False,left,0.16672,0.308,0.6242,0.3162,1.049,1.5747,0.5258,A
115,0.50016,1.2,2,0.2084,0.40846,0.82526,115,2.04231,-0.8,-0.40013,0.10003,5,lapse_rate,1.0,True,0.181,0,False,left,0.08336,1.6469,1.7051,0.0583,0.1305,0.7882,0.6577,A
116,0.50016,0.1,2,0.25841,0.2084,0.49182,116,1.89226,-0.132,-0.06669,0.43347,5,2U1D,1.0,True,0.263,11,True,left,-0.08336,1.1948,1.5538,0.359,0.3618,0.6373,0.2755,A
117,0.50016,1.2,2,0.23341,0.40013,0.61686,117,2.2924,0.09,0.04168,0.54184,5,2D1U,1.0,False,0.322,12,True,left,0.16672,1.5055,2.0057,0.5001,0.1143,0.8552,0.7409,A
118,0.50016,1.2,1,0.34177,0.25841,0.79192,118,2.79254,0.8,0.40013,0.90028,5,lapse_rate,1.0,True,0.254,0,False,left,0.08336,0.3072,1.2819,0.9747,1.9991,2.6575,0.6584,A
119,0.50016,1.2,2,0.27509,0.28342,0.79192,119,1.95062,-0.8,-0.40013,0.10003,5,lapse_rate,1.0,True,0.313,0,False,left,-0.08336,1.5985,1.6573,0.0588,0.2826,0.7741,0.4915,A
120,0.50016,1.2,2,0.38345,0.35845,0.43347,120,2.109,-0.132,-0.06669,0.43347,5,2U1D,1.0,True,0.113,11,True,left,0.16672,1.4715,1.8632,0.3918,0.2624,1.0049,0.7425,A
121,0.50016,1.2,2,0.43347,0.3251,0.73356,121,2.56747,0.144,0.07502,0.57518,5,2D1U,1.0,False,0.469,13,True,left,0.08336,1.7812,2.3135,0.5323,0.3558,1.0141,0.6583,A
122,0.50016,0.1,1,0.31677,0.21673,0.47515,122,2.109,0.198,0.10003,0.60019,5,2D1U,1.0,True,0.339,13,False,left,-0.08336,0.3829,0.8408,0.4579,1.4245,1.6994,0.2749,A
123,0.50016,1.2,1,0.3251,0.44181,0.78358,123,2.15068,-0.8,-0.40013,0.10003,5,lapse_rate,2.0,True,0.423,0,False,right,0.16672,0.2944,0.4689,0.1745,1.1359,1.878,0.7421,A
124,0.50016,0.1,2,0.35845,0.42513,0.54184,124,2.28406,-0.078,-0.04168,0.45848,5,2U1D,1.0,True,0.196,12,True,left,0.08336,1.4325,1.8154,0.3829,0.3827,0.8236,0.4409,A
125,0.50016,0.1,1,0.24174,0.21673,0.85027,125,2.40909,0.198,0.10003,0.60019,5,2D1U,2.0,False,1.008,13,False,right,-0.08336,0.3068,0.7654,0.4586,1.7239,1.998,0.2741,A
126,0.50016,1.2,1,0.42513,0.40846,0.89195,126,2.68418,-0.078,-0.04168,0.45848,5,2U1D,1.0,False,0.308,12,True,left,0.16672,0.3907,0.9241,0.5334,1.7002,2.4408,0.7406,A
127,0.50016,0.1,2,0.35845,0.3251,0.72523,127,2.00897,-0.8,-0.40013,0.10003,5,lapse_rate,1.0,True,0.341,0,False,left,0.08336,1.6148,1.6403,0.0256,0.3807,0.8233,0.4426,A
128,0.50016,1.2,1,0.42513,0.30009,0.80859,128,2.65917,0.252,0.12504,0.6252,5,2D1U,2.0,False,1.192,13,False,right,-0.08336,0.3905,1.0908,0.7003,1.9066,2.3984,0.4919,A
129,0.50016,1.2,2,0.29176,0.25841,0.43347,129,1.91727,-0.132,-0.06669,0.43347,5,2U1D,1.0,True,0.276,13,True,left,0.16672,1.386,1.7774,0.3914,0.1781,0.919,0.7409,A
130,0.50016,1.2,2,0.40846,0.31677,0.60019,130,1.92561,-0.8,-0.40013,0.10003,5,lapse_rate,1.0,True,0.321,0,False,left,0.08336,1.6251,1.6836,0.0585,0.3336,0.9918,0.6581,A
131,0.50016,0.1,1,0.21673,0.43347,0.84193,131,2.09232,-0.8,-0.40013,0.10003,5,lapse_rate,2.0,True,0.11,0,False,right,-0.08336,0.2816,0.2401,-0.0415,1.1888,1.4648,0.276,A
132,0.50016,0.1,2,0.45014,0.25841,0.59185,132,2.23403,-0.132,-0.06669,0.43347,5,2U1D,1.0,True,0.299,13,True,left,0.16672,1.616,1.9743,0.3584,0.4333,0.9582,0.5248,A
133,0.50016,0.1,2,0.25008,0.31677,0.40846,133,2.12567,0.306,0.15005,0.6502,5,2D1U,2.0,True,0.243,13,False,right,0.08336,1.1875,1.7628,0.5753,0.2714,0.7125,0.4411,A
134,0.50016,0.1,2,0.38345,0.44181,0.83359,134,2.61749,-0.078,-0.04168,0.45848,5,2U1D,1.0,True,0.231,14,True,left,-0.08336,1.6632,2.0466,0.3834,0.4886,0.7636,0.275,A
135,0.50016,1.2,2,0.42513,0.33344,0.55017,135,2.4591,0.306,0.15005,0.6502,5,2D1U,2.0,True,0.483,13,False,right,0.16672,1.6316,2.2397,0.6081,0.3073,1.0477,0.7404,A
136,0.50016,0.1,1,0.35011,0.40846,0.6252,136,2.78421,0.8,0.40013,0.90028,5,lapse_rate,1.0,True,0.175,0,False,left,0.08336,0.4152,1.1749,0.7597,1.8245,2.2653,0.4408,A
137,0.50016,1.2,1,0.29176,0.27509,0.59185,137,2.55914,0.8,0.40013,0.90028,5,lapse_rate,1.0,True,0.249,0,False,left,-0.08336,0.2557,1.2302,0.9745,1.8307,2.3224,0.4917,A
138,0.50016,1.2,2,0.30843,0.24174,0.50016,138,2.17569,0.252,0.12504,0.6252,5,2D1U,1.0,False,0.451,14,True,left,0.16672,1.4654,2.048,0.5826,0.1897,0.9315,0.7418,A
139,0.50016,1.2,2,0.25008,0.30843,0.60852,139,2.12567,-0.078,-0.04168,0.45848,5,2U1D,1.0,True,0.311,14,True,left,0.08336,1.4716,1.8887,0.4171,0.1718,0.8309,0.6592,A
140,0.50016,0.1,1,0.4168,0.4168,0.68355,140,2.91759,0.8,0.40013,0.90028,5,lapse_rate,1.0,True,0.111,0,False,left,-0.08336,0.4802,1.2388,0.7586,2.0303,2.3049,0.2747,A
141,0.50016,0.1,1,0.36678,0.36678,0.56684,141,2.29238,-0.024,-0.00834,0.49182,5,2U1D,2.0,True,0.399,14,False,right,0.16672,0.4307,0.7892,0.3585,1.3389,1.8639,0.5249,A
142,0.50016,0.1,2,0.40013,0.40846,0.61686,142,2.57581,0.306,0.15005,0.6502,5,2D1U,2.0,True,0.112,15,True,right,0.08336,1.5526,2.1277,0.575,0.428,0.8686,0.4406,A
143,0.50016,0.1,1,0.28342,0.4168,0.84193,143,2.69251,0.306,0.15005,0.6502,5,2D1U,1.0,True,0.11,15,True,left,-0.08336,0.3492,0.8573,0.5081,1.8073,2.0829,0.2757,A
144,0.50016,1.2,1,0.33344,0.30843,0.76691,144,2.00897,-0.8,-0.40013,0.10003,5,lapse_rate,2.0,True,0.335,0,False,right,0.16672,0.3001,0.4754,0.1752,1.1255,1.8663,0.7407,A
145,0.50016,1.2,2,0.21673,0.39179,0.89195,145,2.49245,-0.024,-0.00834,0.49182,5,2U1D,1.0,True,0.318,14,False,left,0.08336,1.7284,2.1783,0.4499,0.1454,0.8027,0.6574,A
146,0.50016,0.1,1,0.29176,0.45014,0.85027,146,2.19236,-0.8,-0.40013,0.10003,5,lapse_rate,2.0,True,0.214,0,False,right,-0.08336,0.3558,0.3137,-0.042,1.2727,1.5476,0.2748,A
147,0.50016,1.2,2,0.21673,0.35845,0.72523,147,2.42577,0.252,0.12504,0.6252,5,2D1U,2.0,True,0.247,16,True,right,0.16672,1.6024,2.1862,0.5838,0.1026,0.8437,0.7411,A
148,0.50016,1.2,2,0.30843,0.37512,0.54184,148,2.24238,0.03,0.01667,0.51683,5,2U1D,1.0,False,0.307,14,False,left,0.08336,1.4641,1.9389,0.4749,0.2309,0.889,0.6581,A
149,0.50016,0.1,2,0.30009,0.36678,0.83359,149,2.54246,0.084,0.04168,0.54184,5,2U1D,1.0,False,0.225,15,True,left,-0.08336,1.5791,2.0456,0.4665,0.4031,0.6786,0.2755,A
150,0.50016,0.1,2,0.39179,0.40013,0.75024,150,2.9426,0.8,0.40013,0.90028,5,lapse_rate,2.0,True,0.283,0,False,right,0.16672,1.7125,2.5368,0.8243,0.3706,0.8961,0.5255,A
151,0.50016,0.1,2,0.4168,0.23341,0.67521,151,2.45078,0.252,0.12504,0.6252,5,2D1U,1.0,False,0.393,16,True,left,0.08336,1.628,2.1781,0.5501,0.4443,0.8855,0.4411,A
152,0.50016,0.1,2,0.36678,0.25008,0.55851,152,2.24237,0.138,0.06669,0.56684,5,2U1D,2.0,True,0.522,15,False,right,-0.08336,1.3719,1.8629,0.491,0.472,0.7465,0.2745,A
153,0.50016,1.2,2,0.42513,0.27509,0.54184,153,2.39242,0.306,0.15005,0.6502,5,2D1U,1.0,False,0.333,17,True,left,0.16672,1.6241,2.2319,0.6078,0.3071,1.048,0.7409,A
154,0.50016,0.1,2,0.27509,0.38345,0.85027,154,2.109,-0.8,-0.40013,0.10003,5,lapse_rate,1.0,True,0.248,0,False,left,0.08336,1.6609,1.6857,0.0248,0.3024,0.7436,0.4412,A
155,0.50016,0.1,2,0.39179,0.39179,0.57518,155,1.95895,-0.8,-0.40013,0.10003,5,lapse_rate,1.0,True,0.221,0,False,left,-0.08336,1.413,1.4377,0.0247,0.4958,0.7705,0.2748,A
156,0.50016,1.2,2,0.25841,0.28342,0.70856,156,2.31739,0.138,0.06669,0.56684,5,2U1D,2.0,True,0.422,15,False,right,0.16672,1.621,2.1454,0.5243,0.137,0.879,0.742,A
157,0.50016,1.2,1,0.42513,0.35845,0.75857,157,2.72586,0.36,0.18339,0.68355,5,2D1U,1.0,True,0.814,17,False,left,0.08336,0.3874,1.1458,0.7584,1.8297,2.4883,0.6586,A
158,0.50016,1.2,1,0.31677,0.20006,0.43347,158,2.35074,0.8,0.40013,0.90028,5,lapse_rate,1.0,True,0.272,0,False,left,-0.08336,0.2787,1.2533,0.9746,1.6946,2.1867,0.4921,A
159,0.50016,0.1,1,0.39179,0.36678,0.6252,159,2.42577,0.084,0.04168,0.54184,5,2U1D,1.0,True,0.207,16,True,left,0.16672,0.4615,0.8613,0.3998,1.4703,1.9952,0.5249,A
160,0.50016,0.1,1,0.40846,0.45014,0.64187,160,2.68418,0.36,0.18339,0.68355,5,2D1U,1.0,True,0.115,17,False,left,0.08336,0.4773,1.0193,0.542,1.6865,2.1275,0.441,A
161,0.50016,1.2,2,0.40013,0.44181,0.63353,161,2.07566,-0.8,-0.40013,0.10003,5,lapse_rate,1.0,True,0.259,0,False,left,-0.08336,1.5698,1.6276,0.0578,0.4114,0.9026,0.4912,A
162,0.50016,0.1,2,0.39179,0.44181,0.63353,162,2.50913,0.084,0.04168,0.54184,5,2U1D,2.0,True,0.251,16,True,right,0.16672,1.6025,2.0686,0.4661,0.377,0.9025,0.5254,A
163,0.50016,1.2,2,0.44181,0.33344,0.65854,163,2.58415,0.306,0.15005,0.6502,5,2D1U,1.0,False,0.231,18,True,left,0.08336,1.714,2.3226,0.6086,0.3635,1.0225,0.659,A
164,0.50016,1.2,2,0.42513,0.24174,0.49182,164,2.3424,0.36,0.18339,0.68355,5,2D1U,2.0,True,0.284,19,True,right,-0.08336,1.4509,2.0928,0.6419,0.434,0.9264,0.4924,A
165,0.50016,1.2,1,0.30009,0.33344,0.67521,165,2.32573,0.03,0.01667,0.51683,5,2U1D,2.0,False,0.563,16,False,right,0.16672,0.2687,0.8602,0.5915,1.4188,2.1606,0.7418,A
166,0.50016,1.2,1,0.31677,0.38345,0.70022,166,2.80088,0.8,0.40013,0.90028,5,lapse_rate,1.0,True,0.281,0,False,left,0.08336,0.282,1.2565,0.9745,1.8818,2.54,0.6582,A
167,0.50016,0.1,1,0.33344,0.23341,0.57518,167,2.32574,0.36,0.18339,0.68355,5,2D1U,1.0,True,0.249,19,True,left,-0.08336,0.3987,0.9408,0.5421,1.6244,1.8994,0.2749,A
168,0.50016,0.1,1,0.27509,0.33344,0.60852,168,1.81724,-0.8,-0.40013,0.10003,5,lapse_rate,2.0,True,0.113,0,False,right,0.16672,0.3405,0.2984,-0.042,0.8903,1.4158,0.5255,A
169,0.50016,0.1,2,0.33344,0.40846,0.5335,169,2.3174,0.084,0.04168,0.54184,5,2U1D,1.0,False,0.35,17,True,left,0.08336,1.3987,1.8654,0.4667,0.357,0.7985,0.4415,A
170,0.50016,0.1,2,0.33344,0.24174,0.8586,170,2.58414,0.306,0.15005,0.6502,5,2D1U,2.0,True,0.262,20,True,right,-0.08336,1.6398,2.2149,0.575,0.4403,0.7149,0.2746,A
171,0.50016,0.1,1,0.33344,0.29176,0.77524,171,2.00063,-0.8,-0.40013,0.10003,5,lapse_rate,2.0,True,0.113,0,False,right,0.16672,0.4034,0.3617,-0.0417,1.12,1.6444,0.5244,A
172,0.50016,1.2,2,0.40846,0.37512,0.82526,172,2.67584,0.138,0.06669,0.56684,5,2U1D,1.0,False,0.372,17,False,left,0.08336,1.849,2.3738,0.5249,0.3321,0.9909,0.6588,A
173,0.50016,0.1,2,0.26675,0.44181,0.80859,173,2.91759,0.8,0.40013,0.90028,5,lapse_rate,2.0,True,0.193,0,False,right,-0.08336,1.5231,2.3481,0.8249,0.3732,0.6482,0.275,A
174,0.50016,1.2,1,0.37512,0.3251,0.7419,174,2.53413,0.192,0.10003,0.59185,5,2U1D,1.0,True,0.298,17,False,left,0.16672,0.338,1.0054,0.6674,1.6297,2.372,0.7423,A
175,0.50016,1.2,2,0.35845,0.37512,0.40846,175,2.29239,0.306,0.15005,0.6502,5,2D1U,2.0,True,1.575,20,True,right,0.08336,1.3821,1.9914,0.6093,0.2828,0.9414,0.6586,A
176,0.50016,0.1,1,0.40013,0.37512,0.50849,176,2.37575,0.192,0.10003,0.59185,5,2U1D,1.0,True,0.169,17,False,left,-0.08336,0.4651,0.9151,0.45,1.5314,1.8059,0.2745,A
177,0.50016,1.2,2,0.40013,0.42513,0.63353,177,2.05898,-0.8,-0.40013,0.10003,5,lapse_rate,1.0,True,0.243,0,False,left,0.16672,1.6875,1.7457,0.0581,0.279,1.0202,0.7412,A
178,0.50016,0.1,1,0.2084,0.44181,0.6502,178,2.42577,0.252,0.12504,0.6252,5,2D1U,1.0,True,0.141,20,False,left,0.08336,0.2783,0.7618,0.4834,1.4363,1.8777,0.4413,A
179,0.50016,0.1,2,0.20006,0.40846,0.88361,179,2.61749,0.252,0.12504,0.6252,5,2D1U,2.0,True,0.107,20,False,right,-0.08336,1.5365,2.0872,0.5506,0.3122,0.5865,0.2743,A
180,0.50016,1.2,1,0.39179,0.35845,0.85027,180,2.66751,0.138,0.06669,0.56684,5,2U1D,1.0,True,0.282,18,True,left,0.16672,0.3546,0.9967,0.6421,1.7303,2.4719,0.7416,A
181,0.50016,0.1,2,0.23341,0.20006,0.73356,181,2.56747,0.8,0.40013,0.90028,5,lapse_rate,2.0,True,0.311,0,False,right,0.08336,1.4985,2.3234,0.8249,0.2566,0.6988,0.4421,A
182,0.50016,1.2,1,0.28342,0.33344,0.45848,182,2.17569,0.198,0.10003,0.60019,5,2D1U,1.0,True,0.245,20,False,left,-0.08336,0.2487,0.9242,0.6755,1.3908,1.8826,0.4917,A
183,0.50016,0.1,1,0.28342,0.38345,0.87527,183,2.94258,0.8,0.40013,0.90028,5,lapse_rate,1.0,True,0.328,0,False,left,0.16672,0.3458,1.1051,0.7593,1.9635,2.4879,0.5244,A
184,0.50016,1.2,1,0.44181,0.25008,0.55017,184,2.30906,0.138,0.06669,0.56684,5,2U1D,1.0,True,0.497,18,True,left,0.08336,0.4095,1.0507,0.6412,1.5263,2.1845,0.6583,A
185,0.50016,0.1,1,0.40013,0.37512,0.67521,185,2.05065,-0.8,-0.40013,0.10003,5,lapse_rate,2.0,True,0.218,0,False,right,-0.08336,0.4674,0.4255,-0.0419,1.2093,1.4843,0.2749,A
186,0.50016,0.1,2,0.23341,0.29176,0.45014,186,2.07566,0.198,0.10003,0.60019,5,2D1U,2.0,True,0.271,20,False,right,0.16672,1.2568,1.7823,0.5255,0.2152,0.7406,0.5254,A
187,0.50016,0.1,1,0.2084,0.39179,0.47515,187,2.11734,0.084,0.04168,0.54184,5,2U1D,1.0,True,0.526,18,False,left,0.08336,0.2726,0.6725,0.3998,1.1722,1.6146,0.4424,A
188,0.50016,0.1,2,0.35011,0.25841,0.60019,188,2.28405,0.144,0.07502,0.57518,5,2D1U,2.0,True,0.258,20,False,right,-0.08336,1.3982,1.8984,0.5002,0.4562,0.7315,0.2753,A
189,0.50016,1.2,2,0.36678,0.22507,0.83359,189,2.46744,0.084,0.04168,0.54184,5,2U1D,1.0,False,0.29,18,False,left,0.16672,1.8581,2.3578,0.4998,0.2493,0.9909,0.7417,A
190,0.50016,1.2,1,0.29176,0.40013,0.8586,190,2.95093,0.8,0.40013,0.90028,5,lapse_rate,1.0,True,0.399,0,False,left,0.08336,0.2542,1.2295,0.9753,2.0126,2.6709,0.6583,A
191,0.50016,1.2,2,0.20006,0.42513,0.4168,191,2.11733,0.144,0.07502,0.57518,5,2D1U,2.0,True,0.189,20,False,right,-0.08336,1.1463,1.6797,0.5334,0.2044,0.6956,0.4912,A
192,0.50016,1.2,1,0.2084,0.44181,0.56684,192,2.28405,0.138,0.06669,0.56684,5,2U1D,1.0,True,0.209,19,True,left,0.16672,0.1731,0.8146,0.6415,1.2645,2.0069,0.7424,A
193,0.50016,1.2,2,0.3251,0.35845,0.47515,193,2.55914,0.8,0.40013,0.90028,5,lapse_rate,2.0,True,0.272,0,False,right,0.08336,1.4135,2.2716,0.858,0.2471,0.9047,0.6576,A
194,0.50016,0.1,2,0.21673,0.37512,0.79192,194,2.78421,0.8,0.40013,0.90028,5,lapse_rate,2.0,True,0.11,0,False,right,-0.08336,1.4553,2.2801,0.8247,0.3219,0.5966,0.2747,A
195,0.50016,0.1,1,0.45014,0.26675,0.75024,195,2.50913,0.09,0.04168,0.54184,5,2D1U,1.0,True,0.261,20,False,left,0.16672,0.5128,0.9136,0.4008,1.6462,2.1715,0.5253,A
196,0.50016,0.1,1,0.24174,0.25008,0.45014,196,2.00896,0.138,0.06669,0.56684,5,2U1D,1.0,True,0.314,19,True,left,0.08336,0.3055,0.73,0.4245,1.2055,1.6473,0.4418,A
197,0.50016,1.2,2,0.23341,0.39179,0.60019,197,1.82558,-0.8,-0.40013,0.10003,5,lapse_rate,1.0,True,0.222,0,False,left,-0.08336,1.3698,1.4278,0.058,0.2451,0.7369,0.4918,A
198,0.50016,0.1,2,0.27509,0.24174,0.8586,198,2.41743,0.084,0.04168,0.54184,5,2U1D,1.0,False,1.593,20,True,left,0.16672,1.7052,2.1719,0.4667,0.2555,0.7798,0.5243,A
199,0.50016,1.2,2,0.36678,0.29176,0.47515,199,2.17569,0.09,0.04168,0.54184,5,2D1U,1.0,False,1.295,20,False,left,0.08336,1.4606,1.9616,0.501,0.2943,0.9528,0.6586,A
200,0.50016,1.2,1,0.40846,0.25008,0.7419,200,2.47578,0.144,0.07502,0.57518,5,2D1U,1.0,True,0.354,21,True,left,-0.08336,0.3773,1.0273,0.65,1.7777,2.2693,0.4917,A
201,0.50016,0.1,2,0.43347,0.29176,0.8586,201,2.18402,-0.8,-0.40013,0.10003,5,lapse_rate,1.0,True,0.346,0,False,left,0.16672,1.8683,1.8935,0.0252,0.4191,0.9445,0.5254,A
202,0.50016,1.2,1,0.2084,0.28342,0.72523,202,2.28405,0.138,0.06669,0.56684,5,2U1D,2.0,False,0.768,21,True,right,0.08336,0.1715,0.8133,0.6418,1.464,2.1215,0.6575,A
203,0.50016,1.2,1,0.42513,0.27509,0.4168,203,2.51746,0.8,0.40013,0.90028,5,lapse_rate,1.0,True,0.189,0,False,left,-0.08336,0.3892,1.3636,0.9744,1.7882,2.2805,0.4922,A
204,0.50016,0.1,1,0.26675,0.29176,0.56684,204,2.20069,0.144,0.07502,0.57518,5,2D1U,1.0,True,0.249,21,True,left,0.16672,0.3317,0.7644,0.4327,1.315,1.8399,0.5248,A
205,0.50016,0.1,2,0.30843,0.34177,0.86694,205,2.60915,0.192,0.10003,0.59185,5,2U1D,2.0,True,0.294,21,False,right,0.08336,1.7073,2.2234,0.5161,0.3319,0.7743,0.4424,A
206,0.50016,0.1,1,0.42513,0.30843,0.89195,206,2.71752,0.192,0.10003,0.59185,5,2U1D,1.0,True,0.217,21,False,left,-0.08336,0.4902,0.9403,0.4501,1.9402,2.2145,0.2743,A
207,0.50016,0.1,2,0.23341,0.40846,0.90028,207,2.14234,-0.8,-0.40013,0.10003,5,lapse_rate,1.0,True,0.257,0,False,left,0.16672,1.7045,1.7291,0.0246,0.2126,0.7378,0.5252,A
208,0.50016,1.2,1,0.26675,0.30843,0.64187,208,2.25905,0.09,0.04168,0.54184,5,2D1U,1.0,True,0.287,22,True,left,0.08336,0.2337,0.8508,0.6171,1.4169,2.0758,0.659,A
209,0.50016,1.2,1,0.40846,0.36678,0.60852,209,2.45076,0.138,0.06669,0.56684,5,2U1D,1.0,True,0.307,22,True,left,-0.08336,0.3779,1.0195,0.6417,1.6359,2.1273,0.4913,A
210,0.50016,0.1,2,0.28342,0.25008,0.76691,210,2.70085,0.8,0.40013,0.90028,5,lapse_rate,2.0,True,0.265,0,False,right,0.16672,1.6209,2.4456,0.8247,0.262,0.7876,0.5256,A
211,0.50016,1.2,2,0.42513,0.30009,0.60019,211,2.36741,0.09,0.04168,0.54184,5,2D1U,1.0,False,0.265,22,True,left,0.08336,1.6414,2.1409,0.4996,0.3491,1.0078,0.6587,A
212,0.50016,0.1,2,0.38345,0.4168,0.48349,212,2.35074,0.138,0.06669,0.56684,5,2U1D,1.0,False,0.196,22,True,left,-0.08336,1.3129,1.8049,0.492,0.4877,0.7629,0.2753,A
213,0.50016,0.1,1,0.4168,0.35845,0.76691,213,2.14235,-0.8,-0.40013,0.10003,5,lapse_rate,2.0,True,0.216,0,False,right,0.16672,0.4807,0.4392,-0.0415,1.1893,1.7138,0.5245,A
214,0.50016,0.1,2,0.25841,0.29176,0.77524,214,2.40075,0.144,0.07502,0.57518,5,2D1U,2.0,True,0.417,23,True,right,0.08336,1.5657,2.065,0.4992,0.2822,0.724,0.4419,A
215,0.50016,0.1,2,0.4168,0.2084,0.79192,215,2.49246,0.144,0.07502,0.57518,5,2D1U,2.0,True,0.541,23,True,right,-0.08336,1.6568,2.156,0.4992,0.5227,0.7977,0.2749,A
216,0.50016,1.2,1,0.40846,0.3251,0.87527,216,2.70084,0.192,0.10003,0.59185,5,2U1D,2.0,False,0.204,23,True,right,0.16672,0.3742,1.0409,0.6667,1.7985,2.5412,0.7427,A
217,0.50016,1.2,1,0.24174,0.27509,0.73356,217,1.85058,-0.8,-0.40013,0.10003,5,lapse_rate,2.0,True,0.2,0,False,right,0.08336,0.2065,0.3803,0.1738,1.0399,1.6974,0.6574,A
218,0.50016,1.2,1,0.34177,0.27509,0.42513,218,2.16735,0.246,0.12504,0.6252,5,2U1D,1.0,True,0.293,23,False,left,-0.08336,0.3069,1.0074,0.7005,1.4403,1.9325,0.4922,A
219,0.50016,1.2,1,0.33344,0.30009,0.5335,219,2.20903,0.09,0.04168,0.54184,5,2D1U,1.0,True,0.228,24,True,left,0.16672,0.2959,0.9126,0.6167,1.3293,2.0706,0.7412,A
220,0.50016,1.2,1,0.40846,0.23341,0.47515,220,1.71721,-0.8,-0.40013,0.10003,5,lapse_rate,2.0,True,0.324,0,False,right,0.08336,0.3733,0.5485,0.1752,0.9485,1.6067,0.6582,A
221,0.50016,0.1,2,0.30009,0.40013,0.73356,221,2.55914,0.246,0.12504,0.6252,5,2U1D,2.0,True,0.236,23,False,right,-0.08336,1.4842,2.0339,0.5497,0.4091,0.684,0.2749,A
222,0.50016,1.2,2,0.34177,0.40013,0.77524,222,2.91758,0.8,0.40013,0.90028,5,lapse_rate,2.0,True,0.306,0,False,right,0.16672,1.771,2.6302,0.8592,0.2214,0.9628,0.7413,A
223,0.50016,0.1,2,0.40013,0.22507,0.43347,223,2.10067,0.09,0.04168,0.54184,5,2D1U,1.0,False,0.4,24,True,left,0.08336,1.3683,1.8349,0.4666,0.4265,0.8693,0.4428,A
224,0.50016,0.1,2,0.21673,0.33344,0.40846,224,2.05064,0.192,0.10003,0.59185,5,2U1D,2.0,True,0.209,24,True,right,-0.08336,1.0777,1.5938,0.5162,0.3277,0.6021,0.2744,A
225,0.50016,0.1,1,0.44181,0.28342,0.61686,225,2.74253,0.8,0.40013,0.90028,5,lapse_rate,1.0,True,0.187,0,False,left,0.16672,0.5048,1.2627,0.758,1.8635,2.3874,0.5239,A
226,0.50016,1.2,1,0.40846,0.25008,0.84193,226,2.57581,0.144,0.07502,0.57518,5,2D1U,1.0,True,0.319,25,True,left,0.08336,0.3754,1.0247,0.6493,1.7922,2.4502,0.6581,A
227,0.50016,1.2,1,0.33344,0.3251,0.56684,227,2.31739,0.192,0.10003,0.59185,5,2U1D,1.0,True,0.288,24,True,left,-0.08336,0.2976,0.9641,0.6665,1.5396,2.0305,0.4908,A
228,0.50016,1.2,2,0.26675,0.45014,0.65854,228,2.77587,0.8,0.40013,0.90028,5,lapse_rate,2.0,True,0.241,0,False,right,0.16672,1.5813,2.4403,0.8589,0.1482,0.8904,0.7422,A
229,0.50016,1.2,1,0.35011,0.3251,0.8586,229,2.60915,0.144,0.07502,0.57518,5,2D1U,1.0,True,0.298,25,True,left,0.08336,0.3125,0.9622,0.6497,1.7466,2.4038,0.6572,A
230,0.50016,0.1,1,0.36678,0.20006,0.69188,230,2.30072,0.09,0.04168,0.54184,5,2D1U,1.0,True,0.274,26,True,left,-0.08336,0.4325,0.8318,0.3992,1.6323,1.9068,0.2745,A
231,0.50016,0.1,1,0.22507,0.37512,0.85027,231,2.51746,0.138,0.06669,0.56684,5,2U1D,1.0,True,0.307,24,False,left,0.16672,0.2919,0.7174,0.4255,1.5509,2.0752,0.5243,A
232,0.50016,0.1,1,0.31677,0.39179,0.87527,232,2.18402,-0.8,-0.40013,0.10003,5,lapse_rate,2.0,True,0.27,0,False,right,0.08336,0.3787,0.3373,-0.0414,1.2367,1.6787,0.442,A
233,0.50016,1.2,2,0.29176,0.28342,0.76691,233,2.74253,0.8,0.40013,0.90028,5,lapse_rate,2.0,True,0.392,0,False,right,-0.08336,1.5929,2.4509,0.8579,0.3011,0.7931,0.492,A
234,0.50016,0.1,1,0.34177,0.27509,0.64187,234,2.30073,0.09,0.04168,0.54184,5,2D1U,1.0,True,1.172,26,True,left,0.16672,0.4086,0.8087,0.4001,1.4334,1.9583,0.5249,A
235,0.50016,1.2,1,0.35845,0.36678,0.7419,235,2.53413,0.138,0.06669,0.56684,5,2U1D,2.0,False,0.286,24,False,right,0.08336,0.3275,0.9695,0.642,1.6363,2.294,0.6578,A
236,0.50016,0.1,2,0.40846,0.30843,0.42513,236,1.74221,-0.8,-0.40013,0.10003,5,lapse_rate,1.0,True,0.258,0,False,left,-0.08336,1.2788,1.3037,0.0248,0.5123,0.7877,0.2753,A
237,0.50016,1.2,2,0.3251,0.35011,0.42513,237,2.19235,0.192,0.10003,0.59185,5,2U1D,2.0,True,0.208,25,True,right,0.16672,1.4077,1.9573,0.5496,0.2074,0.9492,0.7418,A
238,0.50016,1.2,2,0.34177,0.38345,0.80859,238,2.5508,0.036,0.01667,0.51683,5,2D1U,1.0,False,1.235,26,False,left,0.08336,1.7627,2.2378,0.4751,0.2621,0.9202,0.6582,A
239,0.50016,0.1,1,0.34177,0.35845,0.64187,239,2.38409,0.09,0.04168,0.54184,5,2D1U,1.0,True,0.215,27,True,left,-0.08336,0.4054,0.8057,0.4002,1.556,1.8311,0.2751,A
240,0.50016,0.1,2,0.29176,0.23341,0.42513,240,2.04231,0.192,0.10003,0.59185,5,2U1D,2.0,True,0.5,25,True,right,0.16672,1.2874,1.8035,0.5162,0.2711,0.7953,0.5242,A
241,0.50016,1.2,1,0.40013,0.42513,0.85027,241,3.07597,0.8,0.40013,0.90028,5,lapse_rate,1.0,True,0.17,0,False,left,0.08336,0.3685,1.3429,0.9744,2.1178,2.7768,0.6591,A
242,0.50016,0.1,2,0.27509,0.25008,0.43347,242,2.35908,0.8,0.40013,0.90028,5,lapse_rate,2.0,True,0.263,0,False,right,-0.08336,1.156,1.9803,0.8243,0.3821,0.6556,0.2735,A
243,0.50016,0.1,2,0.38345,0.26675,0.50849,243,2.22569,0.138,0.06669,0.56684,5,2U1D,2.0,True,0.245,26,True,right,0.16672,1.4679,1.9597,0.4918,0.3681,0.8924,0.5243,A
244,0.50016,1.2,1,0.35011,0.22507,0.52516,244,2.14234,0.09,0.04168,0.54184,5,2D1U,1.0,True,0.258,27,True,left,0.08336,0.3113,0.9277,0.6164,1.3784,2.0361,0.6577,A
245,0.50016,1.2,2,0.34177,0.26675,0.81692,245,2.44243,0.036,0.01667,0.51683,5,2D1U,2.0,True,0.409,28,True,right,-0.08336,1.6922,2.168,0.4758,0.3512,0.843,0.4917,A
246,0.50016,1.2,2,0.42513,0.38345,0.6252,246,2.50078,0.138,0.06669,0.56684,5,2U1D,2.0,True,0.684,26,True,right,0.16672,1.7111,2.2361,0.5251,0.3112,1.0531,0.7419,A
247,0.50016,1.2,1,0.43347,0.35011,0.54184,247,2.72586,0.8,0.40013,0.90028,5,lapse_rate,1.0,True,0.403,0,False,left,0.08336,0.3971,1.3728,0.9757,1.8388,2.4974,0.6586,A
248,0.50016,0.1,1,0.30843,0.4168,0.72523,248,2.46745,0.036,0.01667,0.51683,5,2D1U,1.0,True,0.112,28,True,left,-0.08336,0.374,0.7481,0.3741,1.5814,1.8567,0.2753,A
249,0.50016,0.1,2,0.43347,0.35845,0.80025,249,2.63417,0.084,0.04168,0.54184,5,2U1D,2.0,True,0.487,26,False,right,0.16672,1.8108,2.2781,0.4674,0.4194,0.9441,0.5247,A
250,0.50016,0.1,1,0.23341,0.39179,0.45848,250,1.68387,-0.8,-0.40013,0.10003,5,lapse_rate,2.0,True,1.003,0,False,right,0.08336,0.3024,0.2608,-0.0416,0.7442,1.1857,0.4414,A
251,0.50016,0.1,1,0.24174,0.40013,0.44181,251,2.12568,0.084,0.04168,0.54184,5,2U1D,1.0,True,0.29,26,False,left,-0.08336,0.3071,0.7065,0.3994,1.2572,1.5315,0.2743,A
252,0.50016,1.2,1,0.40013,0.22507,0.88361,252,2.50079,-0.018,-0.00834,0.49182,5,2D1U,1.0,False,4.566,28,False,left,0.16672,0.3639,0.9296,0.5657,1.6974,2.4388,0.7414,A
253,0.50016,1.2,1,0.35845,0.25841,0.60852,253,2.19235,-0.072,-0.03334,0.46681,5,2D1U,1.0,False,0.557,29,True,left,0.08336,0.3236,0.8646,0.541,1.3985,2.0568,0.6582,A
254,0.50016,1.2,1,0.23341,0.23341,0.47515,254,1.95896,0.03,0.01667,0.51683,5,2U1D,1.0,True,0.224,26,False,left,-0.08336,0.1974,0.7886,0.5911,1.2724,1.7634,0.491,A
255,0.50016,0.1,2,0.26675,0.34177,0.56684,255,2.10899,-0.126,-0.06669,0.43347,5,2D1U,1.0,True,0.193,29,False,left,0.16672,1.4053,1.7638,0.3585,0.2469,0.7726,0.5257,A
256,0.50016,0.1,2,0.36678,0.24174,0.56684,256,2.10899,-0.126,-0.06669,0.43347,5,2D1U,1.0,True,0.203,29,False,left,0.08336,1.4695,1.8274,0.3579,0.3951,0.8359,0.4408,A
257,0.50016,0.1,2,0.42513,0.29176,0.55851,257,2.29239,0.03,0.01667,0.51683,5,2U1D,1.0,False,0.142,26,False,left,-0.08336,1.4346,1.8764,0.4418,0.5347,0.8096,0.2749,A
258,0.50016,1.2,2,0.23341,0.30009,0.52516,258,2.02563,-0.072,-0.03334,0.46681,5,2D1U,1.0,True,0.271,30,True,left,0.16672,1.4136,1.8381,0.4245,0.1137,0.855,0.7413,A
259,0.50016,1.2,1,0.33344,0.40846,0.4168,259,2.12567,-0.072,-0.03334,0.46681,5,2D1U,1.0,False,1.964,30,True,left,0.08336,0.2957,0.8379,0.5423,1.1791,1.838,0.6589,A
260,0.50016,1.2,1,0.3251,0.43347,0.61686,260,2.41743,0.084,0.04168,0.54184,5,2U1D,1.0,True,0.112,27,True,left,-0.08336,0.292,0.9081,0.6161,1.5338,2.0246,0.4908,A
261,0.50016,0.1,1,0.43347,0.43347,0.64187,261,2.44244,-0.126,-0.06669,0.43347,5,2D1U,1.0,False,0.2,31,True,left,0.16672,0.5026,0.7947,0.2921,1.4199,1.9441,0.5242,A
262,0.50016,0.1,1,0.24174,0.24174,0.45848,262,1.85058,-0.18,-0.0917,0.40846,5,2D1U,2.0,True,0.274,31,False,right,0.08336,0.3111,0.5784,0.2673,1.0611,1.5029,0.4418,A
263,0.50016,0.1,1,0.35845,0.40846,0.52516,263,2.33407,0.084,0.04168,0.54184,5,2U1D,1.0,True,0.11,27,True,left,-0.08336,0.4248,0.8246,0.3998,1.4583,1.7327,0.2744,A
264,0.50016,1.2,2,0.37512,0.43347,0.82526,264,2.54247,-0.18,-0.0917,0.40846,5,2D1U,1.0,True,0.281,31,False,left,0.16672,1.8598,2.2261,0.3662,0.2593,1.0011,0.7418,A
265,0.50016,1.2,2,0.3251,0.24174,0.4168,265,2.00063,0.03,0.01667,0.51683,5,2U1D,1.0,False,0.292,28,True,left,0.08336,1.3561,1.8315,0.4754,0.2471,0.9058,0.6587,A
266,0.50016,1.2,2,0.22507,0.40013,0.80025,266,2.46745,0.084,0.04168,0.54184,5,2U1D,1.0,False,0.641,29,True,left,-0.08336,1.5614,2.0613,0.5,0.2366,0.728,0.4914,A
267,0.50016,0.1,1,0.24174,0.44181,0.60852,267,2.2257,-0.126,-0.06669,0.43347,5,2D1U,2.0,True,0.316,32,True,right,0.16672,0.3042,0.5961,0.292,1.1873,1.7128,0.5254,A
268,0.50016,0.1,1,0.20006,0.29176,0.84193,268,2.26738,-0.126,-0.06669,0.43347,5,2D1U,1.0,False,0.757,32,True,left,0.08336,0.2641,0.5555,0.2914,1.4219,1.8641,0.4422,A
269,0.50016,0.1,1,0.34177,0.28342,0.55851,269,2.09232,-0.18,-0.0917,0.40846,5,2D1U,1.0,False,0.258,33,True,left,-0.08336,0.407,0.6738,0.2668,1.3402,1.6159,0.2757,A
270,0.50016,1.2,1,0.28342,0.31677,0.71689,270,2.38408,0.138,0.06669,0.56684,5,2U1D,1.0,True,0.267,29,False,left,0.16672,0.2504,0.8918,0.6414,1.4924,2.2337,0.7413,A
271,0.50016,1.2,2,0.21673,0.30843,0.75857,271,2.16734,-0.234,-0.1167,0.38345,5,2D1U,1.0,True,0.274,33,False,left,0.08336,1.5874,1.9302,0.3428,0.137,0.7961,0.6591,A
272,0.50016,1.2,2,0.29176,0.26675,0.8586,272,2.30072,-0.234,-0.1167,0.38345,5,2D1U,1.0,True,0.24,33,False,left,-0.08336,1.6792,2.0211,0.3419,0.2955,0.7873,0.4918,A
273,0.50016,0.1,2,0.39179,0.35845,0.83359,273,2.49245,-0.18,-0.0917,0.40846,5,2D1U,1.0,True,0.275,34,True,left,0.16672,1.799,2.1325,0.3335,0.3742,0.8995,0.5253,A
274,0.50016,0.1,2,0.35011,0.39179,0.68355,274,2.49245,0.138,0.06669,0.56684,5,2U1D,2.0,True,0.295,29,False,right,0.08336,1.5693,2.0614,0.4921,0.3781,0.8193,0.4412,A
275,0.50016,0.1,1,0.2084,0.44181,0.59185,275,2.28406,0.084,0.04168,0.54184,5,2U1D,1.0,True,0.11,30,True,left,-0.08336,0.275,0.6738,0.3987,1.3742,1.6486,0.2744,A
276,0.50016,1.2,1,0.33344,0.39179,0.67521,276,2.44244,0.084,0.04168,0.54184,5,2U1D,1.0,True,0.305,30,True,left,0.16672,0.2964,0.9128,0.6164,1.4719,2.2133,0.7414,A
277,0.50016,1.2,2,0.21673,0.39179,0.61686,277,2.134,-0.18,-0.0917,0.40846,5,2D1U,1.0,True,0.19,34,True,left,0.08336,1.4524,1.8192,0.3668,0.1439,0.8026,0.6587,A
278,0.50016,1.2,1,0.4168,0.2084,0.8586,278,2.41743,-0.126,-0.06669,0.43347,5,2D1U,1.0,False,0.942,34,False,left,-0.08336,0.3817,0.89,0.5083,1.7573,2.2488,0.4916,A
279,0.50016,0.1,2,0.28342,0.27509,0.80025,279,2.37575,0.03,0.01667,0.51683,5,2U1D,2.0,True,0.314,30,False,right,0.16672,1.6586,2.1003,0.4417,0.267,0.7915,0.5245,A
280,0.50016,0.1,2,0.29176,0.45014,0.45848,280,2.21737,0.03,0.01667,0.51683,5,2U1D,2.0,True,0.146,30,False,right,0.08336,1.2858,1.7282,0.4424,0.3192,0.7613,0.4421,A
281,0.50016,0.1,2,0.30009,0.40846,0.56684,281,2.26737,-0.024,-0.00834,0.49182,5,2U1D,1.0,True,0.35,30,False,left,-0.08336,1.3119,1.7293,0.4174,0.4039,0.6789,0.275,A
282,0.50016,1.2,1,0.30843,0.30009,0.46681,282,1.98395,-0.18,-0.0917,0.40846,5,2D1U,2.0,True,0.361,35,True,right,0.16672,0.2739,0.7565,0.4827,1.1074,1.8484,0.741,A
283,0.50016,1.2,2,0.25008,0.21673,0.67521,283,2.05064,-0.18,-0.0917,0.40846,5,2D1U,2.0,False,0.724,35,True,right,0.08336,1.5375,1.9036,0.366,0.1707,0.8285,0.6578,A
284,0.50016,1.2,1,0.39179,0.35845,0.75024,284,2.49246,-0.024,-0.00834,0.49182,5,2U1D,2.0,True,0.303,30,False,right,-0.08336,0.3608,0.9269,0.5661,1.6854,2.1774,0.492,A
285,0.50016,0.1,1,0.35011,0.23341,0.8586,285,2.32573,-0.234,-0.1167,0.38345,5,2D1U,2.0,True,0.335,35,False,right,0.16672,0.4162,0.6579,0.2417,1.4999,2.0244,0.5245,A
286,0.50016,0.1,1,0.23341,0.40013,0.75024,286,2.40077,0.03,0.01667,0.51683,5,2U1D,2.0,False,0.545,30,False,right,0.08336,0.2954,0.6707,0.3753,1.4449,1.8867,0.4418,A
287,0.50016,0.1,2,0.3251,0.38345,0.87527,287,2.62582,0.084,0.04168,0.54184,5,2U1D,2.0,True,0.235,31,True,right,-0.08336,1.6484,2.1159,0.4675,0.4327,0.7068,0.274,A
288,0.50016,1.2,2,0.30843,0.22507,0.45014,288,1.86725,-0.234,-0.1167,0.38345,5,2D1U,1.0,True,0.325,35,False,left,0.16672,1.4155,1.7569,0.3414,0.1904,0.9319,0.7415,A
289,0.50016,1.2,1,0.42513,0.39179,0.75024,289,2.60916,0.084,0.04168,0.54184,5,2U1D,1.0,True,0.314,31,True,left,0.08336,0.3908,1.0075,0.6167,1.683,2.3407,0.6577,A
290,0.50016,1.2,1,0.28342,0.3251,0.70022,290,2.21736,-0.18,-0.0917,0.40846,5,2D1U,1.0,False,0.617,36,True,left,-0.08336,0.2448,0.7286,0.4838,1.4367,1.9287,0.492,A
291,0.50016,0.1,1,0.40846,0.23341,0.85027,291,2.50913,0.03,0.01667,0.51683,5,2U1D,1.0,True,0.382,32,True,left,0.16672,0.476,0.8508,0.3748,1.6842,2.2087,0.5244,A
292,0.50016,0.1,1,0.26675,0.3251,0.59185,292,2.20069,0.03,0.01667,0.51683,5,2U1D,2.0,False,0.39,32,True,right,0.08336,0.3335,0.7085,0.3749,1.3256,1.7668,0.4412,A
293,0.50016,0.1,2,0.29176,0.40846,0.51683,293,2.25905,0.084,0.04168,0.54184,5,2U1D,1.0,False,0.879,33,True,left,-0.08336,1.2602,1.7275,0.4673,0.4025,0.6775,0.275,A
294,0.50016,1.2,1,0.4168,0.4168,0.42513,294,2.32573,0.138,0.06669,0.56684,5,2U1D,1.0,True,0.286,33,False,left,0.16672,0.3794,1.0212,0.6418,1.3293,2.0708,0.7415,A
295,0.50016,1.2,2,0.24174,0.3251,0.6252,295,2.07565,-0.234,-0.1167,0.38345,5,2D1U,1.0,True,0.317,37,True,left,0.08336,1.4814,1.8226,0.3413,0.1649,0.823,0.6581,A
296,0.50016,1.2,2,0.24174,0.21673,0.55851,296,1.90059,-0.234,-0.1167,0.38345,5,2D1U,1.0,True,0.353,37,True,left,-0.08336,1.3289,1.671,0.342,0.2457,0.738,0.4924,A
297,0.50016,0.1,1,0.24174,0.22507,0.68355,297,2.21736,0.138,0.06669,0.56684,5,2U1D,1.0,True,1.177,33,False,left,0.16672,0.3053,0.7295,0.4243,1.3966,1.9212,0.5247,A
298,0.50016,0.1,1,0.35011,0.39179,0.58352,298,2.23404,-0.18,-0.0917,0.40846,5,2D1U,2.0,True,0.316,38,True,right,0.08336,0.4169,0.6841,0.2671,1.2919,1.7342,0.4423,A
299,0.50016,0.1,1,0.34177,0.38345,0.42513,299,2.19235,0.084,0.04168,0.54184,5,2U1D,1.0,True,0.171,34,True,left,-0.08336,0.4102,0.8105,0.4003,1.3435,1.619,0.2755,A
300,0.50016,1.2,1,0.40013,0.27509,0.7419,300,2.32574,-0.18,-0.0917,0.40846,5,2D1U,1.0,False,0.736,38,True,left,0.16672,0.3624,0.8446,0.4822,1.4699,2.2121,0.7422,A
301,0.50016,1.2,2,0.40846,0.22507,0.49182,301,2.16735,0.084,0.04168,0.54184,5,2U1D,1.0,False,0.289,34,True,left,0.08336,1.5141,2.0134,0.4993,0.33,0.9884,0.6584,A
302,0.50016,1.2,2,0.2084,0.45014,0.88361,302,2.60915,0.138,0.06669,0.56684,5,2U1D,2.0,True,0.27,35,True,right,-0.08336,1.6256,2.1507,0.5252,0.2172,0.7092,0.492,A
303,0.50016,0.1,2,0.31677,0.43347,0.8586,303,2.49245,-0.234,-0.1167,0.38345,5,2D1U,1.0,True,0.112,39,True,left,0.16672,1.7497,2.0568,0.3071,0.2984,0.8235,0.5251,A
304,0.50016,0.1,2,0.40013,0.44181,0.8586,304,2.58415,-0.234,-0.1167,0.38345,5,2D1U,1.0,True,0.198,39,True,left,0.08336,1.7874,2.0959,0.3085,0.421,0.8624,0.4414,A
305,0.50016,0.1,1,0.40013,0.42513,0.50849,305,2.40075,0.138,0.06669,0.56684,5,2U1D,1.0,True,0.29,35,True,left,-0.08336,0.4642,0.8891,0.4249,1.5053,1.781,0.2756,A
306,0.50016,1.2,2,0.42513,0.40013,0.86694,306,2.7342,0.084,0.04168,0.54184,5,2U1D,2.0,True,0.466,36,True,right,0.16672,1.951,2.4505,0.4996,0.309,1.051,0.742,A
307,0.50016,1.2,1,0.35845,0.22507,0.55851,307,2.05065,-0.18,-0.0917,0.40846,5,2D1U,2.0,True,0.281,40,True,right,0.08336,0.3275,0.8102,0.4828,1.2937,1.9519,0.6583,A
308,0.50016,1.2,1,0.37512,0.24174,0.48349,308,2.14235,0.084,0.04168,0.54184,5,2U1D,2.0,False,0.331,36,True,right,-0.08336,0.3383,0.9556,0.6173,1.4468,1.939,0.4922,A
309,0.50016,0.1,2,0.27509,0.2084,0.50016,309,2.05065,0.138,0.06669,0.56684,5,2U1D,1.0,False,0.284,37,True,left,0.16672,1.35,1.8409,0.4909,0.2585,0.7835,0.5249,A
310,0.50016,0.1,2,0.22507,0.43347,0.73356,310,2.30072,-0.18,-0.0917,0.40846,5,2D1U,1.0,True,0.181,40,True,left,0.08336,1.4883,1.8217,0.3334,0.2461,0.6888,0.4428,A
311,0.50016,0.1,2,0.34177,0.40846,0.61686,311,2.30072,-0.126,-0.06669,0.43347,5,2D1U,1.0,True,0.15,40,False,left,-0.08336,1.4086,1.7672,0.3586,0.4502,0.7257,0.2755,A
312,0.50016,1.2,2,0.45014,0.30843,0.80025,312,2.65083,0.192,0.10003,0.59185,5,2U1D,1.0,False,0.234,37,False,left,0.16672,1.9077,2.4571,0.5494,0.3328,1.0744,0.7416,A
313,0.50016,1.2,1,0.30843,0.27509,0.89195,313,2.60083,0.246,0.12504,0.6252,5,2U1D,1.0,True,0.234,37,False,left,0.08336,0.273,0.9733,0.7002,1.7904,2.4482,0.6578,A
314,0.50016,1.2,1,0.43347,0.36678,0.56684,314,2.30072,-0.126,-0.06669,0.43347,5,2D1U,1.0,False,0.189,40,False,left,-0.08336,0.3967,0.9053,0.5087,1.4798,1.9719,0.4921,A
315,0.50016,0.1,1,0.26675,0.43347,0.48349,315,2.30907,0.246,0.12504,0.6252,5,2U1D,1.0,True,0.111,37,False,left,0.16672,0.3299,0.8127,0.4828,1.2808,1.8044,0.5236,A
316,0.50016,0.1,2,0.39179,0.30009,0.50016,316,2.28405,0.192,0.10003,0.59185,5,2U1D,2.0,True,0.273,38,True,right,0.08336,1.4206,1.9365,0.5159,0.4123,0.8534,0.4411,A
317,0.50016,0.1,2,0.4168,0.26675,0.55017,317,2.32573,0.192,0.10003,0.59185,5,2U1D,2.0,True,0.226,38,True,right,-0.08336,1.4121,1.9288,0.5167,0.5211,0.7955,0.2744,A
318,0.50016,1.2,2,0.28342,0.29176,0.80859,318,2.29239,-0.18,-0.0917,0.40846,5,2D1U,1.0,True,0.287,41,True,left,0.16672,1.7512,2.1176,0.3663,0.1672,0.9093,0.742,A
319,0.50016,1.2,1,0.24174,0.21673,0.63353,319,2.00062,-0.18,-0.0917,0.40846,5,2D1U,1.0,False,0.288,41,True,left,0.08336,0.2058,0.6885,0.4827,1.2475,1.9053,0.6578,A
320,0.50016,1.2,2,0.24174,0.23341,0.64187,320,2.18402,0.138,0.06669,0.56684,5,2U1D,2.0,True,0.316,38,False,right,-0.08336,1.413,1.9378,0.5249,0.2463,0.7383,0.492,A
321,0.50016,0.1,1,0.39179,0.29176,0.48349,321,2.05065,-0.234,-0.1167,0.38345,5,2D1U,2.0,True,0.308,41,False,right,0.16672,0.4533,0.695,0.2416,1.1623,1.6871,0.5248,A
322,0.50016,0.1,2,0.37512,0.25841,0.60019,322,2.11733,-0.234,-0.1167,0.38345,5,2D1U,1.0,True,0.297,41,False,left,0.08336,1.5114,1.8203,0.3089,0.4029,0.8447,0.4418,A
323,0.50016,0.1,2,0.27509,0.25841,0.50016,323,1.94228,-0.18,-0.0917,0.40846,5,2D1U,1.0,True,0.191,42,True,left,-0.08336,1.2272,1.5594,0.3322,0.3845,0.6602,0.2757,A
324,0.50016,1.2,1,0.34177,0.40846,0.72523,324,2.54246,0.138,0.06669,0.56684,5,2U1D,2.0,False,0.322,38,False,right,0.16672,0.3057,0.9476,0.642,1.5553,2.2966,0.7413,A
325,0.50016,1.2,2,0.27509,0.38345,0.73356,325,2.48411,0.192,0.10003,0.59185,5,2U1D,2.0,True,1.816,39,True,right,0.08336,1.6247,2.175,0.5503,0.2003,0.8586,0.6583,A
326,0.50016,1.2,2,0.38345,0.44181,0.50849,326,2.24237,-0.18,-0.0917,0.40846,5,2D1U,1.0,True,0.113,42,True,left,-0.08336,1.4206,1.7867,0.3661,0.3871,0.8782,0.4911,A
327,0.50016,0.1,2,0.28342,0.44181,0.70856,327,2.36742,-0.126,-0.06669,0.43347,5,2D1U,1.0,True,0.17,42,False,left,0.16672,1.5689,1.927,0.3581,0.2684,0.7939,0.5255,A
328,0.50016,0.1,2,0.20006,0.4168,0.45848,328,2.16735,0.192,0.10003,0.59185,5,2U1D,2.0,True,0.383,39,True,right,0.08336,1.1911,1.7078,0.5167,0.2239,0.6657,0.4418,A
329,0.50016,0.1,1,0.4168,0.28342,0.59185,329,2.35907,0.138,0.06669,0.56684,5,2U1D,1.0,True,0.303,40,True,left,-0.08336,0.4855,0.9097,0.4242,1.6099,1.8854,0.2754,A
330,0.50016,1.2,2,0.4168,0.24174,0.68355,330,2.40909,0.138,0.06669,0.56684,5,2U1D,2.0,True,0.433,40,True,right,0.16672,1.7532,2.2778,0.5247,0.2949,1.0362,0.7413,A
331,0.50016,1.2,1,0.29176,0.40013,0.72523,331,2.35075,-0.126,-0.06669,0.43347,5,2D1U,1.0,False,0.3,42,False,left,0.08336,0.255,0.7633,0.5083,1.4128,2.0711,0.6583,A
332,0.50016,1.2,1,0.4168,0.35845,0.66688,332,2.48413,0.084,0.04168,0.54184,5,2U1D,1.0,True,0.314,40,False,left,-0.08336,0.3845,1.0007,0.6162,1.6762,2.1674,0.4912,A
333,0.50016,0.1,2,0.4168,0.28342,0.73356,333,2.3424,-0.18,-0.0917,0.40846,5,2D1U,1.0,True,0.268,43,True,left,0.16672,1.7245,2.0579,0.3334,0.399,0.9244,0.5253,A
334,0.50016,0.1,2,0.38345,0.27509,0.77524,334,2.3424,-0.18,-0.0917,0.40846,5,2D1U,1.0,True,0.234,43,True,left,0.08336,1.6918,2.0248,0.3329,0.408,0.8506,0.4425,A
335,0.50016,0.1,2,0.4168,0.21673,0.84193,335,2.40909,-0.126,-0.06669,0.43347,5,2D1U,1.0,True,0.308,44,True,left,-0.08336,1.7073,2.066,0.3587,0.5238,0.7996,0.2758,A
336,0.50016,1.2,2,0.36678,0.33344,0.75857,336,2.39242,-0.126,-0.06669,0.43347,5,2D1U,1.0,True,0.242,44,True,left,0.16672,1.7856,2.1778,0.3922,0.2522,0.9942,0.742,A
337,0.50016,1.2,2,0.25841,0.40846,0.50849,337,2.21736,0.084,0.04168,0.54184,5,2U1D,2.0,True,0.671,40,False,right,0.08336,1.385,1.8847,0.4998,0.1855,0.8434,0.6579,A
338,0.50016,1.2,2,0.26675,0.42513,0.89195,338,2.5508,-0.072,-0.03334,0.46681,5,2D1U,1.0,True,0.167,44,False,left,-0.08336,1.6922,2.117,0.4248,0.2749,0.7671,0.4922,A
339,0.50016,0.1,1,0.2084,0.31677,0.43347,339,1.97563,0.03,0.01667,0.51683,5,2U1D,1.0,True,0.225,40,False,left,0.16672,0.2714,0.6472,0.3758,1.0639,1.5887,0.5248,A
340,0.50016,0.1,2,0.30009,0.36678,0.87527,340,2.55913,0.03,0.01667,0.51683,5,2U1D,2.0,True,0.452,40,False,right,0.08336,1.711,2.1527,0.4418,0.328,0.7695,0.4415,A
341,0.50016,0.1,2,0.22507,0.27509,0.48349,341,1.97563,-0.024,-0.00834,0.49182,5,2U1D,2.0,False,0.995,40,False,right,-0.08336,1.1563,1.5726,0.4162,0.3313,0.6057,0.2743,A
342,0.50016,1.2,2,0.33344,0.30009,0.82526,342,2.42576,-0.072,-0.03334,0.46681,5,2D1U,1.0,True,0.226,44,False,left,0.16672,1.8143,2.2394,0.4251,0.215,0.9564,0.7414,A
343,0.50016,1.2,1,0.35845,0.38345,0.60852,343,2.30906,-0.078,-0.04168,0.45848,5,2U1D,1.0,False,0.435,41,True,left,0.08336,0.3269,0.8598,0.5329,1.3928,2.0511,0.6583,A
344,0.50016,1.2,2,0.29176,0.36678,0.79192,344,2.38409,-0.132,-0.06669,0.43347,5,2U1D,1.0,True,0.157,41,False,left,-0.08336,1.6143,2.0064,0.3921,0.2981,0.7891,0.491,A
345,0.50016,0.1,2,0.35011,0.23341,0.84193,345,2.35908,-0.132,-0.06669,0.43347,5,2U1D,1.0,True,0.267,41,False,left,0.16672,1.7651,2.1239,0.3588,0.3313,0.8567,0.5253,A
346,0.50016,0.1,2,0.22507,0.43347,0.50016,346,2.15068,-0.018,-0.00834,0.49182,5,2D1U,2.0,False,0.111,44,False,right,0.08336,1.2575,1.674,0.4165,0.2487,0.6902,0.4414,A
347,0.50016,0.1,1,0.40013,0.4168,0.75024,347,2.53414,-0.072,-0.03334,0.46681,5,2D1U,2.0,True,0.358,45,True,right,-0.08336,0.4671,0.7924,0.3252,1.6515,1.9264,0.2748,A
348,0.50016,1.2,2,0.24174,0.24174,0.71689,348,2.15901,-0.078,-0.04168,0.45848,5,2U1D,1.0,True,0.236,42,True,left,0.16672,1.6154,2.0321,0.4167,0.1236,0.8654,0.7417,A
349,0.50016,1.2,1,0.40846,0.43347,0.47515,349,2.27572,-0.078,-0.04168,0.45848,5,2U1D,2.0,True,0.246,42,True,right,0.08336,0.3694,0.903,0.5336,1.3026,1.9617,0.6591,A
350,0.50016,1.2,2,0.23341,0.20006,0.77524,350,2.20069,-0.024,-0.00834,0.49182,5,2U1D,1.0,True,0.333,42,False,left,-0.08336,1.5432,1.9929,0.4497,0.2433,0.7354,0.4921,A
351,0.50016,0.1,1,0.43347,0.38345,0.40846,351,2.19235,-0.072,-0.03334,0.46681,5,2D1U,2.0,True,1.641,45,True,right,0.16672,0.4988,0.8236,0.3248,1.2159,1.7409,0.525,A
352,0.50016,0.1,2,0.26675,0.42513,0.90028,352,2.58414,-0.018,-0.00834,0.49182,5,2D1U,2.0,False,0.262,46,True,right,0.08336,1.6957,2.1112,0.4155,0.2872,0.7283,0.4411,A
353,0.50016,0.1,2,0.24174,0.30009,0.6502,353,2.18401,-0.024,-0.00834,0.49182,5,2U1D,2.0,False,0.113,42,False,right,-0.08336,1.3393,1.7548,0.4156,0.347,0.6217,0.2747,A
354,0.50016,1.2,1,0.33344,0.20006,0.6252,354,2.11734,-0.078,-0.04168,0.45848,5,2U1D,1.0,False,0.384,43,True,left,0.16672,0.2995,0.8333,0.5337,1.3412,2.0829,0.7417,A
355,0.50016,1.2,1,0.21673,0.33344,0.40846,355,1.9256,-0.072,-0.03334,0.46681,5,2D1U,2.0,True,0.644,47,True,right,0.08336,0.1864,0.7283,0.5418,1.0611,1.7196,0.6585,A
356,0.50016,1.2,2,0.40846,0.29176,0.47515,356,2.109,-0.132,-0.06669,0.43347,5,2U1D,1.0,True,0.333,43,False,left,-0.08336,1.4127,1.8037,0.3911,0.4131,0.9046,0.4914,A
357,0.50016,0.1,2,0.40846,0.30843,0.70856,357,2.35908,-0.132,-0.06669,0.43347,5,2U1D,1.0,True,0.252,43,False,left,0.16672,1.6895,2.0479,0.3585,0.3904,0.9149,0.5245,A
358,0.50016,0.1,1,0.3251,0.34177,0.73356,358,2.3674,-0.072,-0.03334,0.46681,5,2D1U,2.0,True,0.201,47,True,right,0.08336,0.3898,0.7148,0.3249,1.4734,1.9144,0.441,A
359,0.50016,0.1,2,0.36678,0.38345,0.70022,359,2.44243,-0.018,-0.00834,0.49182,5,2D1U,1.0,True,0.112,48,True,left,-0.08336,1.5183,1.9345,0.4162,0.4755,0.751,0.2755,A
360,0.50016,1.2,1,0.44181,0.27509,0.69188,360,2.36742,-0.078,-0.04168,0.45848,5,2U1D,2.0,True,0.246,44,True,right,0.16672,0.4087,0.9425,0.5338,1.5172,2.2584,0.7412,A
361,0.50016,1.2,1,0.36678,0.40013,0.75857,361,2.51746,-0.018,-0.00834,0.49182,5,2D1U,2.0,True,0.148,48,True,right,0.08336,0.3307,0.8976,0.567,1.581,2.239,0.658,A
362,0.50016,1.2,1,0.43347,0.38345,0.52516,362,2.35907,0.036,0.01667,0.51683,5,2D1U,1.0,True,0.355,48,False,left,-0.08336,0.396,0.9881,0.5921,1.5207,2.0125,0.4918,A
363,0.50016,0.1,1,0.33344,0.34177,0.70856,363,2.34241,-0.078,-0.04168,0.45848,5,2U1D,2.0,True,0.22,44,True,right,0.16672,0.4027,0.7191,0.3164,1.411,1.9364,0.5254,A
364,0.50016,0.1,2,0.25841,0.25008,0.79192,364,2.3174,0.036,0.01667,0.51683,5,2D1U,2.0,True,0.285,48,False,right,0.08336,1.5809,2.0229,0.442,0.2809,0.7232,0.4423,A
365,0.50016,0.1,2,0.25008,0.37512,0.80859,365,2.42577,-0.024,-0.00834,0.49182,5,2U1D,2.0,False,0.107,44,False,right,-0.08336,1.5075,1.9239,0.4164,0.3575,0.6324,0.2749,A
366,0.50016,1.2,2,0.37512,0.26675,0.70856,366,2.30907,-0.078,-0.04168,0.45848,5,2U1D,1.0,True,0.304,45,True,left,0.16672,1.7423,2.1587,0.4164,0.2593,1.0004,0.741,A
367,0.50016,1.2,2,0.38345,0.44181,0.6252,367,2.44244,-0.018,-0.00834,0.49182,5,2D1U,2.0,False,1.179,48,False,right,0.08336,1.6214,2.0703,0.4488,0.3035,0.9619,0.6583,A
368,0.50016,1.2,2,0.25841,0.30843,0.75857,368,2.28405,-0.078,-0.04168,0.45848,5,2U1D,2.0,False,0.225,45,True,right,-0.08336,1.5455,1.9615,0.416,0.2623,0.7536,0.4913,A
369,0.50016,0.1,2,0.29176,0.31677,0.77524,369,2.35074,-0.072,-0.03334,0.46681,5,2D1U,1.0,True,0.335,49,True,left,0.16672,1.6406,2.0321,0.3914,0.2736,0.7994,0.5259,A
370,0.50016,0.1,2,0.44181,0.33344,0.64187,370,2.38409,-0.072,-0.03334,0.46681,5,2D1U,2.0,False,0.459,49,True,right,0.08336,1.6186,2.0107,0.3922,0.4689,0.9119,0.443,A
371,0.50016,0.1,2,0.39179,0.34177,0.84193,371,2.50912,-0.132,-0.06669,0.43347,5,2U1D,1.0,True,0.329,45,False,left,-0.08336,1.686,2.0444,0.3585,0.5031,0.7781,0.275,A
372,0.50016,1.2,2,0.42513,0.28342,0.68355,372,2.32573,-0.126,-0.06669,0.43347,5,2D1U,2.0,False,0.314,49,False,right,0.16672,1.7656,2.1568,0.3911,0.3074,1.0485,0.7411,A
373,0.50016,1.2,2,0.40846,0.2084,0.71689,373,2.24237,-0.18,-0.0917,0.40846,5,2D1U,1.0,True,0.331,49,False,left,0.08336,1.744,2.1102,0.3663,0.3359,0.9935,0.6575,A
374,0.50016,1.2,2,0.30843,0.34177,0.50849,374,2.09232,-0.132,-0.06669,0.43347,5,2U1D,1.0,True,0.242,45,False,left,-0.08336,1.3455,1.7375,0.392,0.3123,0.8043,0.4919,A
375,0.50016,0.1,2,0.27509,0.38345,0.49182,375,2.05898,-0.18,-0.0917,0.40846,5,2D1U,1.0,True,0.284,49,False,left,0.16672,1.3457,1.6781,0.3324,0.2621,0.7863,0.5243,A
376,0.50016,0.1,2,0.4168,0.2084,0.6502,376,2.20903,-0.126,-0.06669,0.43347,5,2D1U,1.0,True,0.315,50,True,left,0.08336,1.5963,1.9543,0.3581,0.4384,0.8793,0.4408,A
377,0.50016,0.1,1,0.45014,0.24174,0.83359,377,2.48411,-0.078,-0.04168,0.45848,5,2U1D,1.0,False,0.353,46,True,left,-0.08336,0.5197,0.8369,0.3171,1.7779,2.0527,0.2749,A
378,0.50016,1.2,1,0.25008,0.43347,0.80025,378,2.41743,-0.126,-0.06669,0.43347,5,2D1U,2.0,True,0.164,50,True,right,0.16672,0.2148,0.7236,0.5088,1.407,2.1483,0.7413,A
379,0.50016,1.2,2,0.24174,0.22507,0.73356,379,2.16734,-0.072,-0.03334,0.46681,5,2D1U,1.0,True,0.833,50,False,left,0.08336,1.5947,2.0189,0.4241,0.1691,0.8278,0.6587,A
380,0.50016,1.2,1,0.24174,0.26675,0.65854,380,2.134,-0.072,-0.03334,0.46681,5,2D1U,1.0,False,0.858,50,False,left,-0.08336,0.2088,0.7497,0.5409,1.417,1.9081,0.4911,A
381,0.50016,0.1,1,0.2084,0.2084,0.54184,381,1.89227,-0.132,-0.06669,0.43347,5,2U1D,2.0,True,0.316,47,True,right,0.16672,0.2736,0.5654,0.2918,1.091,1.6154,0.5244,A
382,0.50016,0.1,2,0.25008,0.31677,0.73356,382,2.23404,-0.126,-0.06669,0.43347,5,2D1U,1.0,True,0.258,51,True,left,0.08336,1.5147,1.8726,0.3579,0.2726,0.715,0.4424,A
383,0.50016,0.1,2,0.33344,0.40846,0.82526,383,2.50079,-0.132,-0.06669,0.43347,5,2U1D,1.0,True,0.65,47,True,left,-0.08336,1.6063,1.9655,0.3591,0.4401,0.7151,0.275,A
384,0.50016,1.2,1,0.26675,0.35011,0.6252,384,2.17569,-0.126,-0.06669,0.43347,5,2D1U,1.0,False,2.284,51,True,left,0.16672,0.2316,0.7405,0.5089,1.2492,1.9899,0.7407,A
385,0.50016,1.2,2,0.44181,0.44181,0.70856,385,2.5008,-0.18,-0.0917,0.40846,5,2D1U,1.0,True,0.741,51,False,left,0.08336,1.766,2.1323,0.3663,0.3657,1.0247,0.659,A
386,0.50016,1.2,1,0.39179,0.30009,0.73356,386,2.33406,-0.18,-0.0917,0.40846,5,2D1U,1.0,False,0.542,51,False,left,-0.08336,0.3575,0.8406,0.483,1.582,2.0742,0.4922,A
387,0.50016,0.1,2,0.3251,0.25008,0.45014,387,1.98396,-0.078,-0.04168,0.45848,5,2U1D,1.0,True,0.252,48,True,left,0.16672,1.3465,1.729,0.3825,0.3043,0.8295,0.5253,A
388,0.50016,0.1,2,0.22507,0.35845,0.65854,388,2.2007,-0.078,-0.04168,0.45848,5,2U1D,1.0,True,0.292,48,True,left,0.08336,1.415,1.7985,0.3834,0.2483,0.6905,0.4423,A
389,0.50016,0.1,1,0.36678,0.37512,0.50849,389,2.24237,-0.024,-0.00834,0.49182,5,2U1D,1.0,False,0.175,48,False,left,-0.08336,0.4334,0.7836,0.3502,1.3996,1.6744,0.2749,A
390,0.50016,1.2,2,0.40846,0.23341,0.43347,390,2.03398,-0.078,-0.04168,0.45848,5,2U1D,1.0,True,0.31,49,True,left,0.16672,1.4983,1.915,0.4167,0.2905,1.0314,0.741,A
391,0.50016,1.2,1,0.31677,0.45014,0.8586,391,2.50912,-0.234,-0.1167,0.38345,5,2D1U,2.0,True,0.36,51,False,right,0.08336,0.2863,0.7444,0.4581,1.5276,2.187,0.6594,A
392,0.50016,1.2,1,0.35011,0.24174,0.70856,392,2.18402,-0.234,-0.1167,0.38345,5,2D1U,1.0,False,0.272,51,False,left,-0.08336,0.3125,0.7717,0.4592,1.4876,1.9794,0.4918,A
393,0.50016,0.1,2,0.38345,0.25008,0.55851,393,2.15068,-0.078,-0.04168,0.45848,5,2U1D,1.0,True,0.234,49,True,left,0.16672,1.5131,1.8969,0.3838,0.3637,0.8881,0.5244,A
394,0.50016,0.1,1,0.25008,0.25008,0.64187,394,2.00064,-0.288,-0.14171,0.35845,5,2D1U,2.0,True,0.334,51,False,right,0.08336,0.3149,0.5319,0.2171,1.1982,1.6403,0.4421,A
395,0.50016,0.1,2,0.33344,0.4168,0.52516,395,2.13401,-0.288,-0.14171,0.35845,5,2D1U,1.0,True,0.17,51,False,left,-0.08336,1.304,1.5873,0.2833,0.4372,0.7121,0.2749,A
396,0.50016,1.2,1,0.30009,0.2084,0.80859,396,2.30906,-0.024,-0.00834,0.49182,5,2U1D,2.0,True,1.544,50,True,right,0.16672,0.2686,0.8346,0.566,1.5266,2.2685,0.7419,A
397,0.50016,1.2,1,0.3251,0.40013,0.79192,397,2.40076,-0.234,-0.1167,0.38345,5,2D1U,2.0,True,0.366,52,True,right,0.08336,0.2862,0.7447,0.4585,1.4618,2.1203,0.6585,A
398,0.50016,1.2,1,0.35845,0.25841,0.45014,398,1.95061,-0.234,-0.1167,0.38345,5,2D1U,1.0,False,0.308,52,True,left,-0.08336,0.3281,0.7864,0.4583,1.2448,1.7359,0.4912,A
399,0.50016,0.1,1,0.35845,0.35011,0.5335,399,2.23404,-0.024,-0.00834,0.49182,5,2U1D,1.0,False,0.376,50,True,left,0.16672,0.4202,0.7703,0.3501,1.2862,1.8117,0.5255,A
400,0.50016,0.1,2,0.26675,0.37512,0.49182,400,2.09233,-0.078,-0.04168,0.45848,5,2U1D,1.0,True,0.378,51,True,left,0.08336,1.2895,1.6728,0.3833,0.2894,0.7314,0.442,A
401,0.50016,0.1,1,0.43347,0.33344,0.64187,401,2.26739,-0.288,-0.14171,0.35845,5,2D1U,2.0,True,0.257,53,True,right,-0.08336,0.4948,0.7121,0.2174,1.4614,1.7364,0.275,A
402,0.50016,1.2,1,0.23341,0.29176,0.45848,402,1.94229,-0.078,-0.04168,0.45848,5,2U1D,1.0,False,0.5,51,True,left,0.16672,0.201,0.7342,0.5331,1.0766,1.8179,0.7412,A
403,0.50016,1.2,1,0.42513,0.44181,0.67521,403,2.40076,-0.288,-0.14171,0.35845,5,2D1U,2.0,True,0.242,53,True,right,0.08336,0.3891,0.822,0.4329,1.4227,2.0802,0.6575,A
404,0.50016,1.2,1,0.37512,0.31677,0.50849,404,2.08399,-0.234,-0.1167,0.38345,5,2D1U,1.0,False,0.509,54,True,left,-0.08336,0.3373,0.7952,0.4579,1.3126,1.8035,0.4909,A
405,0.50016,0.1,1,0.25841,0.34177,0.5335,405,1.99229,-0.288,-0.14171,0.35845,5,2D1U,2.0,True,0.307,55,True,right,0.16672,0.3259,0.5425,0.2166,1.0592,1.585,0.5258,A
406,0.50016,0.1,2,0.29176,0.39179,0.43347,406,2.05065,-0.132,-0.06669,0.43347,5,2U1D,1.0,True,0.28,51,False,left,0.08336,1.258,1.6166,0.3587,0.3158,0.7577,0.4419,A
407,0.50016,0.1,1,0.20006,0.23341,0.4168,407,1.70888,-0.288,-0.14171,0.35845,5,2D1U,2.0,True,0.281,55,True,right,-0.08336,0.2655,0.4814,0.2159,1.0063,1.2817,0.2754,A
408,0.50016,1.2,1,0.28342,0.34177,0.55017,408,2.10899,-0.132,-0.06669,0.43347,5,2U1D,1.0,False,0.265,51,False,left,0.16672,0.2531,0.7608,0.5077,1.1944,1.937,0.7426,A
409,0.50016,1.2,1,0.20006,0.36678,0.8586,409,2.30905,-0.234,-0.1167,0.38345,5,2D1U,2.0,True,0.275,56,True,right,0.08336,0.1671,0.6255,0.4584,1.4084,2.0666,0.6582,A
410,0.50016,1.2,1,0.24174,0.26675,0.60019,410,2.0173,-0.186,-0.0917,0.40846,5,2U1D,1.0,False,1.325,51,False,left,-0.08336,0.211,0.6946,0.4835,1.3029,1.7947,0.4917,A
411,0.50016,0.1,1,0.30009,0.38345,0.6252,411,2.19235,-0.24,-0.1167,0.38345,5,2U1D,1.0,False,0.265,51,False,left,0.16672,0.3674,0.6091,0.2417,1.218,1.7428,0.5248,A
412,0.50016,0.1,2,0.38345,0.28342,0.63353,412,2.18401,-0.234,-0.1167,0.38345,5,2D1U,1.0,True,0.275,56,True,left,0.08336,1.5516,1.8599,0.3084,0.4101,0.8513,0.4412,A
413,0.50016,0.1,2,0.20006,0.4168,0.7419,413,2.26738,-0.18,-0.0917,0.40846,5,2D1U,1.0,True,0.738,56,False,left,-0.08336,1.3893,1.7221,0.3328,0.3059,0.5811,0.2752,A
414,0.50016,1.2,1,0.33344,0.38345,0.80859,414,2.4341,-0.18,-0.0917,0.40846,5,2D1U,1.0,False,0.376,56,False,left,0.16672,0.3016,0.7847,0.4831,1.4761,2.2177,0.7416,A
415,0.50016,1.2,1,0.37512,0.31677,0.63353,415,2.17569,-0.294,-0.15005,0.35011,5,2U1D,1.0,False,1.806,51,False,left,0.08336,0.3401,0.7652,0.4251,1.3233,1.9817,0.6585,A
416,0.50016,1.2,2,0.43347,0.27509,0.61686,416,2.20903,-0.234,-0.1167,0.38345,5,2D1U,2.0,False,0.231,57,True,right,-0.08336,1.5851,1.9262,0.3411,0.443,0.9348,0.4917,A
417,0.50016,0.1,1,0.22507,0.35845,0.70856,417,2.11734,-0.348,-0.17505,0.3251,5,2U1D,2.0,True,0.287,51,False,right,0.16672,0.2947,0.4783,0.1837,1.1701,1.6951,0.525,A
418,0.50016,0.1,2,0.24174,0.25841,0.82526,418,2.15067,-0.348,-0.17505,0.3251,5,2U1D,1.0,True,0.283,51,False,left,0.08336,1.603,1.8528,0.2497,0.2704,0.7114,0.441,A
419,0.50016,0.1,1,0.3251,0.43347,0.45014,419,2.06732,-0.288,-0.14171,0.35845,5,2D1U,2.0,True,0.25,57,False,right,-0.08336,0.3905,0.6072,0.2167,1.1647,1.4399,0.2752,A
420,0.50016,1.2,2,0.40846,0.30009,0.48349,420,2.04231,-0.294,-0.15005,0.35011,5,2U1D,1.0,True,0.289,52,True,left,0.16672,1.5465,1.8555,0.309,0.2884,1.0309,0.7425,A
421,0.50016,1.2,2,0.28342,0.35011,0.60019,421,2.09233,-0.288,-0.14171,0.35845,5,2D1U,1.0,True,0.248,57,False,left,0.08336,1.503,1.8198,0.3168,0.2118,0.8703,0.6584,A
422,0.50016,1.2,1,0.4168,0.45014,0.43347,422,2.15068,-0.294,-0.15005,0.35011,5,2U1D,2.0,True,0.18,52,True,right,-0.08336,0.3848,0.8098,0.4249,1.2518,1.743,0.4912,A
423,0.50016,0.1,1,0.30009,0.31677,0.48349,423,1.98396,-0.24,-0.1167,0.38345,5,2U1D,2.0,True,0.138,52,False,right,0.16672,0.3625,0.6048,0.2423,1.0713,1.5959,0.5247,A
424,0.50016,0.1,1,0.2084,0.2084,0.44181,424,1.74222,-0.234,-0.1167,0.38345,5,2D1U,2.0,True,0.214,58,True,right,0.08336,0.2758,0.5178,0.242,0.9842,1.4257,0.4415,A
425,0.50016,0.1,1,0.25841,0.30009,0.75857,425,2.20068,-0.234,-0.1167,0.38345,5,2D1U,2.0,True,0.283,58,True,right,-0.08336,0.3214,0.5632,0.2418,1.4301,1.7043,0.2742,A
426,0.50016,1.2,1,0.39179,0.2084,0.70022,426,2.20903,-0.18,-0.0917,0.40846,5,2D1U,2.0,True,0.218,58,False,right,0.16672,0.357,0.8398,0.4828,1.423,2.1657,0.7427,A
427,0.50016,1.2,1,0.36678,0.40846,0.88361,427,2.54246,-0.24,-0.1167,0.38345,5,2U1D,2.0,True,0.275,52,False,right,0.08336,0.3355,0.7934,0.4578,1.602,2.26,0.658,A
428,0.50016,1.2,1,0.43347,0.4168,0.47515,428,2.23404,-0.18,-0.0917,0.40846,5,2D1U,2.0,True,0.137,58,False,right,-0.08336,0.398,0.8806,0.4827,1.3637,1.8556,0.4919,A
429,0.50016,0.1,1,0.38345,0.21673,0.6252,429,2.15901,-0.126,-0.06669,0.43347,5,2D1U,2.0,True,0.979,58,False,right,0.16672,0.4528,0.7454,0.2926,1.3528,1.8778,0.525,A
430,0.50016,0.1,2,0.29176,0.36678,0.58352,430,2.15068,-0.186,-0.0917,0.40846,5,2U1D,1.0,True,0.113,52,False,left,0.08336,1.4072,1.7397,0.3324,0.3154,0.7565,0.4411,A
431,0.50016,0.1,2,0.36678,0.25841,0.86694,431,2.40075,-0.186,-0.0917,0.40846,5,2U1D,1.0,True,0.234,52,False,left,-0.08336,1.6867,2.0194,0.3326,0.4777,0.7534,0.2757,A
432,0.50016,1.2,1,0.35011,0.39179,0.55851,432,2.23404,-0.126,-0.06669,0.43347,5,2D1U,2.0,True,0.109,58,False,right,0.16672,0.3186,0.8277,0.5091,1.2689,2.0108,0.7419,A
433,0.50016,1.2,2,0.23341,0.35845,0.68355,433,2.20904,-0.132,-0.06669,0.43347,5,2U1D,1.0,True,0.275,52,False,left,0.08336,1.5338,1.9259,0.3921,0.1595,0.8171,0.6576,A
434,0.50016,1.2,2,0.44181,0.33344,0.43347,434,2.17569,-0.072,-0.03334,0.46681,5,2D1U,1.0,True,0.649,58,False,left,-0.08336,1.4076,1.8324,0.4248,0.4496,0.9407,0.4911,A
435,0.50016,0.1,1,0.35011,0.4168,0.80025,435,2.50079,-0.132,-0.06669,0.43347,5,2U1D,2.0,True,0.449,52,False,right,0.16672,0.4193,0.7104,0.291,1.4941,2.019,0.5249,A
436,0.50016,0.1,1,0.2084,0.44181,0.84193,436,2.45911,-0.072,-0.03334,0.46681,5,2D1U,2.0,True,0.335,58,False,right,0.08336,0.2759,0.6009,0.325,1.4672,1.9097,0.4424,A
437,0.50016,0.1,1,0.28342,0.39179,0.77524,437,2.44243,-0.018,-0.00834,0.49182,5,2D1U,2.0,True,0.333,58,False,right,-0.08336,0.3484,0.6984,0.35,1.5823,1.8565,0.2742,A
438,0.50016,1.2,2,0.37512,0.40013,0.80859,438,2.54248,-0.078,-0.04168,0.45848,5,2U1D,1.0,True,0.314,52,False,left,0.16672,1.838,2.255,0.417,0.2549,0.997,0.7421,A
439,0.50016,1.2,1,0.25841,0.30009,0.45848,439,2.00896,-0.018,-0.00834,0.49182,5,2D1U,1.0,False,0.3,58,False,left,0.08336,0.2237,0.7914,0.5676,1.1736,1.8323,0.6587,A
440,0.50016,1.2,1,0.33344,0.25841,0.78358,440,2.33407,-0.078,-0.04168,0.45848,5,2U1D,1.0,False,0.319,52,False,left,-0.08336,0.2984,0.8321,0.5337,1.6232,2.1155,0.4923,A
441,0.50016,0.1,2,0.40846,0.39179,0.5335,441,2.26738,-0.132,-0.06669,0.43347,5,2U1D,1.0,True,0.446,53,True,left,0.16672,1.5174,1.8756,0.3582,0.3923,0.9178,0.5255,A
442,0.50016,0.1,1,0.2084,0.42513,0.72523,442,2.32573,-0.072,-0.03334,0.46681,5,2D1U,2.0,True,0.355,59,True,right,0.08336,0.2726,0.5969,0.3243,1.3469,1.7886,0.4416,A
443,0.50016,0.1,2,0.27509,0.39179,0.73356,443,2.33407,-0.132,-0.06669,0.43347,5,2U1D,1.0,True,0.245,53,True,left,-0.08336,1.4572,1.8155,0.3582,0.3823,0.657,0.2747,A
444,0.50016,1.2,2,0.26675,0.38345,0.50016,444,2.109,-0.078,-0.04168,0.45848,5,2U1D,1.0,True,0.343,54,True,left,0.16672,1.4232,1.8404,0.4172,0.1493,0.8899,0.7406,A
445,0.50016,1.2,1,0.37512,0.30843,0.61686,445,2.26738,-0.072,-0.03334,0.46681,5,2D1U,1.0,False,0.37,59,True,left,0.08336,0.3419,0.8831,0.5412,1.4247,2.0833,0.6586,A
446,0.50016,1.2,1,0.37512,0.22507,0.87527,446,2.4341,-0.078,-0.04168,0.45848,5,2U1D,1.0,False,0.275,54,True,left,-0.08336,0.3378,0.8708,0.5331,1.7542,2.2461,0.492,A
447,0.50016,0.1,2,0.37512,0.27509,0.86694,447,2.45078,-0.126,-0.06669,0.43347,5,2D1U,1.0,True,0.283,59,False,left,0.16672,1.8141,2.1731,0.359,0.3554,0.8807,0.5253,A
448,0.50016,0.1,1,0.34177,0.43347,0.6502,448,2.35907,-0.126,-0.06669,0.43347,5,2D1U,2.0,True,0.264,59,False,right,0.08336,0.4043,0.6953,0.291,1.3706,1.812,0.4415,A
449,0.50016,0.1,2,0.34177,0.43347,0.47515,449,2.18402,-0.132,-0.06669,0.43347,5,2U1D,1.0,True,0.129,55,True,left,-0.08336,1.2656,1.6239,0.3583,0.4491,0.7235,0.2744,A
450,0.50016,1.2,2,0.38345,0.34177,0.85027,450,2.54246,-0.072,-0.03334,0.46681,5,2D1U,1.0,True,0.29,60,True,left,0.16672,1.8893,2.3144,0.4251,0.2638,1.0056,0.7418,A
451,0.50016,1.2,2,0.45014,0.39179,0.67521,451,2.45077,-0.132,-0.06669,0.43347,5,2U1D,1.0,True,0.163,55,True,left,0.08336,1.7404,2.1321,0.3917,0.3734,1.0322,0.6589,A
452,0.50016,1.2,2,0.29176,0.4168,0.51683,452,2.18403,-0.078,-0.04168,0.45848,5,2U1D,1.0,True,0.221,56,True,left,-0.08336,1.3435,1.7603,0.4169,0.302,0.7939,0.4918,A
453,0.50016,0.1,1,0.38345,0.42513,0.58352,453,2.35907,-0.072,-0.03334,0.46681,5,2D1U,1.0,False,0.173,60,True,left,0.16672,0.4482,0.7731,0.3248,1.34,1.865,0.5251,A
454,0.50016,0.1,2,0.42513,0.26675,0.75024,454,2.37575,-0.126,-0.06669,0.43347,5,2D1U,1.0,True,0.221,61,True,left,0.08336,1.7054,2.0637,0.3583,0.4468,0.8885,0.4417,A
455,0.50016,0.1,2,0.22507,0.38345,0.61686,455,2.18402,-0.078,-0.04168,0.45848,5,2U1D,1.0,True,0.241,56,True,left,-0.08336,1.2896,1.6732,0.3835,0.3313,0.6066,0.2753,A
456,0.50016,1.2,2,0.24174,0.40013,0.81692,456,2.39242,-0.126,-0.06669,0.43347,5,2D1U,1.0,True,0.323,61,True,left,0.16672,1.7176,2.1093,0.3916,0.1259,0.8679,0.7419,A
457,0.50016,1.2,1,0.23341,0.3251,0.88361,457,2.40909,-0.072,-0.03334,0.46681,5,2D1U,2.0,True,0.306,62,True,right,0.08336,0.1963,0.7382,0.5419,1.5466,2.2047,0.6581,A
458,0.50016,1.2,1,0.36678,0.42513,0.87527,458,2.65916,-0.024,-0.00834,0.49182,5,2U1D,2.0,True,1.505,56,False,right,-0.08336,0.3359,0.9029,0.567,1.7861,2.2776,0.4915,A
459,0.50016,0.1,1,0.4168,0.30843,0.57518,459,2.26738,-0.072,-0.03334,0.46681,5,2D1U,2.0,True,1.129,62,True,right,0.16672,0.4865,0.811,0.3245,1.3694,1.8945,0.525,A
460,0.50016,0.1,2,0.44181,0.37512,0.73356,460,2.54247,-0.024,-0.00834,0.49182,5,2U1D,2.0,False,0.422,56,False,right,0.08336,1.7106,2.1267,0.4161,0.4679,0.9101,0.4422,A
461,0.50016,0.1,2,0.42513,0.27509,0.6502,461,2.3424,-0.018,-0.00834,0.49182,5,2D1U,1.0,True,2.714,62,False,left,-0.08336,1.5225,1.9387,0.4161,0.5309,0.8055,0.2746,A
462,0.50016,1.2,2,0.35011,0.33344,0.64187,462,2.28406,-0.078,-0.04168,0.45848,5,2U1D,1.0,True,0.958,57,True,left,0.16672,1.6473,2.0649,0.4175,0.2312,0.973,0.7418,A
463,0.50016,1.2,1,0.24174,0.29176,0.88361,463,2.40909,-0.018,-0.00834,0.49182,5,2D1U,2.0,True,0.293,62,False,right,0.08336,0.2034,0.7701,0.5667,1.5785,2.2373,0.6587,A
464,0.50016,1.2,1,0.31677,0.2084,0.46681,464,1.95062,-0.078,-0.04168,0.45848,5,2U1D,1.0,False,0.343,57,True,left,-0.08336,0.2807,0.8134,0.5328,1.2888,1.7801,0.4913,A
465,0.50016,0.1,1,0.43347,0.35011,0.86694,465,2.66751,0.036,0.01667,0.51683,5,2D1U,2.0,False,0.153,62,False,right,0.16672,0.4986,0.8742,0.3756,1.7242,2.2486,0.5245,A
466,0.50016,0.1,2,0.37512,0.38345,0.84193,466,2.6425,0.09,0.04168,0.54184,5,2D1U,2.0,True,0.224,63,True,right,0.08336,1.7482,2.214,0.4658,0.3977,0.8389,0.4413,A
467,0.50016,0.1,1,0.34177,0.25008,0.65854,467,2.29239,0.09,0.04168,0.54184,5,2D1U,2.0,False,1.35,63,True,right,-0.08336,0.4075,0.8077,0.4002,1.5746,1.8491,0.2746,A
468,0.50016,1.2,2,0.30009,0.31677,0.45848,468,2.00897,-0.132,-0.06669,0.43347,5,2U1D,1.0,True,0.378,57,False,left,0.16672,1.4153,1.8064,0.3911,0.1813,0.923,0.7417,A
469,0.50016,1.2,2,0.22507,0.33344,0.6252,469,2.25905,0.144,0.07502,0.57518,5,2D1U,2.0,True,0.264,63,False,right,0.08336,1.4638,1.9974,0.5336,0.147,0.8056,0.6587,A
470,0.50016,1.2,1,0.24174,0.25841,0.70022,470,2.27571,0.144,0.07502,0.57518,5,2D1U,2.0,False,0.396,63,False,right,-0.08336,0.2116,0.8616,0.65,1.5696,2.0617,0.4921,A
471,0.50016,0.1,1,0.2084,0.38345,0.46681,471,1.99229,-0.132,-0.06669,0.43347,5,2U1D,1.0,False,2.392,57,False,left,0.16672,0.2781,0.5699,0.2918,1.0203,1.5449,0.5246,A
472,0.50016,0.1,2,0.36678,0.31677,0.77524,472,2.36741,-0.186,-0.0917,0.40846,5,2U1D,1.0,True,0.646,57,False,left,0.08336,1.672,2.0053,0.3333,0.3888,0.8302,0.4414,A
473,0.50016,0.1,1,0.39179,0.34177,0.90028,473,2.54246,-0.186,-0.0917,0.40846,5,2U1D,2.0,True,0.107,57,False,right,-0.08336,0.46,0.726,0.266,1.7352,2.0097,0.2745,A
474,0.50016,1.2,2,0.39179,0.40013,0.75024,474,2.64251,0.198,0.10003,0.60019,5,2D1U,2.0,True,0.389,63,False,right,0.16672,1.7971,2.3548,0.5578,0.2715,1.0141,0.7426,A
475,0.50016,1.2,1,0.35845,0.25841,0.87527,475,2.42576,-0.132,-0.06669,0.43347,5,2U1D,1.0,False,0.26,58,True,left,0.08336,0.3228,0.8319,0.509,1.6317,2.2895,0.6578,A
476,0.50016,1.2,2,0.30009,0.38345,0.45014,476,2.0423,-0.186,-0.0917,0.40846,5,2U1D,1.0,True,0.245,59,True,left,-0.08336,1.2804,1.6478,0.3674,0.3062,0.7978,0.4917,A
477,0.50016,0.1,1,0.23341,0.31677,0.46681,477,1.92561,-0.186,-0.0917,0.40846,5,2U1D,2.0,True,0.191,59,True,right,0.16672,0.2988,0.5646,0.2658,1.0144,1.5396,0.5252,A
478,0.50016,0.1,2,0.31677,0.3251,0.50016,478,2.24238,0.198,0.10003,0.60019,5,2D1U,2.0,True,0.228,63,False,right,0.08336,1.3486,1.8736,0.525,0.3404,0.7825,0.4421,A
479,0.50016,0.1,2,0.40846,0.2084,0.40013,479,1.95062,-0.132,-0.06669,0.43347,5,2U1D,1.0,True,0.266,60,True,left,-0.08336,1.2565,1.6154,0.3588,0.5149,0.7905,0.2756,A
480,0.50016,1.2,1,0.4168,0.21673,0.81692,480,2.52579,0.144,0.07502,0.57518,5,2D1U,2.0,False,0.621,64,True,right,0.16672,0.3782,1.0284,0.6502,1.7287,2.4698,0.741,A
481,0.50016,1.2,1,0.33344,0.21673,0.59185,481,2.24237,0.198,0.10003,0.60019,5,2D1U,1.0,True,0.297,65,True,left,0.08336,0.2952,0.9696,0.6743,1.4865,2.1456,0.6591,A
482,0.50016,1.2,1,0.21673,0.43347,0.72523,482,2.30906,-0.132,-0.06669,0.43347,5,2U1D,2.0,True,0.182,60,True,right,-0.08336,0.1841,0.6923,0.5082,1.4252,1.9169,0.4917,A
483,0.50016,0.1,2,0.36678,0.37512,0.54184,483,2.38409,0.198,0.10003,0.60019,5,2D1U,2.0,True,0.159,65,True,right,0.16672,1.4843,2.0091,0.5249,0.351,0.8758,0.5248,A
484,0.50016,0.1,2,0.25841,0.37512,0.45014,484,2.15901,0.144,0.07502,0.57518,5,2D1U,2.0,True,0.409,66,True,right,0.08336,1.24,1.7407,0.5006,0.2818,0.7238,0.442,A
485,0.50016,0.1,1,0.28342,0.22507,0.40013,485,1.98396,0.144,0.07502,0.57518,5,2D1U,2.0,False,1.183,66,True,right,-0.08336,0.3517,0.7847,0.433,1.2929,1.5688,0.2759,A
486,0.50016,1.2,1,0.44181,0.26675,0.46681,486,2.13401,-0.078,-0.04168,0.45848,5,2U1D,2.0,True,0.241,60,False,right,0.16672,0.4061,0.9398,0.5337,1.2895,2.0317,0.7422,A
487,0.50016,1.2,1,0.25841,0.28342,0.51683,487,2.15901,0.198,0.10003,0.60019,5,2D1U,1.0,True,0.303,67,True,left,0.08336,0.2274,0.9014,0.674,1.343,2.0014,0.6583,A
488,0.50016,1.2,1,0.44181,0.24174,0.4168,488,2.2007,0.198,0.10003,0.60019,5,2D1U,1.0,True,0.467,67,True,left,-0.08336,0.4106,1.0848,0.6743,1.5101,2.0014,0.4913,A
489,0.50016,0.1,1,0.4168,0.31677,0.61686,489,2.42577,0.144,0.07502,0.57518,5,2D1U,1.0,True,0.225,68,True,left,0.16672,0.4807,0.9141,0.4333,1.5142,2.0394,0.5252,A
490,0.50016,0.1,2,0.38345,0.40846,0.8586,490,2.60915,-0.078,-0.04168,0.45848,5,2U1D,1.0,True,0.112,60,False,left,0.08336,1.7773,2.1603,0.383,0.4104,0.8524,0.442,A
491,0.50016,0.1,1,0.31677,0.37512,0.90028,491,2.58415,-0.024,-0.00834,0.49182,5,2U1D,2.0,True,0.146,60,False,right,-0.08336,0.3807,0.7303,0.3496,1.7389,2.0135,0.2746,A
492,0.50016,1.2,1,0.40013,0.25841,0.58352,492,2.3174,0.144,0.07502,0.57518,5,2D1U,1.0,True,0.297,68,True,left,0.16672,0.3678,1.0183,0.6504,1.4851,2.2273,0.7422,A
493,0.50016,1.2,1,0.31677,0.40013,0.70856,493,2.41744,-0.024,-0.00834,0.49182,5,2U1D,2.0,True,0.145,60,False,right,0.08336,0.2787,0.8455,0.5667,1.479,2.1371,0.6581,A
494,0.50016,1.2,1,0.25008,0.26675,0.68355,494,2.24238,0.09,0.04168,0.54184,5,2D1U,1.0,True,0.175,68,False,left,-0.08336,0.2117,0.8287,0.6169,1.52,2.0116,0.4916,A
495,0.50016,0.1,2,0.44181,0.26675,0.64187,495,2.36742,0.03,0.01667,0.51683,5,2U1D,1.0,False,0.199,60,False,left,0.16672,1.6579,2.0993,0.4414,0.4249,0.9497,0.5248,A
496,0.50016,0.1,2,0.29176,0.39179,0.4168,496,2.14235,0.09,0.04168,0.54184,5,2D1U,1.0,False,0.11,68,False,left,0.08336,1.2448,1.711,0.4662,0.3186,0.7606,0.442,A
497,0.50016,0.1,1,0.20006,0.20006,0.61686,497,2.09232,0.144,0.07502,0.57518,5,2D1U,1.0,True,0.175,69,True,left,-0.08336,0.2689,0.7018,0.4329,1.4271,1.7027,0.2756,A
498,0.50016,1.2,2,0.23341,0.31677,0.45014,498,2.04232,0.084,0.04168,0.54184,5,2U1D,1.0,False,0.266,61,True,left,0.16672,1.3428,1.8436,0.5007,0.1176,0.8596,0.742,A
499,0.50016,1.2,2,0.22507,0.28342,0.80859,499,2.39242,0.144,0.07502,0.57518,5,2D1U,2.0,True,0.231,69,True,right,0.08336,1.647,2.1806,0.5336,0.1475,0.8058,0.6583,A
500,0.50016,1.2,1,0.23341,0.25841,0.48349,500,2.01731,0.09,0.04168,0.54184,5,2D1U,1.0,True,0.251,70,True,left,-0.08336,0.1997,0.8161,0.6164,1.308,1.7994,0.4914,A
501,0.50016,0.1,2,0.36678,0.30843,0.72523,501,2.46744,0.138,0.06669,0.56684,5,2U1D,1.0,False,0.332,61,False,left,0.16672,1.6688,2.1605,0.4916,0.3518,0.8773,0.5255,A
502,0.50016,0.1,2,0.25841,0.30009,0.80025,502,2.45076,0.192,0.10003,0.59185,5,2U1D,2.0,True,0.283,61,False,right,0.08336,1.5943,2.1105,0.5162,0.2855,0.7279,0.4424,A
503,0.50016,0.1,1,0.30009,0.25841,0.8586,503,2.4591,0.09,0.04168,0.54184,5,2D1U,1.0,True,0.861,70,True,left,-0.08336,0.3665,0.7665,0.4,1.7332,2.0078,0.2746,A
504,0.50016,1.2,1,0.3251,0.42513,0.60019,504,2.44243,0.192,0.10003,0.59185,5,2U1D,2.0,False,1.074,61,False,right,0.16672,0.2897,0.9568,0.6671,1.4398,2.1815,0.7418,A
505,0.50016,1.2,2,0.40013,0.44181,0.40013,505,2.25906,0.036,0.01667,0.51683,5,2D1U,1.0,False,0.171,70,False,left,0.08336,1.4144,1.8899,0.4755,0.3231,0.9813,0.6582,A
506,0.50016,1.2,1,0.40013,0.43347,0.43347,506,2.39243,0.246,0.12504,0.6252,5,2U1D,1.0,True,0.264,61,False,left,-0.08336,0.3621,1.0616,0.6995,1.5032,1.9957,0.4925,A
507,0.50016,0.1,1,0.27509,0.45014,0.6252,507,2.39243,0.09,0.04168,0.54184,5,2D1U,1.0,True,0.109,71,True,left,0.16672,0.3412,0.7406,0.3994,1.3495,1.8736,0.5242,A
508,0.50016,0.1,1,0.40013,0.33344,0.58352,508,2.35909,0.09,0.04168,0.54184,5,2D1U,1.0,True,0.685,71,True,left,0.08336,0.4659,0.8656,0.3997,1.4738,1.9159,0.4422,A
509,0.50016,0.1,2,0.2084,0.40846,0.45848,509,2.2007,0.246,0.12504,0.6252,5,2U1D,2.0,True,0.434,61,False,right,-0.08336,1.1203,1.6697,0.5493,0.3201,0.5953,0.2752,A
510,0.50016,1.2,1,0.35845,0.4168,0.42513,510,2.21737,0.036,0.01667,0.51683,5,2D1U,1.0,True,0.352,72,True,left,0.16672,0.3213,0.9133,0.592,1.2214,1.9632,0.7418,A
511,0.50016,1.2,1,0.25841,0.27509,0.81692,511,2.44243,0.192,0.10003,0.59185,5,2U1D,1.0,True,0.272,62,True,left,0.08336,0.2224,0.8882,0.6659,1.6301,2.2885,0.6584,A
512,0.50016,1.2,2,0.21673,0.37512,0.86694,512,2.47578,0.036,0.01667,0.51683,5,2D1U,2.0,True,0.294,72,True,right,-0.08336,1.6134,2.0886,0.4752,0.2223,0.7136,0.4913,A
513,0.50016,0.1,1,0.26675,0.20006,0.45014,513,1.90893,-0.018,-0.00834,0.49182,5,2D1U,2.0,True,2.138,72,False,right,0.16672,0.3337,0.6838,0.3501,1.1176,1.6425,0.5249,A
514,0.50016,0.1,1,0.40013,0.38345,0.40013,514,2.27572,0.192,0.10003,0.59185,5,2U1D,1.0,True,0.412,62,True,left,0.08336,0.4647,0.9148,0.4501,1.3395,1.7816,0.4421,A
515,0.50016,0.1,2,0.38345,0.33344,0.60019,515,2.30906,-0.018,-0.00834,0.49182,5,2D1U,1.0,True,0.111,72,False,left,-0.08336,1.4289,1.8454,0.4164,0.4871,0.7626,0.2755,A
516,0.50016,1.2,1,0.45014,0.21673,0.58352,516,2.26738,0.036,0.01667,0.51683,5,2D1U,2.0,False,0.308,72,False,right,0.16672,0.4156,1.0076,0.5919,1.4746,2.2159,0.7412,A
517,0.50016,1.2,2,0.35845,0.40846,0.43347,517,2.26738,0.138,0.06669,0.56684,5,2U1D,2.0,True,0.387,62,False,right,0.08336,1.406,1.9313,0.5253,0.2811,0.9396,0.6585,A
518,0.50016,1.2,1,0.23341,0.21673,0.45014,518,1.96728,0.138,0.06669,0.56684,5,2U1D,1.0,True,0.242,62,False,left,-0.08336,0.1953,0.8375,0.6422,1.2957,1.7876,0.4919,A
519,0.50016,0.1,1,0.44181,0.2084,0.45848,519,2.15069,0.09,0.04168,0.54184,5,2D1U,1.0,True,0.439,73,True,left,0.16672,0.5104,0.9102,0.3998,1.352,1.8773,0.5254,A
520,0.50016,0.1,1,0.39179,0.2084,0.68355,520,2.32574,0.09,0.04168,0.54184,5,2D1U,2.0,False,0.738,73,True,right,0.08336,0.4555,0.8554,0.3998,1.563,2.0049,0.4418,A
521,0.50016,0.1,1,0.33344,0.34177,0.70022,521,2.41743,0.084,0.04168,0.54184,5,2U1D,1.0,True,0.385,62,False,left,-0.08336,0.3985,0.7983,0.3998,1.6063,1.8823,0.276,A
522,0.50016,1.2,2,0.40013,0.36678,0.63353,522,2.44244,0.084,0.04168,0.54184,5,2U1D,2.0,True,0.484,62,False,right,0.16672,1.6924,2.1926,0.5002,0.2845,1.0267,0.7422,A
523,0.50016,1.2,2,0.37512,0.27509,0.75024,523,2.47579,0.144,0.07502,0.57518,5,2D1U,1.0,False,0.367,73,False,left,0.08336,1.7449,2.2774,0.5325,0.3024,0.9608,0.6584,A
524,0.50016,1.2,2,0.33344,0.35845,0.69188,524,2.48412,0.198,0.10003,0.60019,5,2D1U,2.0,True,1.507,73,False,right,-0.08336,1.5613,2.1192,0.5579,0.3441,0.8358,0.4916,A
525,0.50016,0.1,2,0.44181,0.27509,0.70856,525,2.52581,0.198,0.10003,0.60019,5,2D1U,2.0,True,0.29,73,False,right,0.16672,1.7221,2.2475,0.5254,0.4222,0.9474,0.5251,A
526,0.50016,0.1,1,0.26675,0.23341,0.40846,526,1.92561,0.03,0.01667,0.51683,5,2U1D,1.0,True,0.284,62,False,left,0.08336,0.3351,0.7101,0.375,1.1439,1.5857,0.4418,A
527,0.50016,0.1,1,0.45014,0.42513,0.68355,527,2.63416,0.144,0.07502,0.57518,5,2D1U,2.0,False,1.614,74,True,right,-0.08336,0.5117,0.9447,0.433,1.7363,2.0114,0.2751,A
528,0.50016,1.2,2,0.24174,0.30843,0.77524,528,2.42576,0.198,0.10003,0.60019,5,2D1U,1.0,False,1.771,75,True,left,0.16672,1.6716,2.2301,0.5585,0.122,0.8633,0.7414,A
529,0.50016,1.2,1,0.31677,0.22507,0.88361,529,2.44244,0.03,0.01667,0.51683,5,2U1D,1.0,True,0.486,62,False,left,0.08336,0.2848,0.8764,0.5915,1.6844,2.3432,0.6588,A
530,0.50016,1.2,1,0.36678,0.25008,0.42513,530,2.03397,-0.024,-0.00834,0.49182,5,2U1D,1.0,False,0.236,62,False,left,-0.08336,0.3341,0.9007,0.5666,1.334,1.8257,0.4917,A
531,0.50016,0.1,2,0.27509,0.2084,0.79192,531,2.23405,-0.078,-0.04168,0.45848,5,2U1D,1.0,True,0.338,63,True,left,0.16672,1.6386,2.0215,0.383,0.2552,0.78,0.5248,A
532,0.50016,0.1,2,0.35011,0.35845,0.59185,532,2.42577,0.252,0.12504,0.6252,5,2D1U,2.0,True,0.189,75,False,right,0.08336,1.4738,2.0224,0.5486,0.3725,0.8143,0.4418,A
533,0.50016,0.1,1,0.22507,0.28342,0.50016,533,2.13401,0.252,0.12504,0.6252,5,2D1U,1.0,True,0.192,75,False,left,-0.08336,0.2904,0.7742,0.4838,1.3824,1.6566,0.2742,A
534,0.50016,1.2,2,0.33344,0.3251,0.5335,534,2.15068,-0.078,-0.04168,0.45848,5,2U1D,1.0,True,0.909,63,True,left,0.16672,1.5269,1.9438,0.4169,0.2186,0.9604,0.7419,A
535,0.50016,1.2,2,0.25841,0.38345,0.70022,535,2.44243,0.198,0.10003,0.60019,5,2D1U,2.0,True,0.254,76,True,right,0.08336,1.5743,2.1325,0.5582,0.182,0.8405,0.6585,A
536,0.50016,1.2,1,0.40013,0.36678,0.71689,536,2.47578,-0.024,-0.00834,0.49182,5,2U1D,1.0,False,0.267,64,True,left,-0.08336,0.3685,0.9346,0.5661,1.6599,2.1517,0.4918,A
537,0.50016,0.1,1,0.28342,0.3251,0.73356,537,2.30072,-0.078,-0.04168,0.45848,5,2U1D,2.0,True,0.175,65,True,right,0.16672,0.3483,0.6645,0.3162,1.3817,1.9058,0.5241,A
538,0.50016,0.1,2,0.44181,0.25841,0.70856,538,2.50913,0.198,0.10003,0.60019,5,2D1U,2.0,True,0.257,76,True,right,0.08336,1.6833,2.2079,0.5246,0.4667,0.9085,0.4418,A
539,0.50016,0.1,2,0.25008,0.22507,0.52516,539,2.07565,0.144,0.07502,0.57518,5,2D1U,2.0,True,0.194,76,False,right,-0.08336,1.2231,1.7231,0.5,0.3558,0.6311,0.2753,A
540,0.50016,1.2,2,0.43347,0.44181,0.55851,540,2.39243,-0.078,-0.04168,0.45848,5,2U1D,1.0,True,0.248,65,True,left,0.16672,1.6512,2.067,0.4158,0.3175,1.0592,0.7417,A
541,0.50016,1.2,2,0.3251,0.40013,0.4168,541,2.21737,0.144,0.07502,0.57518,5,2D1U,1.0,False,0.11,76,False,left,0.08336,1.3538,1.8874,0.5336,0.2458,0.9038,0.658,A
542,0.50016,1.2,1,0.24174,0.44181,0.70856,542,2.49246,0.198,0.10003,0.60019,5,2D1U,1.0,True,0.504,77,True,left,-0.08336,0.2077,0.883,0.6753,1.5994,2.0914,0.4919,A
543,0.50016,0.1,1,0.42513,0.37512,0.66688,543,2.56748,0.198,0.10003,0.60019,5,2D1U,1.0,True,0.176,77,True,left,0.16672,0.488,0.946,0.458,1.5966,2.1212,0.5246,A
544,0.50016,0.1,1,0.28342,0.26675,0.55017,544,2.09232,-0.024,-0.00834,0.49182,5,2U1D,2.0,True,0.214,66,True,right,0.08336,0.3511,0.7008,0.3496,1.2759,1.7172,0.4413,A
545,0.50016,0.1,1,0.30009,0.36678,0.78358,545,2.44243,-0.024,-0.00834,0.49182,5,2U1D,1.0,False,0.275,66,True,left,-0.08336,0.3659,0.716,0.3501,1.6076,1.8831,0.2756,A
546,0.50016,1.2,1,0.26675,0.25008,0.42513,546,2.0173,0.144,0.07502,0.57518,5,2D1U,1.0,True,0.36,78,True,left,0.16672,0.2308,0.881,0.6502,1.1889,1.9311,0.7422,A
547,0.50016,1.2,2,0.22507,0.25008,0.45014,547,2.00063,0.144,0.07502,0.57518,5,2D1U,2.0,True,0.266,78,True,right,0.08336,1.291,1.8243,0.5333,0.1497,0.8074,0.6577,A
548,0.50016,1.2,1,0.40013,0.28342,0.4168,548,2.14235,0.09,0.04168,0.54184,5,2D1U,1.0,True,0.201,78,False,left,-0.08336,0.3639,0.9801,0.6162,1.4051,1.8967,0.4915,A
549,0.50016,0.1,1,0.34177,0.37512,0.59185,549,2.35074,0.09,0.04168,0.54184,5,2D1U,1.0,True,0.14,78,False,left,0.16672,0.4057,0.8063,0.4006,1.3801,1.9059,0.5258,A
550,0.50016,0.1,1,0.25008,0.35845,0.50849,550,2.07566,-0.078,-0.04168,0.45848,5,2U1D,1.0,False,0.621,67,True,left,0.08336,0.3115,0.6281,0.3166,1.1615,1.6038,0.4424,A
551,0.50016,0.1,2,0.28342,0.39179,0.72523,551,2.41743,0.036,0.01667,0.51683,5,2D1U,2.0,True,0.112,78,False,right,-0.08336,1.4586,1.9004,0.4418,0.3914,0.6664,0.2749,A
552,0.50016,1.2,1,0.3251,0.25008,0.45014,552,1.95895,-0.132,-0.06669,0.43347,5,2U1D,1.0,False,0.225,67,False,left,0.16672,0.2914,0.8,0.5085,1.1336,1.875,0.7414,A
553,0.50016,1.2,2,0.4168,0.30843,0.75024,553,2.38409,-0.186,-0.0917,0.40846,5,2U1D,1.0,True,0.321,67,False,left,0.08336,1.7792,2.1458,0.3666,0.3376,0.9954,0.6578,A
554,0.50016,1.2,2,0.25008,0.36678,0.69188,554,2.32573,0.036,0.01667,0.51683,5,2D1U,1.0,False,0.15,78,False,left,-0.08336,1.4725,1.9478,0.4754,0.2568,0.7481,0.4912,A
555,0.50016,0.1,2,0.38345,0.30009,0.7419,555,2.33406,-0.186,-0.0917,0.40846,5,2U1D,1.0,True,1.14,67,False,left,0.16672,1.6977,2.0302,0.3325,0.3636,0.8885,0.5248,A
556,0.50016,0.1,2,0.30009,0.26675,0.49182,556,1.99229,-0.132,-0.06669,0.43347,5,2U1D,2.0,False,0.282,68,True,right,0.08336,1.3271,1.6857,0.3586,0.3279,0.7689,0.441,A
557,0.50016,0.1,2,0.44181,0.43347,0.86694,557,2.65084,-0.186,-0.0917,0.40846,5,2U1D,1.0,True,0.955,69,True,left,-0.08336,1.7604,2.0935,0.333,0.5515,0.8269,0.2754,A
558,0.50016,1.2,2,0.29176,0.40013,0.82526,558,2.55915,0.09,0.04168,0.54184,5,2D1U,1.0,False,0.748,79,True,left,0.16672,1.7722,2.2738,0.5016,0.1723,0.914,0.7417,A
559,0.50016,1.2,2,0.38345,0.23341,0.85027,559,2.37575,-0.186,-0.0917,0.40846,5,2U1D,1.0,True,0.207,69,True,left,0.08336,1.8477,2.2149,0.3673,0.3056,0.9645,0.6588,A
560,0.50016,1.2,2,0.34177,0.30843,0.6252,560,2.35074,0.144,0.07502,0.57518,5,2D1U,2.0,True,0.201,79,False,right,-0.08336,1.4981,2.0308,0.5327,0.3478,0.8392,0.4913,A
561,0.50016,0.1,2,0.35011,0.40013,0.76691,561,2.59249,0.144,0.07502,0.57518,5,2D1U,1.0,False,0.323,79,False,left,0.16672,1.6905,2.191,0.5005,0.3323,0.8577,0.5254,A
562,0.50016,0.1,2,0.44181,0.27509,0.60019,562,2.25072,-0.132,-0.06669,0.43347,5,2U1D,1.0,True,0.273,70,True,left,0.08336,1.5705,1.9289,0.3584,0.4625,0.9039,0.4414,A
563,0.50016,0.1,1,0.42513,0.22507,0.70022,563,2.28405,-0.132,-0.06669,0.43347,5,2U1D,2.0,True,0.238,70,True,right,-0.08336,0.494,0.7856,0.2915,1.5936,1.8687,0.2751,A
564,0.50016,1.2,2,0.33344,0.36678,0.40846,564,2.20903,0.198,0.10003,0.60019,5,2D1U,1.0,False,0.247,79,False,left,0.16672,1.3989,1.9572,0.5582,0.216,0.9574,0.7414,A
565,0.50016,1.2,1,0.35845,0.24174,0.70856,565,2.43411,0.252,0.12504,0.6252,5,2D1U,2.0,False,1.256,79,False,right,0.08336,0.3258,1.0262,0.7004,1.6595,2.3178,0.6584,A
566,0.50016,1.2,1,0.28342,0.30009,0.72523,566,2.4591,0.306,0.15005,0.6502,5,2D1U,1.0,True,0.269,79,False,left,-0.08336,0.2512,0.9765,0.7253,1.7103,2.2017,0.4914,A
567,0.50016,0.1,1,0.43347,0.34177,0.81692,567,2.5508,-0.078,-0.04168,0.45848,5,2U1D,1.0,False,0.317,70,False,left,0.16672,0.5014,0.8179,0.3166,1.6183,2.1431,0.5248,A
568,0.50016,0.1,2,0.25841,0.21673,0.40013,568,1.8089,-0.132,-0.06669,0.43347,5,2U1D,1.0,True,0.293,71,True,left,0.08336,1.1908,1.5489,0.3581,0.2827,0.7239,0.4412,A
569,0.50016,0.1,1,0.30843,0.44181,0.75024,569,2.43411,-0.132,-0.06669,0.43347,5,2U1D,2.0,True,0.861,71,True,right,-0.08336,0.3728,0.6643,0.2915,1.5232,1.798,0.2748,A
570,0.50016,1.2,1,0.45014,0.30843,0.59185,570,2.30906,-0.078,-0.04168,0.45848,5,2U1D,1.0,False,0.173,72,True,left,0.16672,0.4133,0.9469,0.5336,1.4214,2.1637,0.7423,A
571,0.50016,1.2,1,0.23341,0.35845,0.60019,571,2.34241,0.306,0.15005,0.6502,5,2D1U,1.0,True,0.275,79,False,left,0.08336,0.2026,0.9277,0.7251,1.4531,2.1108,0.6577,A
572,0.50016,1.2,2,0.23341,0.38345,0.89195,572,2.44244,-0.132,-0.06669,0.43347,5,2U1D,1.0,True,0.165,73,True,left,-0.08336,1.6535,2.0448,0.3913,0.2365,0.7284,0.4919,A
573,0.50016,0.1,2,0.36678,0.34177,0.44181,573,2.08399,-0.132,-0.06669,0.43347,5,2U1D,1.0,True,0.241,73,True,left,0.16672,1.3853,1.744,0.3587,0.3514,0.8768,0.5254,A
574,0.50016,0.1,1,0.24174,0.4168,0.72523,574,2.50913,0.252,0.12504,0.6252,5,2D1U,1.0,True,0.932,80,True,left,0.08336,0.308,0.7911,0.4832,1.5413,1.9838,0.4425,A
575,0.50016,0.1,2,0.40846,0.43347,0.75857,575,2.55914,-0.078,-0.04168,0.45848,5,2U1D,1.0,True,0.16,74,True,left,-0.08336,1.6191,2.0025,0.3835,0.5192,0.7938,0.2746,A
576,0.50016,1.2,2,0.33344,0.29176,0.86694,576,2.6175,0.252,0.12504,0.6252,5,2D1U,2.0,True,0.244,80,True,right,0.16672,1.861,2.4443,0.5834,0.2202,0.9608,0.7406,A
577,0.50016,1.2,1,0.31677,0.23341,0.45848,577,1.9673,-0.078,-0.04168,0.45848,5,2U1D,1.0,False,0.235,74,True,left,0.08336,0.2799,0.8134,0.5335,1.1965,1.8552,0.6586,A
578,0.50016,1.2,1,0.21673,0.39179,0.61686,578,2.15901,-0.132,-0.06669,0.43347,5,2U1D,2.0,True,0.221,75,True,right,-0.08336,0.1816,0.6896,0.508,1.3147,1.8065,0.4918,A
579,0.50016,0.1,1,0.4168,0.36678,0.69188,579,2.57581,0.198,0.10003,0.60019,5,2D1U,1.0,True,0.141,80,False,left,0.16672,0.4831,0.9408,0.4578,1.6161,2.1409,0.5247,A
580,0.50016,0.1,2,0.25008,0.26675,0.50849,580,2.12567,0.198,0.10003,0.60019,5,2D1U,2.0,True,0.224,80,False,right,0.08336,1.2891,1.8137,0.5245,0.2725,0.7137,0.4412,A
581,0.50016,0.1,2,0.42513,0.2084,0.43347,581,2.14234,0.144,0.07502,0.57518,5,2D1U,2.0,True,0.241,80,False,right,-0.08336,1.304,1.8038,0.4998,0.5289,0.8042,0.2753,A
582,0.50016,1.2,2,0.30843,0.24174,0.56684,582,2.19235,0.144,0.07502,0.57518,5,2D1U,1.0,False,0.239,80,False,left,0.16672,1.5296,2.0641,0.5345,0.1885,0.93,0.7416,A
583,0.50016,1.2,1,0.44181,0.26675,0.81692,583,2.45911,-0.132,-0.06669,0.43347,5,2U1D,2.0,True,0.226,75,True,right,0.08336,0.4114,0.9198,0.5084,1.6612,2.32,0.6588,A
584,0.50016,1.2,1,0.35845,0.29176,0.86694,584,2.47579,-0.078,-0.04168,0.45848,5,2U1D,1.0,False,0.463,76,True,left,-0.08336,0.3283,0.8614,0.5331,1.7373,2.2285,0.4912,A
585,0.50016,0.1,1,0.28342,0.29176,0.81692,585,2.49245,0.198,0.10003,0.60019,5,2D1U,1.0,True,0.292,81,True,left,0.16672,0.3457,0.8048,0.4591,1.6049,2.1292,0.5242,A
586,0.50016,0.1,1,0.2084,0.4168,0.43347,586,1.9923,-0.132,-0.06669,0.43347,5,2U1D,2.0,True,0.578,77,True,right,0.08336,0.2737,0.565,0.2912,1.0236,1.4653,0.4417,A
587,0.50016,0.1,2,0.27509,0.34177,0.40013,587,2.11734,0.198,0.10003,0.60019,5,2D1U,2.0,True,0.201,81,True,right,-0.08336,1.1205,1.6457,0.5252,0.3789,0.6543,0.2754,A
588,0.50016,1.2,2,0.30843,0.21673,0.81692,588,2.27571,-0.132,-0.06669,0.43347,5,2U1D,1.0,True,0.325,77,True,left,0.16672,1.7859,2.1771,0.3912,0.1937,0.9348,0.7411,A
589,0.50016,1.2,2,0.2084,0.43347,0.6252,589,2.22571,-0.078,-0.04168,0.45848,5,2U1D,1.0,True,0.234,78,True,left,0.08336,1.4469,1.864,0.4171,0.1309,0.7887,0.6578,A
590,0.50016,1.2,2,0.30843,0.2084,0.6252,590,2.21737,0.144,0.07502,0.57518,5,2D1U,1.0,False,0.241,82,True,left,-0.08336,1.4645,1.9989,0.5344,0.3155,0.8062,0.4907,A
591,0.50016,0.1,2,0.39179,0.30009,0.6502,591,2.30072,-0.078,-0.04168,0.45848,5,2U1D,1.0,True,0.209,78,True,left,0.16672,1.6184,2.0017,0.3833,0.377,0.9017,0.5247,A
592,0.50016,0.1,2,0.25841,0.28342,0.46681,592,2.10899,0.198,0.10003,0.60019,5,2D1U,2.0,True,0.148,83,True,right,0.08336,1.2558,1.7798,0.524,0.2799,0.7217,0.4419,A
593,0.50016,0.1,1,0.3251,0.26675,0.66688,593,2.35908,0.198,0.10003,0.60019,5,2D1U,1.0,True,0.265,83,True,left,-0.08336,0.3921,0.8509,0.4588,1.6261,1.901,0.2749,A
594,0.50016,1.2,1,0.36678,0.30843,0.7419,594,2.49245,0.144,0.07502,0.57518,5,2D1U,1.0,True,0.511,84,True,left,0.16672,0.3349,0.9851,0.6502,1.6103,2.3515,0.7413,A
595,0.50016,1.2,2,0.22507,0.25841,0.43347,595,1.90893,-0.024,-0.00834,0.49182,5,2U1D,1.0,True,0.284,78,False,left,0.08336,1.2735,1.7237,0.4502,0.1487,0.807,0.6583,A
596,0.50016,1.2,2,0.42513,0.26675,0.6252,596,2.30906,-0.024,-0.00834,0.49182,5,2U1D,1.0,True,0.945,78,False,left,-0.08336,1.5862,2.0365,0.4504,0.4362,0.9279,0.4916,A
597,0.50016,0.1,1,0.40846,0.35011,0.56684,597,2.40075,0.144,0.07502,0.57518,5,2D1U,1.0,True,0.284,84,True,left,0.16672,0.4772,0.9104,0.4333,1.4606,1.9854,0.5248,A
598,0.50016,0.1,2,0.29176,0.39179,0.55851,598,2.25905,0.03,0.01667,0.51683,5,2U1D,2.0,True,0.121,78,False,right,0.08336,1.3849,1.8268,0.4419,0.3183,0.7598,0.4415,A
599,0.50016,0.1,1,0.27509,0.35845,0.82526,599,2.5008,0.09,0.04168,0.54184,5,2D1U,1.0,True,0.308,84,False,left,-0.08336,0.338,0.7381,0.4002,1.6712,1.9462,0.275,A
600,0.50016,1.2,1,0.25841,0.24174,0.72523,600,2.26738,0.09,0.04168,0.54184,5,2D1U,1.0,True,0.384,84,False,left,0.16672,0.2266,0.8436,0.617,1.451,2.1933,0.7423,A
601,0.50016,1.2,2,0.37512,0.43347,0.60852,601,2.4341,0.03,0.01667,0.51683,5,2U1D,1.0,False,0.115,78,False,left,0.08336,1.5969,2.0723,0.4754,0.2974,0.9553,0.6579,A
602,0.50016,1.2,2,0.25008,0.25008,0.44181,602,1.95896,0.036,0.01667,0.51683,5,2D1U,1.0,False,0.159,84,False,left,-0.08336,1.2198,1.6954,0.4756,0.2532,0.7455,0.4923,A
