,standardDur,audNoise,order,preDur,postDur,isiDur,trial_num,totalDur,delta_dur_percents,deltaDurS,testDurS,intensities,current_stair,responses,is_correct,response_rts,stair_num_reversal,stair_is_reversal,response_keys,conflictDur,recordedOnsetVisualTest,recordedOffsetVisualTest,recordedDurVisualTest,recordedOnsetVisualStandard,recordedOffsetVisualStandard,recordedDurVisualStandard,modalityCue
0,0.50116,1.2,2,0.34246,0.24223,0.49281,0,1.72901,-0.7,-0.35081,0.15035,5,2U1D,1.0,True,0.482,0,False,left,0.25058,1.6097,1.685,0.0753,0.1435,1.0431,0.8997,A
1,0.50116,1.2,1,0.25058,0.28399,0.74339,1,2.6311,0.7,0.35081,0.85198,5,2D1U,1.0,True,0.609,0,False,left,0.0,0.1733,1.1723,0.9991,1.8396,2.4895,0.6499,A
2,0.50116,0.1,2,0.40928,0.3174,0.89374,2,3.02367,0.8,0.40093,0.90209,5,lapse_rate,2.0,True,0.459,0,False,right,-0.16705,1.7157,2.4732,0.7575,0.6329,0.6822,0.0493,A
3,0.50116,1.2,2,0.23388,0.39258,0.70163,3,2.68123,0.7,0.35081,0.85198,5,2D1U,2.0,True,0.405,0,False,right,0.25058,1.7109,2.4869,0.7759,0.0368,0.9369,0.9001,A
4,0.50116,0.1,1,0.25058,0.29235,0.43434,4,1.62878,-0.7,-0.35081,0.15035,5,2U1D,2.0,True,0.461,0,False,right,0.0,0.3889,0.2558,-0.1331,0.8309,1.0473,0.2164,A
5,0.50116,0.1,2,0.35917,0.36752,0.43434,5,1.76242,-0.8,-0.40093,0.10023,5,lapse_rate,1.0,True,0.362,0,False,left,-0.16705,1.2102,1.1683,-0.0419,0.5852,0.6352,0.05,A
6,0.50116,0.1,2,0.25893,0.3007,0.63481,6,2.4724,0.55,0.27564,0.7768,5,2D1U,2.0,True,0.447,0,False,right,0.25058,1.5181,2.1516,0.6335,0.277,0.7433,0.4663,A
7,0.50116,0.1,2,0.35917,0.38423,0.66822,7,2.1383,-0.55,-0.27564,0.22552,5,2U1D,1.0,True,1.659,0,False,left,0.0,1.5273,1.6107,0.0834,0.5024,0.7191,0.2167,A
8,0.50116,1.2,1,0.44269,0.33411,0.55128,8,2.60604,0.55,0.27564,0.7768,5,2D1U,1.0,True,32.091,0,False,left,-0.16705,0.3639,1.2882,0.9242,1.8469,2.3302,0.4833,A
9,0.50116,1.2,2,0.28399,0.39258,0.70163,9,1.97959,-0.8,-0.40093,0.10023,5,lapse_rate,1.0,True,12.771,0,False,left,0.25058,1.7545,1.7793,0.0248,0.0792,0.9794,0.9001,A
10,0.50116,1.2,1,0.40928,0.37587,0.50952,10,2.02135,-0.55,-0.27564,0.22552,5,2U1D,2.0,True,1.776,0,False,right,0.0,0.3348,0.71,0.3753,1.1429,1.7932,0.6503,A
11,0.50116,1.2,2,0.34246,0.41764,0.65151,11,2.6144,0.4,0.20047,0.70163,5,2D1U,2.0,True,0.589,0,False,right,-0.16705,1.5555,2.1804,0.6249,0.3472,0.8306,0.4834,A
12,0.50116,0.1,2,0.28399,0.37587,0.6181,12,1.87935,-0.8,-0.40093,0.10023,5,lapse_rate,1.0,True,0.444,0,False,left,0.25058,1.526,1.4848,-0.0412,0.3014,0.7676,0.4662,A
13,0.50116,0.1,2,0.34246,0.27564,0.52622,13,1.94618,-0.4,-0.20047,0.3007,5,2U1D,2.0,False,0.553,0,False,right,0.0,1.3662,1.5245,0.1583,0.4826,0.6993,0.2166,A
14,0.50116,0.1,2,0.27564,0.27564,0.46775,14,2.22182,0.4,0.20047,0.70163,5,2D1U,2.0,True,0.388,0,False,right,-0.16705,1.157,1.7157,0.5586,0.499,0.5484,0.0494,A
15,0.50116,0.1,1,0.27564,0.32576,0.50116,15,1.86265,-0.49,-0.24223,0.25893,5,2U1D,2.0,True,0.383,1,True,right,0.25058,0.4168,0.391,-0.0258,0.9078,1.3748,0.4671,A
16,0.50116,1.2,1,0.32576,0.26729,0.52622,16,2.52252,0.8,0.40093,0.90209,5,lapse_rate,1.0,True,0.659,0,False,left,0.0,0.2518,1.3023,1.0505,1.752,2.4018,0.6498,A
17,0.50116,1.2,2,0.35081,0.25893,0.40928,17,2.14663,0.25,0.12529,0.62645,5,2D1U,2.0,True,1.047,0,False,right,-0.16705,1.3263,1.8765,0.5502,0.3596,0.8438,0.4841,A
18,0.50116,1.2,2,0.33411,0.32576,0.88539,18,2.30535,-0.49,-0.24223,0.25893,5,2U1D,1.0,True,0.4,1,True,left,0.25058,1.9889,2.1723,0.1834,0.1304,1.0306,0.9003,A
19,0.50116,1.2,2,0.45105,0.37587,0.66822,19,2.09653,-0.8,-0.40093,0.10023,5,lapse_rate,1.0,True,0.487,0,False,left,0.0,1.7656,1.7902,0.0246,0.374,1.024,0.65,A
20,0.50116,1.2,2,0.43434,0.39258,0.56799,20,2.18006,-0.436,-0.21717,0.28399,5,2U1D,1.0,True,0.807,2,True,left,-0.16705,1.564,1.7717,0.2076,0.4392,0.9226,0.4833,A
21,0.50116,0.1,1,0.32576,0.36752,0.70163,21,2.52252,0.25,0.12529,0.62645,5,2D1U,1.0,True,0.924,0,False,left,0.25058,0.4701,0.812,0.3419,1.5284,1.9948,0.4664,A
22,0.50116,0.1,2,0.39258,0.35081,0.49281,22,1.83759,-0.8,-0.40093,0.10023,5,lapse_rate,1.0,True,0.268,0,False,left,0.0,1.3807,1.3384,-0.0423,0.531,0.7468,0.2159,A
23,0.50116,0.1,2,0.43434,0.40093,0.80186,23,2.42228,-0.436,-0.21717,0.28399,5,2U1D,1.0,True,0.366,2,True,left,-0.16705,1.6486,1.7901,0.1414,0.6572,0.7074,0.0502,A
24,0.50116,1.2,2,0.22552,0.43434,0.66822,24,1.92947,-0.8,-0.40093,0.10023,5,lapse_rate,1.0,True,27.109,0,False,left,0.25058,1.6644,1.6901,0.0257,0.0239,0.924,0.9001,A
25,0.50116,0.1,1,0.30905,0.40093,0.6181,25,2.38052,0.1,0.05012,0.55128,5,2D1U,1.0,True,1.775,0,False,left,0.0,0.4522,0.7186,0.2665,1.4769,1.6929,0.2159,A
26,0.50116,0.1,2,0.35917,0.27564,0.47611,26,1.71231,-0.8,-0.40093,0.10023,5,lapse_rate,1.0,True,0.375,0,False,left,-0.16705,1.2482,1.2067,-0.0415,0.5819,0.6313,0.0494,A
27,0.50116,1.2,1,0.33411,0.44269,0.59304,27,2.18005,-0.382,-0.19211,0.30905,5,2U1D,2.0,True,1.485,2,False,right,0.25058,0.2537,0.7124,0.4587,1.1037,2.0042,0.9005,A
28,0.50116,1.2,2,0.37587,0.43434,0.45105,28,2.3137,0.1,0.05012,0.55128,5,2D1U,1.0,False,0.32,0,False,left,0.0,1.4776,1.9525,0.4749,0.302,0.9526,0.6506,A
29,0.50116,1.2,1,0.25058,0.22552,0.56799,29,2.44734,0.8,0.40093,0.90209,5,lapse_rate,1.0,True,0.353,0,False,left,-0.16705,0.1732,1.2227,1.0495,1.7976,2.2814,0.4838,A
30,0.50116,1.2,1,0.41764,0.3174,0.86033,30,2.40558,-0.382,-0.19211,0.30905,5,2U1D,2.0,True,0.445,2,False,right,0.25058,0.3389,0.7972,0.4582,1.4559,2.3556,0.8997,A
31,0.50116,0.1,1,0.34246,0.40093,0.73504,31,2.57263,0.19,0.09188,0.59304,5,2D1U,1.0,True,0.516,1,True,left,0.0,0.4809,0.7889,0.308,1.6638,1.8808,0.217,A
32,0.50116,0.1,1,0.35081,0.41764,0.86868,32,2.73133,0.19,0.09188,0.59304,5,2D1U,1.0,True,1.667,1,True,left,-0.16705,0.4897,0.7982,0.3085,1.8897,1.9396,0.0499,A
33,0.50116,0.1,2,0.20882,0.35081,0.51787,33,1.91277,-0.328,-0.16705,0.33411,5,2U1D,1.0,True,0.408,2,False,left,0.25058,1.3525,1.5442,0.1916,0.2281,0.694,0.466,A
34,0.50116,1.2,1,0.24223,0.45105,0.44269,34,1.73736,-0.8,-0.40093,0.10023,5,lapse_rate,2.0,True,0.301,0,False,right,0.0,0.1692,0.4193,0.2502,0.7856,1.4362,0.6506,A
35,0.50116,0.1,1,0.3007,0.25893,0.81021,35,2.77309,0.8,0.40093,0.90209,5,lapse_rate,1.0,True,0.442,0,False,left,-0.16705,0.4386,1.0557,0.6171,2.0884,2.1384,0.05,A
36,0.50116,1.2,2,0.30905,0.32576,0.6181,36,2.32206,0.136,0.06682,0.56799,5,2D1U,1.0,False,51.566,2,True,left,0.25058,1.6951,2.1869,0.4918,0.1035,1.0033,0.8999,A
37,0.50116,1.2,1,0.23388,0.3174,0.48446,37,1.87101,-0.328,-0.16705,0.33411,5,2U1D,1.0,False,0.374,2,False,left,0.0,0.1606,0.6443,0.4837,1.0526,1.7024,0.6498,A
38,0.50116,1.2,1,0.35081,0.22552,0.82692,38,2.49745,0.19,0.09188,0.59304,5,2D1U,1.0,True,0.681,3,True,left,-0.16705,0.2741,1.0153,0.7412,1.8491,2.3325,0.4834,A
39,0.50116,0.1,2,0.38423,0.40093,0.40093,39,1.78748,-0.8,-0.40093,0.10023,5,lapse_rate,1.0,True,0.405,0,False,left,0.25058,1.4088,1.3678,-0.041,0.4009,0.8682,0.4672,A
40,0.50116,0.1,1,0.25893,0.22552,0.40928,40,1.70394,-0.382,-0.19211,0.30905,5,2U1D,2.0,True,0.29,3,True,right,0.0,0.3977,0.4236,0.0259,0.973,1.1899,0.2169,A
41,0.50116,0.1,2,0.37587,0.38423,0.50952,41,2.36382,0.19,0.09188,0.59304,5,2D1U,2.0,True,0.315,3,True,right,-0.16705,1.2975,1.7479,0.4503,0.597,0.6471,0.0501,A
42,0.50116,0.1,1,0.39258,0.35081,0.73504,42,2.88168,0.8,0.40093,0.90209,5,lapse_rate,1.0,True,0.374,0,False,left,0.25058,0.5337,1.1511,0.6174,1.9008,2.3679,0.4671,A
43,0.50116,0.1,2,0.25058,0.38423,0.6181,43,2.06312,-0.382,-0.19211,0.30905,5,2U1D,1.0,True,0.365,3,True,left,0.0,1.3657,1.5315,0.1658,0.3899,0.6066,0.2167,A
44,0.50116,1.2,2,0.22552,0.30905,0.56799,44,1.93783,-0.328,-0.16705,0.33411,5,2U1D,1.0,True,0.226,4,True,left,-0.16705,1.3621,1.6201,0.258,0.2368,0.7201,0.4832,A
45,0.50116,1.2,2,0.29235,0.37587,0.72669,45,1.9963,-0.8,-0.40093,0.10023,5,lapse_rate,1.0,True,0.298,0,False,left,0.25058,1.7915,1.8174,0.026,0.092,0.9921,0.9001,A
46,0.50116,1.2,2,0.3007,0.37587,0.57634,46,2.32206,0.136,0.06682,0.56799,5,2D1U,2.0,True,0.27,4,True,right,0.0,1.5238,2.0148,0.491,0.2234,0.8732,0.6498,A
47,0.50116,1.2,1,0.29235,0.34246,0.50952,47,1.9796,-0.328,-0.16705,0.33411,5,2U1D,2.0,True,0.286,4,True,right,-0.16705,0.2148,0.698,0.4831,1.2137,1.6977,0.484,A
48,0.50116,1.2,2,0.34246,0.35081,0.40928,48,1.70394,-0.8,-0.40093,0.10023,5,lapse_rate,1.0,True,0.455,0,False,left,0.25058,1.5245,1.5499,0.0254,0.141,1.041,0.9,A
49,0.50116,0.1,1,0.20882,0.39258,0.86868,49,2.53923,0.136,0.06682,0.56799,5,2D1U,1.0,True,0.848,4,True,left,0.0,0.3468,0.6297,0.2829,1.638,1.8549,0.2169,A
50,0.50116,0.1,2,0.37587,0.39258,0.63481,50,2.44735,0.082,0.04176,0.54293,5,2D1U,2.0,True,0.252,4,False,right,-0.16705,1.4274,1.8275,0.4001,0.602,0.652,0.05,A
51,0.50116,1.2,1,0.27564,0.23388,0.67657,51,2.58934,0.8,0.40093,0.90209,5,lapse_rate,1.0,True,0.348,0,False,left,0.25058,0.2004,1.2497,1.0494,1.7251,999,997.2749,A
52,0.50116,0.1,2,0.27564,0.33411,0.55963,52,2.02971,-0.274,-0.13364,0.35917,5,2U1D,1.0,True,0.43,4,False,left,0.0,1.3344,1.551,0.2166,0.4175,0.6337,0.2162,A
53,0.50116,1.2,1,0.40928,0.33411,0.43434,53,2.22182,0.082,0.04176,0.54293,5,2D1U,2.0,False,0.257,4,False,right,-0.16705,0.3298,1.0218,0.692,1.4636,1.947,0.4835,A
54,0.50116,0.1,1,0.34246,0.25893,0.70998,54,1.91276,-0.8,-0.40093,0.10023,5,lapse_rate,2.0,True,0.481,0,False,right,0.25058,0.4855,0.302,-0.1836,1.0273,1.4936,0.4663,A
55,0.50116,1.2,2,0.40928,0.25058,0.66822,55,2.18841,-0.274,-0.13364,0.35917,5,2U1D,1.0,True,1.075,4,False,left,0.0,1.7253,2.0094,0.2841,0.3338,0.9849,0.6511,A
56,0.50116,1.2,2,0.40928,0.32576,0.56799,56,2.37218,0.136,0.06682,0.56799,5,2D1U,2.0,True,1.191,5,True,right,-0.16705,1.5392,2.0311,0.4919,0.4137,0.8969,0.4832,A
57,0.50116,0.1,1,0.20882,0.44269,0.52622,57,2.58098,0.8,0.40093,0.90209,5,lapse_rate,1.0,True,0.339,0,False,left,0.25058,0.3518,0.9695,0.6177,1.5114,1.9773,0.4659,A
58,0.50116,0.1,1,0.35081,0.37587,0.54293,58,2.16335,-0.22,-0.10859,0.39258,5,2U1D,2.0,True,1.079,4,False,right,0.0,0.4881,0.5969,0.1088,1.2802,1.4974,0.2172,A
59,0.50116,0.1,1,0.40928,0.44269,0.50952,59,2.25523,-0.22,-0.10859,0.39258,5,2U1D,1.0,False,1.414,4,False,left,-0.16705,0.5524,0.6611,0.1087,1.3941,1.444,0.05,A
60,0.50116,0.1,2,0.35081,0.21717,0.83527,60,2.4724,0.136,0.06682,0.56799,5,2D1U,1.0,False,1.477,5,True,left,0.25058,1.8074,2.2329,0.4254,0.3658,0.8318,0.4659,A
61,0.50116,1.2,2,0.30905,0.27564,0.68492,61,2.67286,0.8,0.40093,0.90209,5,lapse_rate,2.0,True,0.412,0,False,right,0.0,1.6408,2.4657,0.8249,0.2327,0.8818,0.6491,A
62,0.50116,1.2,1,0.39258,0.39258,0.90209,62,2.78145,0.19,0.09188,0.59304,5,2D1U,1.0,True,0.291,5,False,left,-0.16705,0.3122,1.0537,0.7415,1.9624,2.4451,0.4828,A
63,0.50116,0.1,2,0.21717,0.27564,0.66822,63,2.56428,0.8,0.40093,0.90209,5,lapse_rate,2.0,True,0.421,0,False,right,0.25058,1.5106,2.2679,0.7573,0.2349,0.7021,0.4672,A
64,0.50116,1.2,1,0.35917,0.41764,0.52622,64,2.16336,-0.274,-0.13364,0.35917,5,2U1D,2.0,True,0.364,5,True,right,0.0,0.2829,0.7914,0.5085,1.2404,1.891,0.6506,A
65,0.50116,1.2,1,0.39258,0.20882,0.73504,65,2.73969,0.8,0.40093,0.90209,5,lapse_rate,1.0,True,0.37,0,False,left,-0.16705,0.3137,1.364,1.0503,2.1048,2.588,0.4833,A
66,0.50116,1.2,2,0.24223,0.26729,0.59304,66,1.96289,-0.274,-0.13364,0.35917,5,2U1D,1.0,True,0.31,5,True,left,0.25058,1.6046,1.888,0.2834,0.0378,0.9382,0.9004,A
67,0.50116,0.1,2,0.26729,0.40093,0.48446,67,2.24688,0.19,0.09188,0.59304,5,2D1U,2.0,True,0.304,5,False,right,0.0,1.2448,1.6959,0.4511,0.4038,0.6204,0.2166,A
68,0.50116,0.1,1,0.20047,0.36752,0.90209,68,2.87333,0.8,0.40093,0.90209,5,lapse_rate,1.0,True,0.394,0,False,left,-0.16705,0.3373,0.9539,0.6167,2.0781,2.128,0.05,A
69,0.50116,0.1,2,0.3007,0.44269,0.45105,69,2.08818,-0.22,-0.10859,0.39258,5,2U1D,1.0,True,0.455,6,True,left,0.25058,1.3727,1.6228,0.2501,0.3149,0.781,0.4661,A
70,0.50116,0.1,1,0.37587,0.35917,0.64316,70,2.44735,0.136,0.06682,0.56799,5,2D1U,2.0,False,0.837,6,True,right,0.0,0.518,0.802,0.2839,1.5853,1.8017,0.2164,A
71,0.50116,1.2,2,0.44269,0.45105,0.88539,71,2.67287,-0.22,-0.10859,0.39258,5,2U1D,1.0,True,0.425,6,True,left,-0.16705,1.8907,2.2071,0.3164,0.4484,0.9319,0.4835,A
72,0.50116,1.2,2,0.44269,0.25058,0.52622,72,2.31369,0.19,0.09188,0.59304,5,2D1U,1.0,False,0.95,7,True,left,0.25058,1.7379,2.2547,0.5168,0.2378,1.138,0.9002,A
73,0.50116,0.1,1,0.29235,0.43434,0.64316,73,2.7731,0.8,0.40093,0.90209,5,lapse_rate,1.0,True,0.416,0,False,left,0.0,0.433,1.0496,0.6166,1.8332,2.0491,0.2159,A
74,0.50116,1.2,1,0.24223,0.41764,0.55128,74,2.12995,-0.166,-0.08353,0.41764,5,2U1D,1.0,False,1.174,6,False,left,-0.16705,0.1646,0.7303,0.5658,1.2888,1.7722,0.4834,A
75,0.50116,0.1,1,0.28399,0.39258,0.88539,75,2.68122,0.244,0.12529,0.6181,5,2D1U,1.0,True,0.342,7,False,left,0.25058,0.4238,0.7573,0.3335,1.6568,2.1232,0.4665,A
76,0.50116,1.2,2,0.40093,0.26729,0.43434,76,2.50581,0.8,0.40093,0.90209,5,lapse_rate,2.0,True,0.287,0,False,right,0.0,1.4802,2.3049,0.8247,0.3218,0.971,0.6492,A
77,0.50116,0.1,1,0.34246,0.35917,0.72669,77,2.83157,0.8,0.40093,0.90209,5,lapse_rate,1.0,True,0.282,0,False,left,-0.16705,0.4802,1.0961,0.6159,2.0463,2.096,0.0497,A
78,0.50116,0.1,2,0.20047,0.24223,0.62645,78,1.96289,-0.22,-0.10859,0.39258,5,2U1D,1.0,True,0.321,7,True,left,0.25058,1.4495,1.6991,0.2496,0.2158,0.6822,0.4664,A
79,0.50116,0.1,2,0.23388,0.41764,0.72669,79,2.49747,0.244,0.12529,0.6181,5,2D1U,2.0,True,0.41,7,False,right,0.0,1.4594,1.9353,0.4759,0.3763,0.5926,0.2164,A
80,0.50116,1.2,2,0.24223,0.29235,0.50952,80,2.1383,0.19,0.09188,0.59304,5,2D1U,1.0,False,0.547,8,True,left,-0.16705,1.3131,1.8296,0.5165,0.2474,0.7307,0.4832,A
81,0.50116,1.2,1,0.24223,0.21717,0.56799,81,1.92113,-0.22,-0.10859,0.39258,5,2U1D,2.0,True,0.371,7,True,right,0.25058,0.1621,0.7036,0.5414,1.0705,999,997.9295,A
82,0.50116,0.1,2,0.42599,0.37587,0.71833,82,2.92344,0.8,0.40093,0.90209,5,lapse_rate,2.0,True,0.292,0,False,right,0.0,1.6382,2.3963,0.7581,0.5627,0.78,0.2174,A
83,0.50116,1.2,1,0.21717,0.41764,0.50952,83,2.26359,0.244,0.12529,0.6181,5,2D1U,1.0,True,0.619,9,True,left,-0.16705,0.1399,0.9073,0.7674,1.4239,1.9073,0.4834,A
84,0.50116,0.1,1,0.42599,0.42599,0.88539,84,2.65617,-0.166,-0.08353,0.41764,5,2U1D,2.0,True,0.509,8,True,right,0.25058,0.5675,0.699,0.1315,1.5985,2.0658,0.4673,A
85,0.50116,1.2,1,0.24223,0.30905,0.7601,85,1.91277,-0.8,-0.40093,0.10023,5,lapse_rate,2.0,True,0.278,0,False,right,0.0,0.1682,0.4181,0.2498,1.1014,1.7509,0.6495,A
86,0.50116,0.1,1,0.30905,0.24223,0.50116,86,1.97124,-0.166,-0.08353,0.41764,5,2U1D,1.0,False,1.242,8,True,left,-0.16705,0.4529,0.5852,0.1323,1.3109,1.3608,0.05,A
87,0.50116,0.1,1,0.32576,0.36752,0.85198,87,2.66452,0.244,0.12529,0.6181,5,2D1U,1.0,True,0.275,9,True,left,0.25058,0.4662,0.7994,0.3332,1.6658,2.1324,0.4666,A
88,0.50116,1.2,1,0.25893,0.40093,0.70998,88,1.97123,-0.8,-0.40093,0.10023,5,lapse_rate,2.0,True,0.325,0,False,right,0.0,0.1796,0.4301,0.2504,1.0632,1.7134,0.6502,A
89,0.50116,1.2,1,0.28399,0.43434,0.66822,89,1.98794,-0.8,-0.40093,0.10023,5,lapse_rate,2.0,True,0.271,0,False,right,-0.16705,0.2074,0.4577,0.2502,1.1318,1.6156,0.4837,A
90,0.50116,1.2,2,0.42599,0.24223,0.83527,90,2.59769,0.19,0.09188,0.59304,5,2D1U,2.0,True,0.409,10,True,right,0.25058,2.0284,2.5446,0.5162,0.2204,1.1203,0.8999,A
91,0.50116,1.2,2,0.41764,0.25893,0.70998,91,2.28029,-0.22,-0.10859,0.39258,5,2U1D,1.0,True,0.308,9,True,left,0.0,1.7743,2.0907,0.3164,0.3407,0.9913,0.6506,A
92,0.50116,1.2,1,0.43434,0.22552,0.81021,92,2.87332,0.8,0.40093,0.90209,5,lapse_rate,1.0,True,0.322,0,False,left,-0.16705,0.3607,1.4104,1.0497,2.2275,2.7111,0.4836,A
93,0.50116,1.2,1,0.3007,0.36752,0.42599,93,1.98795,-0.22,-0.10859,0.39258,5,2U1D,2.0,True,0.346,9,True,right,0.25058,0.224,0.7659,0.5419,0.9912,1.8912,0.8999,A
94,0.50116,0.1,1,0.45105,0.26729,0.65987,94,2.47241,0.19,0.09188,0.59304,5,2D1U,1.0,True,0.966,10,True,left,0.0,0.591,0.8989,0.3079,1.6987,1.9157,0.217,A
95,0.50116,0.1,1,0.32576,0.34246,0.69328,95,2.2803,-0.166,-0.08353,0.41764,5,2U1D,2.0,True,0.538,10,True,right,-0.16705,0.4637,0.5972,0.1335,1.5135,1.5638,0.0502,A
96,0.50116,1.2,1,0.21717,0.20047,0.80186,96,2.62275,0.8,0.40093,0.90209,5,lapse_rate,1.0,True,0.353,0,False,left,0.25058,0.1439,1.1939,1.0499,1.7945,999,997.2055,A
97,0.50116,0.1,2,0.34246,0.24223,0.86033,97,2.51417,0.136,0.06682,0.56799,5,2D1U,2.0,True,0.76,10,False,right,0.0,1.7013,2.1264,0.4251,0.4848,0.7011,0.2163,A
98,0.50116,1.2,1,0.30905,0.27564,0.69328,98,2.19677,-0.166,-0.08353,0.41764,5,2U1D,2.0,True,0.31,10,True,right,-0.16705,0.2359,0.8028,0.5669,1.5029,1.9856,0.4827,A
99,0.50116,0.1,2,0.38423,0.42599,0.55128,99,2.76475,0.8,0.40093,0.90209,5,lapse_rate,2.0,True,0.304,0,False,right,0.25058,1.559,2.317,0.758,0.4004,0.8666,0.4661,A
100,0.50116,1.2,1,0.35081,0.44269,0.72669,100,2.58934,0.136,0.06682,0.56799,5,2D1U,1.0,True,0.246,10,False,left,0.0,0.2765,0.993,0.7165,1.643,2.2927,0.6498,A
101,0.50116,1.2,1,0.3007,0.20882,0.58469,101,2.03806,-0.112,-0.05847,0.44269,5,2U1D,2.0,True,0.368,10,False,right,-0.16705,0.2281,0.8193,0.5911,1.4107,1.8941,0.4834,A
102,0.50116,1.2,1,0.38423,0.42599,0.65987,102,2.87334,0.8,0.40093,0.90209,5,lapse_rate,1.0,True,0.35,0,False,left,0.25058,0.3074,1.3573,1.0499,1.8159,2.7158,0.8999,A
103,0.50116,0.1,1,0.42599,0.42599,0.6181,103,2.51417,0.082,0.04176,0.54293,5,2D1U,1.0,True,0.292,10,False,left,0.0,0.5677,0.8265,0.2588,1.5843,1.8013,0.2171,A
104,0.50116,0.1,2,0.35917,0.22552,0.53457,104,2.16335,0.082,0.04176,0.54293,5,2D1U,2.0,True,0.711,10,False,right,-0.16705,1.3104,1.7104,0.3999,0.5855,0.6355,0.05,A
105,0.50116,0.1,2,0.21717,0.3174,0.59304,105,2.07146,-0.112,-0.05847,0.44269,5,2U1D,1.0,True,0.375,10,False,left,0.25058,1.4282,1.7283,0.3001,0.2282,0.6951,0.4669,A
106,0.50116,1.2,1,0.23388,0.29235,0.65151,106,1.77913,-0.8,-0.40093,0.10023,5,lapse_rate,2.0,True,0.305,0,False,right,0.0,0.1591,0.409,0.2499,0.9846,1.6347,0.6501,A
107,0.50116,1.2,2,0.38423,0.40093,0.90209,107,2.65616,-0.058,-0.02506,0.46775,5,2U1D,1.0,True,0.3,10,False,left,-0.16705,1.848,2.2396,0.3916,0.39,0.8729,0.4829,A
108,0.50116,0.1,1,0.23388,0.33411,0.6014,108,1.77078,-0.8,-0.40093,0.10023,5,lapse_rate,2.0,True,0.275,0,False,right,0.25058,0.3713,0.1879,-0.1834,0.8039,1.2708,0.4669,A
109,0.50116,1.2,1,0.43434,0.24223,0.68492,109,2.38052,0.028,0.01671,0.51787,5,2D1U,1.0,True,0.274,10,False,left,0.0,0.3568,1.0237,0.6668,1.6313,2.2822,0.6509,A
110,0.50116,1.2,2,0.44269,0.34246,0.64316,110,2.44734,0.028,0.01671,0.51787,5,2D1U,2.0,True,0.255,10,False,right,-0.16705,1.6503,2.0926,0.4423,0.451,0.9337,0.4827,A
111,0.50116,0.1,2,0.25893,0.33411,0.82692,111,2.38887,-0.058,-0.02506,0.46775,5,2U1D,1.0,True,0.264,10,False,left,0.25058,1.708,2.0321,0.3241,0.2739,0.7409,0.4671,A
112,0.50116,1.2,2,0.27564,0.3007,0.79351,112,1.97124,-0.8,-0.40093,0.10023,5,lapse_rate,1.0,True,0.325,0,False,left,0.0,1.7193,1.7434,0.0242,0.2019,0.8525,0.6505,A
113,0.50116,0.1,2,0.41764,0.35081,0.53457,113,2.30534,-0.004,0.0,0.50116,5,2U1D,2.0,False,0.136,10,False,right,-0.16705,1.3639,1.7221,0.3581,0.6393,0.689,0.0497,A
114,0.50116,0.1,1,0.30905,0.38423,0.43434,114,2.11324,-0.026,-0.01671,0.48446,5,2D1U,1.0,False,0.331,10,False,left,0.25058,0.4483,0.6483,0.2,1.0979,1.5649,0.467,A
115,0.50116,0.1,1,0.40093,0.22552,0.54293,115,1.77077,-0.8,-0.40093,0.10023,5,lapse_rate,2.0,True,0.3,0,False,right,0.0,0.5433,0.3603,-0.183,1.044,1.2605,0.2165,A
116,0.50116,1.2,1,0.24223,0.37587,0.62645,116,2.20511,-0.08,-0.04176,0.4594,5,2D1U,1.0,False,0.256,11,True,left,-0.16705,0.1631,0.7717,0.6086,1.4054,1.8885,0.4831,A
117,0.50116,1.2,1,0.37587,0.21717,0.71833,117,2.28028,-0.058,-0.02506,0.46775,5,2U1D,1.0,False,0.546,11,True,left,0.25058,0.3034,0.92,0.6166,1.4372,999,997.5628,A
118,0.50116,1.2,1,0.21717,0.42599,0.63481,118,1.87936,-0.8,-0.40093,0.10023,5,lapse_rate,2.0,True,0.304,0,False,right,0.0,0.1423,0.3917,0.2494,0.9506,1.5998,0.6492,A
119,0.50116,1.2,1,0.36752,0.35917,0.87704,119,3.00698,0.8,0.40093,0.90209,5,lapse_rate,1.0,True,0.297,0,False,left,-0.16705,0.2891,1.3393,1.0502,2.2225,2.7064,0.484,A
120,0.50116,1.2,2,0.25058,0.42599,0.7768,120,2.39722,-0.112,-0.05847,0.44269,5,2U1D,1.0,True,0.272,11,False,left,0.25058,1.8015,2.1686,0.367,0.0517,0.9514,0.8997,A
121,0.50116,0.1,2,0.20047,0.21717,0.40928,121,1.76242,-0.134,-0.06682,0.43434,5,2D1U,1.0,True,0.294,11,False,left,0.0,1.1071,1.3987,0.2917,0.3403,0.557,0.2167,A
122,0.50116,0.1,1,0.41764,0.37587,0.48446,122,1.87936,-0.8,-0.40093,0.10023,5,lapse_rate,2.0,True,0.302,0,False,right,-0.16705,0.5552,0.3723,-0.1829,1.0803,1.1302,0.0499,A
123,0.50116,0.1,2,0.3007,0.33411,0.43434,123,2.00465,-0.134,-0.06682,0.43434,5,2D1U,1.0,True,0.306,11,False,left,0.25058,1.3584,1.6498,0.2914,0.3176,0.7832,0.4656,A
124,0.50116,0.1,2,0.40093,0.3174,0.63481,124,2.29699,-0.112,-0.05847,0.44269,5,2U1D,1.0,True,0.587,11,False,left,0.0,1.531,1.8317,0.3006,0.5398,0.7553,0.2155,A
125,0.50116,0.1,2,0.35917,0.37587,0.48446,125,1.82089,-0.8,-0.40093,0.10023,5,lapse_rate,1.0,True,0.308,0,False,left,-0.16705,1.2574,1.2153,-0.042,0.5814,0.6321,0.0507,A
126,0.50116,1.2,1,0.35917,0.39258,0.73504,126,2.44735,-0.08,-0.04176,0.4594,5,2D1U,2.0,True,1.147,12,True,right,0.25058,0.2798,0.8881,0.6083,1.4223,2.3213,0.899,A
127,0.50116,1.2,1,0.36752,0.41764,0.59304,127,2.34711,-0.058,-0.02506,0.46775,5,2U1D,2.0,True,0.299,12,True,right,0.0,0.2909,0.9079,0.6169,1.4248,2.0741,0.6493,A
128,0.50116,1.2,1,0.37587,0.24223,0.63481,128,2.21347,-0.08,-0.04176,0.4594,5,2D1U,2.0,True,0.393,12,True,right,-0.16705,0.2977,0.9056,0.608,1.5463,2.0301,0.4838,A
129,0.50116,0.1,1,0.35917,0.26729,0.87704,129,2.90675,0.8,0.40093,0.90209,5,lapse_rate,1.0,True,0.282,0,False,left,0.25058,0.5015,1.1179,0.6164,2.0091,2.4762,0.4672,A
130,0.50116,0.1,2,0.34246,0.41764,0.70163,130,2.43064,-0.058,-0.02506,0.46775,5,2U1D,2.0,False,0.476,12,True,right,0.0,1.5399,1.8656,0.3257,0.4816,0.6989,0.2173,A
131,0.50116,0.1,1,0.21717,0.41764,0.88539,131,2.50582,-0.026,-0.01671,0.48446,5,2D1U,2.0,True,0.318,12,False,right,-0.16705,0.3606,0.5601,0.1995,1.6689,1.7188,0.0499,A
132,0.50116,0.1,1,0.26729,0.40093,0.57634,132,2.18841,-0.112,-0.05847,0.44269,5,2U1D,2.0,True,0.314,13,True,right,0.25058,0.409,0.5672,0.1582,1.1594,1.626,0.4667,A
133,0.50116,1.2,1,0.40928,0.38423,0.82692,133,3.02368,0.8,0.40093,0.90209,5,lapse_rate,1.0,True,0.28,0,False,left,0.0,0.3352,1.386,1.0508,2.1349,2.7857,0.6508,A
134,0.50116,1.2,1,0.29235,0.40928,0.49281,134,2.18006,-0.026,-0.01671,0.48446,5,2D1U,2.0,True,0.423,12,False,right,-0.16705,0.2117,0.8459,0.6342,1.345,1.829,0.484,A
135,0.50116,0.1,1,0.44269,0.35917,0.53457,135,1.93782,-0.8,-0.40093,0.10023,5,lapse_rate,2.0,True,0.3,0,False,right,0.25058,0.5809,0.3986,-0.1823,0.9486,1.4151,0.4665,A
136,0.50116,1.2,1,0.33411,0.20047,0.75175,136,2.23018,-0.112,-0.05847,0.44269,5,2U1D,1.0,False,0.401,13,True,left,0.0,0.254,0.8462,0.5923,1.5212,2.1707,0.6495,A
137,0.50116,1.2,1,0.29235,0.37587,0.6181,137,2.20512,-0.166,-0.08353,0.41764,5,2U1D,2.0,True,0.286,13,False,right,-0.16705,0.2141,0.7814,0.5673,1.4053,1.8895,0.4842,A
138,0.50116,0.1,2,0.29235,0.38423,0.52622,138,2.22183,0.028,0.01671,0.51787,5,2D1U,1.0,False,0.338,12,False,left,0.25058,1.4427,1.817,0.3743,0.3094,0.7754,0.466,A
139,0.50116,0.1,2,0.26729,0.40928,0.86868,139,2.9485,0.8,0.40093,0.90209,5,lapse_rate,2.0,True,0.318,0,False,right,0.0,1.6337,2.3917,0.758,0.4082,0.6246,0.2164,A
140,0.50116,0.1,1,0.42599,0.22552,0.56799,140,2.1383,-0.166,-0.08353,0.41764,5,2U1D,1.0,False,0.507,13,False,left,-0.16705,0.5685,0.7026,0.134,1.4943,1.5437,0.0494,A
141,0.50116,0.1,1,0.34246,0.45105,0.75175,141,2.14665,-0.8,-0.40093,0.10023,5,lapse_rate,2.0,True,0.268,0,False,right,0.25058,0.4814,0.2981,-0.1833,1.0638,1.5305,0.4667,A
142,0.50116,0.1,2,0.33411,0.26729,0.85198,142,2.49747,0.082,0.04176,0.54293,5,2D1U,1.0,False,0.355,13,True,left,0.0,1.6835,2.0829,0.3993,0.4743,0.6918,0.2175,A
143,0.50116,1.2,1,0.42599,0.30905,0.72669,143,2.35547,-0.22,-0.10859,0.39258,5,2U1D,1.0,False,0.664,13,False,left,-0.16705,0.3509,0.8929,0.542,1.6258,2.1083,0.4825,A
144,0.50116,0.1,2,0.42599,0.40928,0.44269,144,1.87935,-0.8,-0.40093,0.10023,5,lapse_rate,1.0,True,0.279,0,False,left,0.25058,1.4915,1.4498,-0.0418,0.4409,0.9074,0.4665,A
145,0.50116,1.2,2,0.33411,0.20882,0.74339,145,2.35547,0.136,0.06682,0.56799,5,2D1U,1.0,False,0.392,13,False,left,0.0,1.7211,2.2137,0.4926,0.2552,0.9049,0.6497,A
146,0.50116,1.2,1,0.35917,0.30905,0.63481,146,2.70628,0.8,0.40093,0.90209,5,lapse_rate,1.0,True,0.325,0,False,left,-0.16705,0.2818,1.3317,1.0499,1.9734,2.4565,0.4832,A
147,0.50116,1.2,1,0.40093,0.23388,0.51787,147,2.24688,0.19,0.09188,0.59304,5,2D1U,1.0,True,0.286,13,False,left,0.25058,0.3271,1.0679,0.7408,1.3852,999,997.6148,A
148,0.50116,0.1,2,0.39258,0.35917,0.46775,148,2.07983,-0.274,-0.13364,0.35917,5,2U1D,1.0,True,0.231,13,False,left,0.0,1.3602,1.5776,0.2174,0.5363,0.752,0.2156,A
149,0.50116,0.1,2,0.27564,0.34246,0.68492,149,2.16335,-0.274,-0.13364,0.35917,5,2U1D,2.0,False,0.78,13,False,right,-0.16705,1.3769,1.5943,0.2174,0.5024,0.5526,0.0503,A
150,0.50116,0.1,2,0.27564,0.22552,0.43434,150,2.0297,0.19,0.09188,0.59304,5,2D1U,1.0,False,0.475,13,False,left,0.25058,1.3329,1.7828,0.4499,0.2909,0.7575,0.4667,A
151,0.50116,0.1,2,0.35081,0.35917,0.41764,151,2.53087,0.8,0.40093,0.90209,5,lapse_rate,2.0,True,0.373,0,False,right,0.0,1.2655,2.0235,0.7581,0.4904,0.7074,0.217,A
152,0.50116,1.2,1,0.42599,0.3174,0.89374,152,2.4724,-0.328,-0.16705,0.33411,5,2U1D,1.0,False,0.338,13,False,left,-0.16705,0.3524,0.8353,0.4829,1.7352,2.2193,0.4841,A
153,0.50116,1.2,1,0.28399,0.28399,0.88539,153,2.57263,0.244,0.12529,0.6181,5,2D1U,1.0,True,0.314,13,False,left,0.25058,0.2077,0.9745,0.7668,1.6579,2.558,0.9002,A
154,0.50116,1.2,2,0.24223,0.33411,0.72669,154,1.90442,-0.8,-0.40093,0.10023,5,lapse_rate,1.0,True,0.282,0,False,left,0.0,1.6142,1.6381,0.0239,0.1637,0.8129,0.6492,A
155,0.50116,1.2,2,0.20882,0.39258,0.64316,155,2.36382,0.244,0.12529,0.6181,5,2D1U,2.0,True,0.257,13,False,right,-0.16705,1.414,1.9562,0.5422,0.2142,0.6974,0.4832,A
156,0.50116,0.1,1,0.40928,0.42599,0.49281,156,1.92947,-0.8,-0.40093,0.10023,5,lapse_rate,2.0,True,0.206,0,False,right,0.25058,0.5469,0.364,-0.1829,0.8721,1.3393,0.4672,A
157,0.50116,0.1,1,0.35917,0.42599,0.44269,157,2.03806,-0.382,-0.19211,0.30905,5,2U1D,2.0,True,0.179,13,False,right,0.0,0.4995,0.525,0.0256,1.1071,1.3242,0.2171,A
158,0.50116,0.1,1,0.26729,0.3174,0.7601,158,2.43899,0.19,0.09188,0.59304,5,2D1U,1.0,True,0.311,14,True,left,-0.16705,0.4066,0.714,0.3075,1.6973,1.7474,0.0501,A
159,0.50116,0.1,2,0.40093,0.40928,0.51787,159,2.13829,-0.382,-0.19211,0.30905,5,2U1D,1.0,True,0.295,13,False,left,0.25058,1.5417,1.7081,0.1664,0.4165,0.8825,0.466,A
160,0.50116,0.1,2,0.29235,0.25058,0.86868,160,2.013,-0.8,-0.40093,0.10023,5,lapse_rate,1.0,True,0.373,0,False,left,0.0,1.6579,1.6156,-0.0424,0.433,0.6497,0.2167,A
161,0.50116,0.1,1,0.42599,0.39258,0.69328,161,2.11324,-0.8,-0.40093,0.10023,5,lapse_rate,2.0,True,0.322,0,False,right,-0.16705,0.5672,0.3836,-0.1836,1.3003,1.3504,0.0501,A
162,0.50116,1.2,2,0.35917,0.35081,0.40093,162,2.20511,0.19,0.09188,0.59304,5,2D1U,1.0,False,0.513,14,True,left,0.25058,1.5318,2.0479,0.516,0.1562,1.0563,0.9001,A
163,0.50116,1.2,2,0.25893,0.41764,0.65987,163,2.17171,-0.328,-0.16705,0.33411,5,2U1D,1.0,True,0.333,14,True,left,0.0,1.5648,1.8231,0.2582,0.1809,0.8308,0.6499,A
164,0.50116,1.2,2,0.35081,0.25893,0.50952,164,2.23852,0.244,0.12529,0.6181,5,2D1U,2.0,True,0.37,15,True,right,-0.16705,1.4232,1.9654,0.5422,0.3567,0.8404,0.4837,A
165,0.50116,0.1,2,0.20047,0.30905,0.80186,165,2.14665,-0.328,-0.16705,0.33411,5,2U1D,1.0,True,0.317,14,True,left,0.25058,1.6262,1.818,0.1918,0.2185,0.6845,0.466,A
166,0.50116,0.1,1,0.3007,0.28399,0.55128,166,2.53922,0.8,0.40093,0.90209,5,lapse_rate,1.0,True,0.361,0,False,left,0.0,0.4371,1.053,0.6159,1.7445,1.9614,0.2169,A
167,0.50116,0.1,2,0.41764,0.43434,0.72669,167,2.439,-0.274,-0.13364,0.35917,5,2U1D,1.0,True,0.209,14,False,left,-0.16705,1.558,1.7736,0.2156,0.641,0.6911,0.0501,A
168,0.50116,1.2,2,0.42599,0.40928,0.72669,168,2.96521,0.8,0.40093,0.90209,5,lapse_rate,2.0,True,0.341,0,False,right,0.25058,1.9272,2.7518,0.8247,0.227,1.1265,0.8995,A
169,0.50116,0.1,1,0.32576,0.42599,0.82692,169,2.69793,0.244,0.12529,0.6181,5,2D1U,1.0,True,0.21,15,True,left,0.0,0.4657,0.7984,0.3326,1.7655,1.9824,0.217,A
170,0.50116,1.2,2,0.42599,0.24223,0.75175,170,2.2803,-0.274,-0.13364,0.35917,5,2U1D,1.0,True,0.266,14,False,left,-0.16705,1.742,2.0258,0.2838,0.4337,0.9176,0.4839,A
171,0.50116,1.2,2,0.21717,0.24223,0.65151,171,1.7123,-0.8,-0.40093,0.10023,5,lapse_rate,1.0,True,0.342,0,False,left,0.25058,1.6383,1.6634,0.025,0.0136,0.9133,0.8997,A
172,0.50116,1.2,1,0.33411,0.21717,0.57634,172,2.22182,0.19,0.09188,0.59304,5,2D1U,1.0,True,0.398,16,True,left,0.0,0.2536,0.9956,0.7419,1.4961,2.1451,0.649,A
173,0.50116,1.2,2,0.26729,0.3007,0.44269,173,2.10488,0.19,0.09188,0.59304,5,2D1U,2.0,True,0.244,16,True,right,-0.16705,1.2743,1.79,0.5157,0.274,0.7569,0.4829,A
174,0.50116,1.2,1,0.33411,0.37587,0.86868,174,2.98191,0.8,0.40093,0.90209,5,lapse_rate,1.0,True,0.463,0,False,left,0.25058,0.2552,1.3046,1.0494,1.9723,2.8719,0.8995,A
175,0.50116,0.1,1,0.28399,0.26729,0.49281,175,1.93783,-0.22,-0.10859,0.39258,5,2U1D,2.0,True,0.455,14,False,right,0.0,0.4221,0.5297,0.1076,1.1636,1.3804,0.2167,A
176,0.50116,0.1,2,0.21717,0.36752,0.45105,176,2.10489,0.136,0.06682,0.56799,5,2D1U,2.0,True,0.336,16,False,right,-0.16705,1.0858,1.5111,0.4253,0.4446,0.4949,0.0503,A
177,0.50116,1.2,1,0.40928,0.32576,0.67657,177,2.81486,0.8,0.40093,0.90209,5,lapse_rate,1.0,True,0.347,0,False,left,0.25058,0.336,1.3855,1.0496,1.8612,2.7618,0.9005,A
178,0.50116,0.1,1,0.43434,0.41764,0.85198,178,2.5977,-0.22,-0.10859,0.39258,5,2U1D,2.0,True,1.785,14,False,right,0.0,0.5757,0.6837,0.108,1.6758,1.8913,0.2155,A
179,0.50116,1.2,1,0.35917,0.38423,0.46775,179,2.2803,0.136,0.06682,0.56799,5,2D1U,1.0,True,0.249,16,False,left,-0.16705,0.283,0.9997,0.7167,1.474,1.9576,0.4836,A
180,0.50116,1.2,1,0.3007,0.40093,0.6181,180,2.23853,-0.166,-0.08353,0.41764,5,2U1D,1.0,False,0.339,14,False,left,0.25058,0.2274,0.7941,0.5667,1.2104,2.1104,0.9,A
181,0.50116,0.1,1,0.37587,0.29235,0.6181,181,1.88771,-0.8,-0.40093,0.10023,5,lapse_rate,2.0,True,0.299,0,False,right,0.0,0.5151,0.3313,-0.1838,1.0891,1.3064,0.2173,A
182,0.50116,1.2,2,0.40093,0.3007,0.55128,182,2.297,0.082,0.04176,0.54293,5,2D1U,1.0,False,0.338,16,False,left,-0.16705,1.5174,1.9844,0.467,0.4096,0.8926,0.483,A
183,0.50116,0.1,1,0.30905,0.40928,0.67657,183,2.28864,-0.22,-0.10859,0.39258,5,2U1D,1.0,False,0.38,15,True,left,0.25058,0.451,0.5594,0.1084,1.2512,1.7172,0.466,A
184,0.50116,1.2,2,0.25058,0.23388,0.65151,184,2.53922,0.8,0.40093,0.90209,5,lapse_rate,2.0,True,0.356,0,False,right,0.0,1.5485,2.3735,0.825,0.1729,0.8239,0.651,A
185,0.50116,0.1,2,0.37587,0.20047,0.79351,185,2.23018,-0.274,-0.13364,0.35917,5,2U1D,1.0,True,0.539,15,False,left,-0.16705,1.5848,1.8016,0.2168,0.6022,0.6518,0.0496,A
186,0.50116,1.2,2,0.20882,0.33411,0.70163,186,2.64781,0.8,0.40093,0.90209,5,lapse_rate,2.0,True,0.346,0,False,right,0.25058,1.6792,2.5043,0.8251,0.0037,0.9035,0.8998,A
187,0.50116,0.1,1,0.40093,0.32576,0.7768,187,2.57264,0.136,0.06682,0.56799,5,2D1U,1.0,True,0.295,17,True,left,0.0,0.5419,0.8251,0.2832,1.7416,1.9589,0.2173,A
188,0.50116,0.1,2,0.42599,0.37587,0.40928,188,2.61439,0.8,0.40093,0.90209,5,lapse_rate,2.0,True,0.337,0,False,right,-0.16705,1.2453,2.0043,0.759,0.6453,0.6956,0.0503,A
189,0.50116,1.2,1,0.34246,0.41764,0.44269,189,2.06312,-0.274,-0.13364,0.35917,5,2U1D,1.0,False,0.269,15,False,left,0.25058,0.2657,0.7734,0.5077,1.0152,1.9158,0.9006,A
190,0.50116,1.2,2,0.29235,0.35917,0.4594,190,2.18007,0.136,0.06682,0.56799,5,2D1U,1.0,False,0.242,17,True,left,0.0,1.4026,1.8942,0.4916,0.2184,0.8683,0.6499,A
191,0.50116,1.2,2,0.35917,0.25893,0.78516,191,2.49746,0.19,0.09188,0.59304,5,2D1U,2.0,True,0.395,17,False,right,-0.16705,1.7083,2.225,0.5167,0.3659,0.8502,0.4843,A
192,0.50116,0.1,2,0.22552,0.27564,0.40928,192,1.51183,-0.8,-0.40093,0.10023,5,lapse_rate,1.0,True,0.297,0,False,left,0.25058,1.2589,1.2176,-0.0413,0.2424,0.7098,0.4674,A
193,0.50116,0.1,2,0.3007,0.40093,0.76845,193,2.30535,-0.328,-0.16705,0.33411,5,2U1D,1.0,True,0.249,15,False,left,0.0,1.5627,1.7548,0.1921,0.4378,0.655,0.2173,A
194,0.50116,1.2,2,0.28399,0.35081,0.55963,194,1.79582,-0.8,-0.40093,0.10023,5,lapse_rate,1.0,True,0.269,0,False,left,-0.16705,1.4042,1.4289,0.0248,0.2872,0.7708,0.4836,A
195,0.50116,0.1,1,0.3007,0.33411,0.48446,195,2.21347,0.19,0.09188,0.59304,5,2D1U,1.0,True,0.646,17,False,left,0.25058,0.4447,0.7526,0.3079,1.2525,1.7192,0.4667,A
196,0.50116,0.1,1,0.42599,0.39258,0.80186,196,2.4557,-0.328,-0.16705,0.33411,5,2U1D,2.0,True,0.247,15,False,right,0.0,0.5688,0.6179,0.049,1.5602,1.7769,0.2168,A
197,0.50116,1.2,1,0.33411,0.43434,0.58469,197,2.21347,-0.274,-0.13364,0.35917,5,2U1D,1.0,False,0.37,16,True,left,-0.16705,0.2602,0.7694,0.5092,1.3603,1.844,0.4836,A
198,0.50116,1.2,2,0.23388,0.40093,0.88539,198,2.92345,0.8,0.40093,0.90209,5,lapse_rate,2.0,True,0.315,0,False,right,0.25058,1.8941,2.7194,0.8254,0.036,0.936,0.9,A
199,0.50116,1.2,1,0.41764,0.39258,0.89374,199,2.77311,0.136,0.06682,0.56799,5,2D1U,1.0,True,0.32,18,True,left,0.0,0.3369,1.0531,0.7162,1.8701,2.5203,0.6502,A
200,0.50116,1.2,1,0.30905,0.34246,0.42599,200,1.91277,-0.328,-0.16705,0.33411,5,2U1D,1.0,False,0.312,17,True,left,-0.16705,0.2317,0.7153,0.4836,1.1489,1.6323,0.4834,A
201,0.50116,0.1,2,0.40928,0.44269,0.42599,201,2.68121,0.8,0.40093,0.90209,5,lapse_rate,2.0,True,0.284,0,False,right,0.25058,1.4576,2.2166,0.759,0.4249,0.8916,0.4667,A
202,0.50116,0.1,2,0.33411,0.40928,0.63481,202,2.44735,0.136,0.06682,0.56799,5,2D1U,1.0,False,0.583,18,True,left,0.0,1.4679,1.8923,0.4244,0.4756,0.6925,0.2168,A
203,0.50116,1.2,1,0.24223,0.34246,0.85198,203,2.83992,0.8,0.40093,0.90209,5,lapse_rate,1.0,True,0.264,0,False,left,-0.16705,0.1674,1.2173,1.0499,2.0758,2.5593,0.4835,A
204,0.50116,0.1,1,0.35917,0.40093,0.7601,204,2.33041,-0.382,-0.19211,0.30905,5,2U1D,2.0,True,0.775,17,False,right,0.25058,0.499,0.5237,0.0247,1.2993,1.7657,0.4664,A
205,0.50116,0.1,1,0.25058,0.22552,0.54293,205,2.11323,0.19,0.09188,0.59304,5,2D1U,1.0,True,0.296,19,True,left,0.0,0.3906,0.6993,0.3087,1.3821,1.5993,0.2172,A
206,0.50116,1.2,1,0.26729,0.33411,0.84363,206,2.25524,-0.382,-0.19211,0.30905,5,2U1D,1.0,False,0.298,17,False,left,-0.16705,0.1923,0.6497,0.4574,1.5,1.9835,0.4835,A
207,0.50116,1.2,2,0.40093,0.20882,0.86033,207,2.56428,0.19,0.09188,0.59304,5,2D1U,1.0,False,0.397,19,True,left,0.25058,2.0276,2.5452,0.5176,0.1952,1.0944,0.8992,A
208,0.50116,0.1,2,0.33411,0.23388,0.6181,208,2.58934,0.8,0.40093,0.90209,5,lapse_rate,2.0,True,0.398,0,False,right,0.0,1.4494,2.2084,0.759,0.4747,0.6906,0.2159,A
209,0.50116,0.1,1,0.35917,0.23388,0.65987,209,1.85431,-0.8,-0.40093,0.10023,5,lapse_rate,2.0,True,0.356,0,False,right,-0.16705,0.4982,0.3152,-0.183,1.1989,1.2486,0.0497,A
210,0.50116,1.2,1,0.34246,0.41764,0.40093,210,2.28029,0.244,0.12529,0.6181,5,2D1U,1.0,True,0.283,19,False,left,0.25058,0.2635,1.0297,0.7662,1.2294,2.1296,0.9002,A
211,0.50116,0.1,2,0.44269,0.24223,0.48446,211,1.95453,-0.436,-0.21717,0.28399,5,2U1D,1.0,True,0.355,17,False,left,0.0,1.4239,1.5656,0.1417,0.5826,0.7992,0.2166,A
212,0.50116,0.1,1,0.36752,0.26729,0.88539,212,2.63946,0.244,0.12529,0.6181,5,2D1U,1.0,True,0.279,19,False,left,-0.16705,0.5087,0.8413,0.3327,1.9499,1.9998,0.05,A
213,0.50116,0.1,2,0.27564,0.40093,0.6014,213,1.87936,-0.8,-0.40093,0.10023,5,lapse_rate,1.0,True,0.288,0,False,left,0.25058,1.4988,1.4575,-0.0413,0.2904,0.7566,0.4662,A
214,0.50116,0.1,1,0.22552,0.35081,0.89374,214,2.25522,-0.436,-0.21717,0.28399,5,2U1D,2.0,True,0.221,17,False,right,0.0,0.3615,0.3615,0.0,1.3957,1.6121,0.2164,A
215,0.50116,1.2,2,0.33411,0.42599,0.70998,215,2.56428,0.19,0.09188,0.59304,5,2D1U,1.0,False,0.486,20,True,left,-0.16705,1.6112,2.1286,0.5174,0.3451,0.8281,0.4831,A
216,0.50116,1.2,1,0.35081,0.39258,0.67657,216,2.23017,-0.382,-0.19211,0.30905,5,2U1D,2.0,True,0.524,18,True,right,0.25058,0.277,0.7361,0.459,1.2113,2.111,0.8997,A
217,0.50116,0.1,1,0.3174,0.29235,0.86868,217,2.07982,-0.8,-0.40093,0.10023,5,lapse_rate,2.0,True,0.24,0,False,right,0.0,0.4607,0.2774,-0.1833,1.2858,1.5024,0.2166,A
218,0.50116,0.1,1,0.40093,0.20047,0.40928,218,2.41393,0.8,0.40093,0.90209,5,lapse_rate,1.0,True,0.361,0,False,left,-0.16705,0.5387,1.1554,0.6167,1.7879,1.8379,0.05,A
219,0.50116,1.2,2,0.35081,0.3007,0.69328,219,2.46405,0.244,0.12529,0.6181,5,2D1U,1.0,False,0.536,21,True,left,0.25058,1.8163,2.3589,0.5426,0.1505,1.0498,0.8993,A
220,0.50116,0.1,2,0.20882,0.23388,0.73504,220,1.98795,-0.382,-0.19211,0.30905,5,2U1D,1.0,True,0.323,18,True,left,0.0,1.4408,1.6068,0.166,0.3488,0.5652,0.2165,A
221,0.50116,0.1,1,0.25893,0.3174,0.78516,221,2.76474,0.8,0.40093,0.90209,5,lapse_rate,1.0,True,0.327,0,False,left,-0.16705,0.3988,1.0148,0.6161,2.0231,2.0731,0.05,A
222,0.50116,0.1,1,0.37587,0.25893,0.59304,222,2.06311,-0.328,-0.16705,0.33411,5,2U1D,2.0,True,0.64,18,False,right,0.25058,0.5203,0.5694,0.049,1.1782,1.6448,0.4666,A
223,0.50116,0.1,1,0.43434,0.35081,0.62645,223,2.56427,0.298,0.15035,0.65151,5,2D1U,1.0,True,0.433,21,False,left,0.0,0.5751,0.9405,0.3654,1.7083,1.9242,0.2159,A
224,0.50116,0.1,2,0.29235,0.35081,0.82692,224,2.87333,0.8,0.40093,0.90209,5,lapse_rate,2.0,True,0.284,0,False,right,-0.16705,1.5339,2.2931,0.7592,0.5177,0.5667,0.049,A
225,0.50116,1.2,1,0.44269,0.33411,0.41764,225,2.02971,-0.328,-0.16705,0.33411,5,2U1D,1.0,False,0.369,18,False,left,0.25058,0.3631,0.8473,0.4842,1.0637,1.9641,0.9005,A
226,0.50116,1.2,2,0.29235,0.37587,0.42599,226,2.24688,0.298,0.15035,0.65151,5,2D1U,1.0,False,0.279,21,False,left,0.0,1.3646,1.9398,0.5752,0.2157,0.8654,0.6497,A
227,0.50116,1.2,1,0.40928,0.24223,0.6181,227,2.07982,-0.382,-0.19211,0.30905,5,2U1D,1.0,False,0.401,19,True,left,-0.16705,0.3296,0.7882,0.4586,1.4136,1.896,0.4825,A
228,0.50116,1.2,2,0.27564,0.34246,0.7768,228,2.79815,0.8,0.40093,0.90209,5,lapse_rate,2.0,True,0.288,0,False,right,0.25058,1.8238,2.6488,0.825,0.0736,0.9732,0.8996,A
229,0.50116,0.1,2,0.22552,0.27564,0.72669,229,2.40558,0.352,0.17541,0.67657,5,2D1U,1.0,False,0.241,21,False,left,0.0,1.4492,1.9815,0.5322,0.3647,0.5825,0.2178,A
230,0.50116,0.1,1,0.25893,0.36752,0.50952,230,2.33876,0.406,0.20047,0.70163,5,2D1U,1.0,True,0.27,21,False,left,-0.16705,0.3989,0.8155,0.4166,1.5493,1.5988,0.0495,A
231,0.50116,0.1,1,0.20047,0.37587,0.76845,231,2.12994,-0.436,-0.21717,0.28399,5,2U1D,2.0,True,0.267,19,False,right,0.25058,0.3387,0.3387,0.0,1.1219,1.5885,0.4666,A
232,0.50116,0.1,1,0.40928,0.3174,0.67657,232,2.8065,0.8,0.40093,0.90209,5,lapse_rate,1.0,True,0.288,0,False,left,0.0,0.5503,1.1673,0.617,1.9837,2.2005,0.2168,A
233,0.50116,1.2,1,0.3174,0.41764,0.65151,233,1.98794,-0.8,-0.40093,0.10023,5,lapse_rate,2.0,True,0.283,0,False,right,-0.16705,0.2431,0.4937,0.2506,1.152,1.6353,0.4832,A
234,0.50116,1.2,2,0.44269,0.27564,0.54293,234,2.46405,0.406,0.20047,0.70163,5,2D1U,1.0,False,0.556,21,False,left,0.25058,1.7549,2.3796,0.6247,0.2381,1.1385,0.9004,A
235,0.50116,1.2,1,0.26729,0.23388,0.70163,235,1.98795,-0.436,-0.21717,0.28399,5,2U1D,1.0,False,0.68,19,False,left,0.0,0.1903,0.6228,0.4326,1.2488,1.8981,0.6493,A
236,0.50116,1.2,1,0.32576,0.25058,0.74339,236,2.07982,-0.49,-0.24223,0.25893,5,2U1D,2.0,True,0.267,19,False,right,-0.16705,0.2464,0.6539,0.4075,1.4044,1.8879,0.4835,A
237,0.50116,0.1,2,0.34246,0.41764,0.53457,237,2.52252,0.46,0.23388,0.72669,5,2D1U,1.0,False,0.496,21,False,left,0.25058,1.5034,2.0869,0.5835,0.3612,0.8281,0.4669,A
238,0.50116,1.2,1,0.28399,0.3174,0.50116,238,2.5058,0.8,0.40093,0.90209,5,lapse_rate,1.0,True,0.219,0,False,left,0.0,0.2071,1.2572,1.05,1.6817,2.3321,0.6503,A
239,0.50116,0.1,1,0.26729,0.25058,0.73504,239,2.013,-0.49,-0.24223,0.25893,5,2U1D,2.0,True,0.317,19,False,right,-0.16705,0.4104,0.3851,-0.0253,1.3434,1.3929,0.0496,A
240,0.50116,0.1,2,0.22552,0.42599,0.55128,240,2.46405,0.514,0.25893,0.7601,5,2D1U,2.0,True,0.344,21,False,right,0.25058,1.3955,2.0118,0.6163,0.237,0.7035,0.4666,A
241,0.50116,1.2,1,0.30905,0.3007,0.46775,241,1.67889,-0.8,-0.40093,0.10023,5,lapse_rate,2.0,True,1.097,0,False,right,0.0,0.2334,0.4836,0.2502,0.8744,1.5253,0.6509,A
242,0.50116,1.2,1,0.35081,0.42599,0.55963,242,1.93782,-0.8,-0.40093,0.10023,5,lapse_rate,2.0,True,0.325,0,False,right,-0.16705,0.2739,0.5241,0.2501,1.0909,1.5742,0.4833,A
243,0.50116,1.2,1,0.39258,0.21717,0.47611,243,1.87101,-0.436,-0.21717,0.28399,5,2U1D,1.0,False,0.274,20,True,left,0.25058,0.314,0.7476,0.4337,1.0235,999,997.9765,A
244,0.50116,1.2,2,0.25893,0.34246,0.55963,244,2.42228,0.514,0.25893,0.7601,5,2D1U,2.0,True,0.307,21,False,right,0.0,1.4629,2.1453,0.6824,0.1786,0.8298,0.6512,A
245,0.50116,1.2,1,0.3007,0.23388,0.50116,245,2.26359,0.46,0.23388,0.72669,5,2D1U,1.0,True,0.272,22,True,left,-0.16705,0.2239,1.0987,0.8748,1.6071,2.0906,0.4835,A
246,0.50116,1.2,1,0.3174,0.36752,0.90209,246,2.1884,-0.8,-0.40093,0.10023,5,lapse_rate,2.0,True,0.299,0,False,right,0.25058,0.2393,0.4893,0.2499,1.189,2.0891,0.9001,A
247,0.50116,0.1,2,0.25893,0.40928,0.58469,247,2.01299,-0.49,-0.24223,0.25893,5,2U1D,1.0,True,0.362,21,True,left,0.0,1.3446,1.461,0.1163,0.4029,0.6193,0.2164,A
248,0.50116,1.2,1,0.30905,0.25058,0.6014,248,1.76242,-0.8,-0.40093,0.10023,5,lapse_rate,2.0,True,0.292,0,False,right,-0.16705,0.2323,0.4819,0.2496,1.0898,1.5738,0.484,A
249,0.50116,0.1,1,0.23388,0.27564,0.62645,249,2.36382,0.46,0.23388,0.72669,5,2D1U,1.0,True,0.25,22,True,left,0.25058,0.3737,0.8147,0.441,1.4566,1.923,0.4664,A
250,0.50116,0.1,2,0.3174,0.3174,0.73504,250,2.12993,-0.49,-0.24223,0.25893,5,2U1D,1.0,True,0.298,21,True,left,0.0,1.5517,1.6685,0.1168,0.4599,0.6766,0.2167,A
251,0.50116,1.2,1,0.3007,0.39258,0.72669,251,2.20512,-0.436,-0.21717,0.28399,5,2U1D,2.0,True,0.236,22,True,right,-0.16705,0.2231,0.6562,0.4331,1.3889,1.873,0.4841,A
252,0.50116,1.2,1,0.35917,0.42599,0.78516,252,2.17171,-0.8,-0.40093,0.10023,5,lapse_rate,1.0,False,0.713,0,False,left,0.25058,0.2832,0.5327,0.2495,1.116,2.016,0.8999,A
253,0.50116,1.2,2,0.37587,0.44269,0.88539,253,2.90674,0.406,0.20047,0.70163,5,2D1U,2.0,True,0.247,22,False,right,0.0,1.9108,2.5355,0.6247,0.3026,0.9524,0.6498,A
254,0.50116,1.2,1,0.36752,0.40928,0.60975,254,2.58934,0.406,0.20047,0.70163,5,2D1U,1.0,True,0.214,22,False,left,-0.16705,0.2872,1.1368,0.8497,1.7543,2.2369,0.4826,A
255,0.50116,0.1,2,0.41764,0.34246,0.53457,255,2.07982,-0.436,-0.21717,0.28399,5,2U1D,1.0,True,0.183,22,True,left,0.25058,1.5714,1.7133,0.1419,0.4299,0.8963,0.4665,A
256,0.50116,0.1,2,0.30905,0.30905,0.65151,256,2.44734,0.352,0.17541,0.67657,5,2D1U,2.0,True,0.221,22,False,right,0.0,1.4546,1.9869,0.5323,0.446,0.662,0.2159,A
257,0.50116,0.1,2,0.37587,0.39258,0.55128,257,2.12994,-0.382,-0.19211,0.30905,5,2U1D,1.0,True,0.276,22,False,left,-0.16705,1.3379,1.5033,0.1654,0.5957,0.6456,0.05,A
258,0.50116,1.2,2,0.22552,0.44269,0.87704,258,2.35546,-0.382,-0.19211,0.30905,5,2U1D,1.0,True,0.335,22,False,left,0.25058,1.8732,2.1066,0.2335,0.0236,0.9231,0.8995,A
259,0.50116,1.2,2,0.32576,0.40093,0.68492,259,2.58934,0.352,0.17541,0.67657,5,2D1U,2.0,True,0.375,22,False,right,0.0,1.6553,2.255,0.5997,0.2467,0.8969,0.6503,A
260,0.50116,1.2,1,0.35081,0.24223,0.44269,260,2.1884,0.298,0.15035,0.65151,5,2D1U,1.0,True,0.272,22,False,left,-0.16705,0.2747,1.0751,0.8004,1.5254,2.0081,0.4826,A
261,0.50116,0.1,2,0.30905,0.35081,0.81021,261,2.30534,-0.328,-0.16705,0.33411,5,2U1D,1.0,True,0.338,22,False,left,0.25058,1.7431,1.9348,0.1916,0.3256,0.7931,0.4675,A
262,0.50116,0.1,2,0.27564,0.34246,0.83527,262,2.28864,-0.328,-0.16705,0.33411,5,2U1D,1.0,True,0.253,22,False,left,0.0,1.6033,1.7963,0.193,0.4124,0.6283,0.2159,A
263,0.50116,0.1,2,0.30905,0.34246,0.86868,263,2.67286,0.298,0.15035,0.65151,5,2D1U,2.0,True,0.179,22,False,right,-0.16705,1.5931,2.1009,0.5078,0.5344,0.5842,0.0497,A
264,0.50116,1.2,2,0.23388,0.25893,0.7601,264,2.11324,-0.274,-0.13364,0.35917,5,2U1D,1.0,True,0.29,22,False,left,0.25058,1.7628,2.0467,0.2839,0.0303,0.9293,0.899,A
265,0.50116,1.2,2,0.20882,0.20047,0.81021,265,2.07983,-0.274,-0.13364,0.35917,5,2U1D,1.0,True,0.283,22,False,left,0.0,1.6632,1.9458,0.2826,0.129,0.7795,0.6505,A
266,0.50116,1.2,2,0.25893,0.20047,0.84363,266,2.19677,-0.22,-0.10859,0.39258,5,2U1D,1.0,True,0.817,22,False,left,-0.16705,1.6658,1.982,0.3162,0.2659,0.7493,0.4834,A
267,0.50116,0.1,2,0.37587,0.25058,0.50116,267,2.24687,0.244,0.12529,0.6181,5,2D1U,1.0,False,0.681,22,False,left,0.25058,1.496,1.9712,0.4753,0.388,0.8548,0.4668,A
268,0.50116,0.1,2,0.40093,0.29235,0.45105,268,2.297,0.298,0.15035,0.65151,5,2D1U,2.0,True,0.198,23,True,right,0.0,1.3524,1.8607,0.5083,0.5446,0.7614,0.2168,A
269,0.50116,0.1,2,0.22552,0.35917,0.59304,269,2.3304,0.298,0.15035,0.65151,5,2D1U,2.0,True,0.54,23,True,right,-0.16705,1.2318,1.7401,0.5083,0.4477,0.4984,0.0507,A
270,0.50116,1.2,1,0.20882,0.21717,0.85198,270,2.17171,-0.22,-0.10859,0.39258,5,2U1D,1.0,False,0.766,22,False,left,0.25058,0.1317,0.6726,0.541,1.3234,999,997.6766,A
271,0.50116,1.2,2,0.32576,0.30905,0.72669,271,2.22183,-0.274,-0.13364,0.35917,5,2U1D,1.0,True,0.261,23,True,left,0.0,1.6986,1.9813,0.2827,0.2483,0.8984,0.6501,A
272,0.50116,1.2,1,0.20047,0.39258,0.47611,272,2.18842,0.244,0.12529,0.6181,5,2D1U,1.0,True,0.329,24,True,left,-0.16705,0.123,0.8898,0.7668,1.3735,1.8567,0.4831,A
273,0.50116,0.1,1,0.3007,0.43434,0.55128,273,2.14665,-0.274,-0.13364,0.35917,5,2U1D,2.0,True,0.291,23,True,right,0.25058,0.44,0.515,0.075,1.0817,1.5475,0.4658,A
274,0.50116,0.1,2,0.32576,0.36752,0.64316,274,2.23018,-0.22,-0.10859,0.39258,5,2U1D,1.0,True,0.226,24,True,left,0.0,1.4641,1.7139,0.2498,0.4646,0.6808,0.2162,A
275,0.50116,0.1,1,0.21717,0.3174,0.88539,275,2.3137,-0.22,-0.10859,0.39258,5,2U1D,1.0,False,0.69,24,True,left,-0.16705,0.3578,0.4672,0.1094,1.5756,1.6254,0.0498,A
276,0.50116,1.2,1,0.21717,0.22552,0.56799,276,2.12994,0.244,0.12529,0.6181,5,2D1U,1.0,True,0.296,24,True,left,0.25058,0.1379,0.9035,0.7656,1.27,999,997.73,A
277,0.50116,1.2,2,0.37587,0.27564,0.89374,277,2.63945,0.19,0.09188,0.59304,5,2D1U,1.0,False,0.372,24,False,left,0.0,1.9171,2.4341,0.5169,0.2999,0.9505,0.6507,A
278,0.50116,1.2,1,0.35081,0.27564,0.55963,278,2.30534,0.244,0.12529,0.6181,5,2D1U,1.0,True,0.245,25,True,left,-0.16705,0.2767,1.0439,0.7672,1.6104,2.0931,0.4827,A
279,0.50116,0.1,1,0.41764,0.22552,0.63481,279,2.39723,0.244,0.12529,0.6181,5,2D1U,1.0,True,0.217,25,True,left,0.25058,0.5546,0.8878,0.3332,1.5383,2.0046,0.4663,A
280,0.50116,0.1,2,0.35081,0.3174,0.89374,280,2.42228,-0.274,-0.13364,0.35917,5,2U1D,1.0,True,0.231,25,True,left,0.0,1.7413,1.9577,0.2164,0.4906,0.7082,0.2176,A
281,0.50116,0.1,2,0.35917,0.30905,0.76845,281,2.297,-0.274,-0.13364,0.35917,5,2U1D,1.0,True,0.202,25,True,left,-0.16705,1.544,1.7611,0.2171,0.586,0.6362,0.0501,A
282,0.50116,1.2,2,0.41764,0.43434,0.65987,282,2.60605,0.19,0.09188,0.59304,5,2D1U,1.0,False,0.566,26,True,left,0.25058,1.853,2.3701,0.5171,0.2195,1.1198,0.9003,A
283,0.50116,1.2,1,0.41764,0.36752,0.47611,283,2.15501,-0.22,-0.10859,0.39258,5,2U1D,2.0,True,0.744,26,True,right,0.0,0.3439,0.8861,0.5422,1.2856,1.936,0.6504,A
284,0.50116,1.2,1,0.32576,0.44269,0.55963,284,2.22182,-0.22,-0.10859,0.39258,5,2U1D,1.0,False,0.276,26,True,left,-0.16705,0.2466,0.7888,0.5422,1.356,1.839,0.483,A
285,0.50116,0.1,1,0.25058,0.41764,0.81021,285,2.59769,0.244,0.12529,0.6181,5,2D1U,1.0,True,0.315,27,True,left,0.25058,0.3866,0.7206,0.334,1.5458,2.0121,0.4663,A
286,0.50116,0.1,2,0.30905,0.40928,0.42599,286,2.00465,-0.274,-0.13364,0.35917,5,2U1D,1.0,True,0.245,27,True,left,0.0,1.237,1.4536,0.2166,0.4538,0.6707,0.2169,A
287,0.50116,0.1,1,0.29235,0.36752,0.85198,287,2.37218,-0.274,-0.13364,0.35917,5,2U1D,2.0,True,0.116,27,True,right,-0.16705,0.4326,0.5077,0.0751,1.5818,1.6327,0.0509,A
288,0.50116,1.2,1,0.3174,0.24223,0.65987,288,2.33876,0.244,0.12529,0.6181,5,2D1U,1.0,True,0.373,27,True,left,0.25058,0.2394,1.0063,0.7669,1.4649,999,997.5351,A
289,0.50116,1.2,1,0.22552,0.45105,0.76845,289,2.53922,0.19,0.09188,0.59304,5,2D1U,1.0,True,0.244,28,True,left,0.0,0.1463,0.8889,0.7426,1.5805,2.2295,0.6491,A
290,0.50116,1.2,2,0.25893,0.34246,0.4594,290,1.95453,-0.22,-0.10859,0.39258,5,2U1D,1.0,True,0.372,28,True,left,-0.16705,1.2795,1.5971,0.3175,0.2631,0.7474,0.4844,A
291,0.50116,0.1,1,0.3174,0.25058,0.50952,291,1.97124,-0.22,-0.10859,0.39258,5,2U1D,2.0,True,0.389,28,True,right,0.25058,0.4582,0.5666,0.1084,1.0923,1.5582,0.4658,A
292,0.50116,0.1,1,0.42599,0.26729,0.6181,292,2.40558,0.19,0.09188,0.59304,5,2D1U,1.0,True,0.456,28,True,left,0.0,0.5655,0.8728,0.3073,1.632,1.8481,0.2161,A
293,0.50116,0.1,2,0.33411,0.20882,0.43434,293,1.89607,-0.166,-0.08353,0.41764,5,2U1D,1.0,True,0.496,28,False,left,-0.16705,1.1815,1.4558,0.2743,0.5564,0.6065,0.0501,A
294,0.50116,1.2,1,0.33411,0.21717,0.83527,294,2.4557,0.136,0.06682,0.56799,5,2D1U,2.0,False,1.026,28,False,right,0.25058,0.2543,0.9715,0.7172,1.6047,999,997.3953,A
295,0.50116,1.2,2,0.3007,0.25893,0.45105,295,2.10488,0.19,0.09188,0.59304,5,2D1U,1.0,False,0.342,29,True,left,0.0,1.3989,1.9164,0.5175,0.2246,0.8744,0.6498,A
296,0.50116,1.2,2,0.24223,0.23388,0.40928,296,2.00465,0.244,0.12529,0.6181,5,2D1U,1.0,False,0.241,29,False,left,-0.16705,1.2139,1.7552,0.5413,0.2469,0.7302,0.4833,A
297,0.50116,0.1,2,0.28399,0.24223,0.50952,297,1.95454,-0.166,-0.08353,0.41764,5,2U1D,1.0,True,0.338,28,False,left,0.25058,1.4122,1.6877,0.2755,0.2956,0.7624,0.4668,A
298,0.50116,0.1,2,0.25058,0.20882,0.6014,298,2.21347,0.298,0.15035,0.65151,5,2D1U,2.0,True,0.286,29,False,right,0.0,1.3482,1.8558,0.5076,0.3899,0.6069,0.2169,A
299,0.50116,0.1,2,0.35917,0.32576,0.87704,299,2.50582,-0.112,-0.05847,0.44269,5,2U1D,1.0,True,0.358,28,False,left,-0.16705,1.6476,1.9473,0.2997,0.5817,0.6312,0.0495,A
