,standardDur,audNoise,order,preDur,postDur,isiDur,trial_num,totalDur,delta_dur_percents,deltaDurS,testDurS,intensities,current_stair,responses,is_correct,response_rts,stair_num_reversal,stair_is_reversal,response_keys,conflictDur,recordedOnsetVisualTest,recordedOffsetVisualTest,recordedDurVisualTest,recordedOnsetVisualStandard,recordedOffsetVisualStandard,recordedDurVisualStandard,modalityCue
0,0.49684,1.2,1,0.30315,0.21895,0.8842,0,2.05472,-0.7,-0.35368,0.15158,5,2U1D,1.0,False,1.145,0,False,left,0.16842,0.2632,0.4793,0.2161,1.238,1.9633,0.7253,A
1,0.49684,1.2,2,0.30315,0.42105,0.69894,1,2.7705,0.7,0.35368,0.85052,5,2D1U,2.0,True,0.107,0,False,right,-0.08421,1.5099,2.3182,0.8084,0.3101,0.7849,0.4748,A
2,0.49684,0.1,1,0.32,0.40421,0.65684,2,2.72841,0.7,0.35368,0.85052,5,2D1U,1.0,True,0.22,0,False,left,0.16842,0.448,1.0228,0.5749,1.7232,2.1144,0.3912,A
3,0.49684,0.1,2,0.40421,0.42947,0.75789,3,2.1642,-0.85,-0.42105,0.07579,5,2U1D,1.0,True,0.21,0,False,left,-0.08421,1.5961,1.5378,-0.0583,0.5713,0.7128,0.1414,A
4,0.49684,0.1,1,0.23579,0.22737,0.57263,4,2.43367,0.8,0.40421,0.90104,5,lapse_rate,1.0,True,0.448,0,False,left,0.16842,0.3677,0.9924,0.6248,1.609,2.0006,0.3916,A
5,0.49684,0.1,2,0.3621,0.39579,0.8421,5,2.19788,-0.8,-0.40421,0.10105,5,lapse_rate,2.0,False,0.126,0,False,right,-0.08421,1.6401,1.6063,-0.0338,0.5313,0.673,0.1417,A
6,0.49684,1.2,2,0.26105,0.22737,0.74947,6,2.50946,0.55,0.27789,0.77473,5,2D1U,1.0,False,0.124,0,False,left,0.16842,1.6388,2.3719,0.7331,0.1385,0.8633,0.7248,A
7,0.49684,1.2,1,0.28631,0.30315,0.66526,7,1.82735,-0.85,-0.42105,0.07579,5,2U1D,2.0,True,0.383,0,False,right,-0.08421,0.2473,0.3889,0.1416,1.0561,1.5301,0.474,A
8,0.49684,0.1,1,0.32,0.32,0.66526,8,1.91999,-0.76,-0.37894,0.11789,5,2U1D,2.0,True,0.192,1,True,right,0.16842,0.4474,0.2973,-0.1501,1.0058,1.3975,0.3917,A
9,0.49684,1.2,2,0.39579,0.42947,0.81683,9,2.23998,-0.8,-0.40421,0.10105,5,lapse_rate,1.0,True,0.191,0,False,left,-0.08421,1.7146,1.7811,0.0665,0.398,0.8729,0.4749,A
10,0.49684,0.1,1,0.22737,0.40421,0.6821,10,2.62735,0.64,0.32,0.81683,5,2D1U,1.0,True,0.148,1,True,left,0.16842,0.3588,0.9006,0.5417,1.6255,2.0172,0.3917,A
11,0.49684,1.2,2,0.3621,0.41263,0.63157,11,2.71997,0.64,0.32,0.81683,5,2D1U,2.0,True,0.183,1,True,right,-0.08421,1.5016,2.276,0.7743,0.3677,0.843,0.4753,A
12,0.49684,1.2,2,0.29473,0.37052,0.78315,12,2.06313,-0.76,-0.37894,0.11789,5,2U1D,1.0,True,0.23,1,True,left,0.16842,1.7036,1.7869,0.0833,0.1701,0.8954,0.7253,A
13,0.49684,1.2,2,0.21895,0.34526,0.53894,13,1.70104,-0.8,-0.40421,0.10105,5,lapse_rate,1.0,True,0.267,0,False,left,-0.08421,1.2623,1.3292,0.0669,0.2209,0.6955,0.4746,A
14,0.49684,0.1,2,0.42105,0.22737,0.5221,14,1.83578,-0.67,-0.33684,0.16842,5,2U1D,2.0,False,0.401,1,False,right,0.16842,1.511,1.5444,0.0334,0.4694,0.8614,0.392,A
15,0.49684,1.2,1,0.21895,0.32842,0.48,15,1.62526,-0.8,-0.40421,0.10105,5,lapse_rate,1.0,False,0.237,0,False,left,-0.08421,0.1811,0.3482,0.167,0.8315,1.3064,0.4749,A
16,0.49684,0.1,2,0.26105,0.38736,0.49684,16,2.43366,0.586,0.29473,0.79157,5,2D1U,2.0,True,0.112,2,True,right,0.16842,1.3204,1.97,0.6496,0.3036,0.6953,0.3917,A
17,0.49684,1.2,2,0.37052,0.3621,0.62315,17,2.75365,0.8,0.40421,0.90104,5,lapse_rate,2.0,True,0.166,0,False,right,-0.08421,1.4981,2.3563,0.8582,0.373,0.8481,0.4751,A
18,0.49684,1.2,2,0.40421,0.3621,0.46315,18,2.51787,0.586,0.29473,0.79157,5,2D1U,1.0,False,0.107,2,True,left,0.16842,1.5021,2.2521,0.75,0.2855,1.0101,0.7246,A
19,0.49684,1.2,2,0.35368,0.25263,0.50526,19,1.74315,-0.724,-0.3621,0.13474,5,2U1D,1.0,True,0.276,2,True,left,-0.08421,1.3622,1.4622,0.1,0.354,0.829,0.475,A
20,0.49684,0.1,2,0.28631,0.28631,0.42947,20,2.31576,0.64,0.32,0.81683,5,2D1U,2.0,True,0.171,3,True,right,0.16842,1.2821,1.957,0.6749,0.3322,0.7238,0.3916,A
21,0.49684,0.1,2,0.43789,0.24421,0.53894,21,1.85262,-0.724,-0.3621,0.13474,5,2U1D,1.0,True,0.326,2,True,left,-0.08421,1.4135,1.4135,0.0,0.6051,0.7467,0.1417,A
22,0.49684,1.2,1,0.33684,0.44631,0.45473,22,1.83577,-0.8,-0.40421,0.10105,5,lapse_rate,2.0,True,0.195,0,False,right,0.16842,0.3024,0.4691,0.1667,0.8025,1.5273,0.7247,A
23,0.49684,0.1,1,0.21052,0.32,0.85894,23,1.98735,-0.8,-0.40421,0.10105,5,lapse_rate,2.0,True,0.204,0,False,right,-0.08421,0.3384,0.1719,-0.1665,1.1967,1.3384,0.1417,A
24,0.49684,1.2,1,0.26105,0.30315,0.53894,24,2.41681,0.64,0.32,0.81683,5,2D1U,1.0,True,0.136,3,True,left,0.16842,0.2198,1.0955,0.8757,1.5117,2.2369,0.7252,A
25,0.49684,1.2,2,0.41263,0.42947,0.5221,25,2.02946,-0.67,-0.33684,0.16842,5,2U1D,1.0,True,0.238,3,True,left,-0.08421,1.4417,1.575,0.1333,0.4166,0.8917,0.4751,A
26,0.49684,0.1,1,0.29473,0.31158,0.66526,26,1.93683,-0.67,-0.33684,0.16842,5,2U1D,2.0,True,0.216,3,True,right,0.16842,0.4239,0.3244,-0.0995,1.0329,1.4243,0.3913,A
27,0.49684,0.1,2,0.25263,0.27789,0.8421,27,2.66103,0.586,0.29473,0.79157,5,2D1U,2.0,True,0.173,4,True,right,-0.08421,1.5364,2.1864,0.65,0.4278,0.57,0.1422,A
28,0.49684,0.1,2,0.27789,0.40421,0.89262,28,2.17261,-0.8,-0.40421,0.10105,5,lapse_rate,1.0,True,0.156,0,False,left,0.16842,1.7349,1.7012,-0.0337,0.3264,0.7181,0.3917,A
29,0.49684,0.1,1,0.26947,0.24421,0.77473,29,1.8863,-0.8,-0.40421,0.10105,5,lapse_rate,2.0,True,0.197,0,False,right,-0.08421,0.3982,0.2315,-0.1667,1.1732,1.3145,0.1413,A
30,0.49684,1.2,2,0.28631,0.43789,0.50526,30,1.91998,-0.616,-0.31158,0.19368,5,2U1D,1.0,True,0.213,3,False,left,0.16842,1.4219,1.5801,0.1582,0.1636,0.8885,0.7249,A
31,0.49684,1.2,1,0.23579,0.44631,0.5221,31,2.49261,0.586,0.29473,0.79157,5,2D1U,2.0,False,0.314,4,True,right,-0.08421,0.2001,1.0497,0.8496,1.575,2.0499,0.4749,A
32,0.49684,0.1,2,0.30315,0.38736,0.45473,32,1.83576,-0.616,-0.31158,0.19368,5,2U1D,2.0,False,0.219,3,False,right,0.16842,1.3198,1.3781,0.0583,0.3449,0.7366,0.3918,A
33,0.49684,1.2,1,0.3621,0.39579,0.54736,33,1.90314,-0.8,-0.40421,0.10105,5,lapse_rate,2.0,True,0.154,0,False,right,-0.08421,0.3242,0.4907,0.1665,1.0408,1.5155,0.4747,A
34,0.49684,0.1,1,0.33684,0.31158,0.46315,34,2.42524,0.64,0.32,0.81683,5,2D1U,1.0,True,0.393,5,True,left,0.16842,0.4679,1.0094,0.5414,1.5178,1.9097,0.3919,A
35,0.49684,0.1,1,0.24421,0.21895,0.67368,35,2.53472,0.8,0.40421,0.90104,5,lapse_rate,1.0,True,0.27,0,False,left,-0.08421,0.3712,0.9962,0.625,1.8378,1.9794,0.1416,A
36,0.49684,1.2,2,0.41263,0.23579,0.89262,36,2.85471,0.64,0.32,0.81683,5,2D1U,2.0,True,0.144,5,True,right,0.16842,1.9298,2.7048,0.7749,0.2882,1.0132,0.725,A
37,0.49684,1.2,2,0.35368,0.28631,0.71578,37,2.02103,-0.67,-0.33684,0.16842,5,2U1D,1.0,True,0.345,4,True,left,-0.08421,1.57,1.7035,0.1336,0.3536,0.8287,0.4751,A
38,0.49684,1.2,2,0.2021,0.23579,0.51368,38,2.34945,0.8,0.40421,0.90104,5,lapse_rate,2.0,True,0.213,0,False,right,0.16842,1.3486,2.2071,0.8585,0.0816,0.8069,0.7253,A
39,0.49684,0.1,1,0.29473,0.21895,0.67368,39,2.47577,0.586,0.29473,0.79157,5,2D1U,1.0,True,0.235,6,True,left,-0.08421,0.4268,0.9431,0.5163,1.785,1.9266,0.1417,A
40,0.49684,0.1,2,0.24421,0.26947,0.55578,40,1.73472,-0.67,-0.33684,0.16842,5,2U1D,1.0,True,0.296,4,True,left,0.16842,1.3691,1.4028,0.0336,0.2945,0.6861,0.3916,A
41,0.49684,1.2,2,0.39579,0.43789,0.58947,41,2.11367,-0.616,-0.31158,0.19368,5,2U1D,1.0,True,0.402,5,True,left,-0.08421,1.4928,1.6514,0.1586,0.4012,0.876,0.4748,A
42,0.49684,1.2,1,0.23579,0.37052,0.47157,42,2.36629,0.586,0.29473,0.79157,5,2D1U,2.0,False,0.266,6,True,right,0.16842,0.1948,1.0448,0.85,1.395,2.1201,0.725,A
43,0.49684,0.1,2,0.34526,0.26105,0.64841,43,1.85261,-0.8,-0.40421,0.10105,5,lapse_rate,1.0,True,0.387,0,False,left,-0.08421,1.4289,1.3958,-0.0332,0.5123,0.654,0.1417,A
44,0.49684,1.2,2,0.24421,0.26105,0.51368,44,2.41682,0.8,0.40421,0.90104,5,lapse_rate,2.0,True,0.193,0,False,right,0.16842,1.3929,2.2517,0.8588,0.1269,0.8518,0.7249,A
45,0.49684,0.1,2,0.21052,0.39579,0.86736,45,2.78734,0.64,0.32,0.81683,5,2D1U,2.0,True,0.358,7,True,right,-0.08421,1.519,2.1938,0.6748,0.3859,0.5273,0.1414,A
46,0.49684,0.1,2,0.37052,0.26947,0.41263,46,1.74314,-0.616,-0.31158,0.19368,5,2U1D,1.0,True,0.283,5,True,left,0.16842,1.3493,1.4077,0.0584,0.4163,0.8077,0.3915,A
47,0.49684,1.2,1,0.42105,0.43789,0.69052,47,2.26525,-0.562,-0.27789,0.21895,5,2U1D,2.0,True,0.173,5,False,right,-0.08421,0.3815,0.6649,0.2834,1.3565,1.8315,0.4749,A
48,0.49684,1.2,1,0.21052,0.32,0.67368,48,1.80209,-0.8,-0.40421,0.10105,5,lapse_rate,1.0,False,0.457,0,False,left,0.16842,0.1721,0.3386,0.1665,0.8886,1.6135,0.7249,A
49,0.49684,1.2,2,0.43789,0.24421,0.67368,49,2.66945,0.64,0.32,0.81683,5,2D1U,2.0,True,0.258,7,True,right,-0.08421,1.6139,2.3893,0.7755,0.4389,0.9141,0.4751,A
50,0.49684,0.1,1,0.42947,0.43789,0.83368,50,2.41683,-0.562,-0.27789,0.21895,5,2U1D,1.0,False,0.539,5,False,left,0.16842,0.5563,0.5062,-0.0501,1.3812,1.7729,0.3916,A
51,0.49684,0.1,2,0.34526,0.30315,0.49684,51,2.43366,0.586,0.29473,0.79157,5,2D1U,2.0,True,0.222,8,True,right,-0.08421,1.285,1.9348,0.6499,0.5182,0.66,0.1417,A
52,0.49684,0.1,1,0.33684,0.39579,0.46315,52,1.79367,-0.8,-0.40421,0.10105,5,lapse_rate,2.0,True,1.671,0,False,right,0.16842,0.4622,0.2957,-0.1666,0.8041,1.1956,0.3915,A
53,0.49684,1.2,1,0.43789,0.37052,0.74947,53,2.84629,0.586,0.29473,0.79157,5,2D1U,1.0,True,0.285,8,True,left,-0.08421,0.4012,1.2514,0.8502,2.0016,2.4763,0.4746,A
54,0.49684,1.2,2,0.25263,0.21052,0.79999,54,1.95366,-0.616,-0.31158,0.19368,5,2U1D,1.0,True,0.374,6,True,left,0.16842,1.682,1.8405,0.1586,0.1318,0.857,0.7252,A
55,0.49684,0.1,1,0.33684,0.37894,0.50526,55,2.61892,0.8,0.40421,0.90104,5,lapse_rate,1.0,True,0.467,0,False,left,-0.08421,0.468,1.0932,0.6252,1.768,1.9098,0.1418,A
56,0.49684,0.1,1,0.42947,0.33684,0.78315,56,2.23998,-0.616,-0.31158,0.19368,5,2U1D,2.0,True,0.352,6,True,right,0.16842,0.556,0.4806,-0.0753,1.3061,1.6972,0.3911,A
57,0.49684,0.1,2,0.35368,0.31158,0.74947,57,2.67788,0.532,0.26947,0.76631,5,2D1U,2.0,True,0.308,8,False,right,-0.08421,1.5382,2.1634,0.6252,0.5219,0.6634,0.1415,A
58,0.49684,1.2,1,0.22737,0.23579,0.75789,58,1.81894,-0.8,-0.40421,0.10105,5,lapse_rate,2.0,True,0.298,0,False,right,0.16842,0.1871,0.3543,0.1672,0.9875,1.7124,0.7249,A
59,0.49684,1.2,1,0.32842,0.23579,0.69894,59,1.86104,-0.8,-0.40421,0.10105,5,lapse_rate,2.0,True,0.304,0,False,right,-0.08421,0.2869,0.4537,0.1668,1.1536,1.6282,0.4746,A
60,0.49684,1.2,1,0.31158,0.21052,0.50526,60,1.74315,-0.562,-0.27789,0.21895,5,2U1D,2.0,True,1.201,7,True,right,0.16842,0.2735,0.5572,0.2836,0.9403,1.6655,0.7252,A
61,0.49684,1.2,1,0.25263,0.42947,0.82526,61,2.77051,0.532,0.26947,0.76631,5,2D1U,2.0,False,0.617,8,False,right,-0.08421,0.2127,1.0374,0.8246,1.8627,2.338,0.4753,A
62,0.49684,0.1,1,0.40421,0.41263,0.55578,62,2.66103,0.586,0.29473,0.79157,5,2D1U,2.0,False,1.278,9,True,right,0.16842,0.5362,1.0529,0.5167,1.6529,2.0446,0.3917,A
63,0.49684,0.1,1,0.26105,0.30315,0.40421,63,1.6842,-0.562,-0.27789,0.21895,5,2U1D,2.0,True,7.821,7,True,right,-0.08421,0.3888,0.3387,-0.0502,0.9136,1.055,0.1414,A
64,0.49684,1.2,2,0.40421,0.32842,0.65684,64,1.98736,-0.8,-0.40421,0.10105,5,lapse_rate,1.0,True,1.282,0,False,left,0.16842,1.6936,1.7604,0.0668,0.2854,1.0104,0.725,A
65,0.49684,1.2,2,0.23579,0.26947,0.85052,65,2.09683,-0.508,-0.25263,0.24421,5,2U1D,1.0,True,3.138,7,False,left,-0.08421,1.5926,1.8015,0.2089,0.2429,0.7179,0.475,A
66,0.49684,1.2,2,0.2021,0.40421,0.61473,66,2.53471,0.64,0.32,0.81683,5,2D1U,2.0,True,0.428,9,False,right,0.16842,1.4481,2.2231,0.775,0.0815,0.8068,0.7252,A
67,0.49684,0.1,1,0.23579,0.3621,0.47157,67,1.66735,-0.8,-0.40421,0.10105,5,lapse_rate,1.0,False,1.417,0,False,left,-0.08421,0.3683,0.2016,-0.1666,0.8434,0.9849,0.1415,A
68,0.49684,0.1,2,0.33684,0.39579,0.67368,68,2.14736,-0.508,-0.25263,0.24421,5,2U1D,1.0,True,0.439,7,False,left,0.16842,1.5728,1.6809,0.1081,0.3812,0.7726,0.3914,A
69,0.49684,0.1,1,0.32842,0.3621,0.46315,69,2.46734,0.64,0.32,0.81683,5,2D1U,1.0,True,1.349,9,False,left,-0.08421,0.4554,0.9969,0.5415,1.6305,1.7718,0.1413,A
70,0.49684,1.2,2,0.35368,0.24421,0.59789,70,1.79367,-0.8,-0.40421,0.10105,5,lapse_rate,1.0,True,1.344,0,False,left,0.16842,1.5846,1.651,0.0664,0.2345,0.9597,0.7252,A
71,0.49684,1.2,2,0.26947,0.32842,0.57263,71,1.76841,-0.8,-0.40421,0.10105,5,lapse_rate,1.0,True,1.073,0,False,left,-0.08421,1.3524,1.4195,0.067,0.2778,0.7526,0.4749,A
72,0.49684,1.2,2,0.28631,0.32842,0.86736,72,2.7705,0.586,0.29473,0.79157,5,2D1U,2.0,True,0.233,10,True,right,0.16842,1.7798,2.5298,0.75,0.1636,0.8882,0.7245,A
73,0.49684,1.2,1,0.43789,0.42105,0.6821,73,2.30735,-0.454,-0.22737,0.26947,5,2U1D,2.0,True,0.151,7,False,right,-0.08421,0.3967,0.7303,0.3335,1.4134,1.8885,0.4751,A
74,0.49684,0.1,1,0.32842,0.27789,0.41263,74,1.78525,-0.454,-0.22737,0.26947,5,2U1D,2.0,True,1.124,7,False,right,0.16842,0.4535,0.4535,0.0,0.9118,1.3034,0.3916,A
75,0.49684,0.1,2,0.32,0.37894,0.67368,75,1.97051,-0.8,-0.40421,0.10105,5,lapse_rate,1.0,True,0.313,0,False,left,-0.08421,1.4303,1.3966,-0.0337,0.4882,0.63,0.1417,A
76,0.49684,0.1,2,0.31158,0.44631,0.79999,76,2.84629,0.586,0.29473,0.79157,5,2D1U,2.0,True,0.178,10,True,right,0.16842,1.6772,2.3273,0.6501,0.3603,0.7521,0.3918,A
77,0.49684,1.2,2,0.22737,0.38736,0.61473,77,2.62734,0.8,0.40421,0.90104,5,lapse_rate,2.0,True,0.214,0,False,right,-0.08421,1.3454,2.2031,0.8576,0.2281,0.7035,0.4754,A
78,0.49684,1.2,2,0.42105,0.23579,0.85894,78,2.77893,0.532,0.26947,0.76631,5,2D1U,1.0,False,1.061,10,False,left,0.16842,1.9071,2.632,0.7249,0.2993,1.0235,0.7241,A
79,0.49684,1.2,2,0.27789,0.33684,0.82526,79,2.23998,-0.4,-0.2021,0.30315,5,2U1D,1.0,True,0.424,7,False,left,-0.08421,1.6091,1.8757,0.2667,0.2842,0.7592,0.475,A
80,0.49684,0.1,1,0.42947,0.38736,0.42947,80,2.04629,-0.4,-0.2021,0.30315,5,2U1D,2.0,True,0.345,7,False,right,0.16842,0.5536,0.587,0.0334,1.0614,1.4538,0.3924,A
81,0.49684,0.1,2,0.30315,0.41263,0.65684,81,2.66103,0.586,0.29473,0.79157,5,2D1U,2.0,True,0.229,11,True,right,-0.08421,1.3974,2.0477,0.6503,0.4727,0.6144,0.1417,A
82,0.49684,0.1,2,0.35368,0.40421,0.61473,82,2.7705,0.8,0.40421,0.90104,5,lapse_rate,2.0,True,1.44,0,False,right,0.16842,1.5309,2.2894,0.7585,0.3977,0.7893,0.3916,A
83,0.49684,1.2,1,0.22737,0.44631,0.62315,83,2.69471,0.8,0.40421,0.90104,5,lapse_rate,1.0,True,0.978,0,False,left,-0.08421,0.193,1.1514,0.9584,1.7762,2.2515,0.4752,A
84,0.49684,1.2,1,0.39579,0.37894,0.71578,84,2.31577,-0.346,-0.17684,0.32842,5,2U1D,2.0,True,1.263,7,False,right,0.16842,0.3534,0.7454,0.392,1.3369,2.0618,0.7249,A
85,0.49684,1.2,1,0.43789,0.31158,0.5642,85,2.60208,0.586,0.29473,0.79157,5,2D1U,2.0,False,1.11,11,True,right,-0.08421,0.3951,1.2447,0.8496,1.8118,2.2864,0.4746,A
86,0.49684,0.1,2,0.3621,0.34526,0.64841,86,2.66944,0.64,0.32,0.81683,5,2D1U,2.0,True,0.433,11,False,right,0.16842,1.5733,2.2481,0.6748,0.4066,0.7981,0.3915,A
87,0.49684,0.1,1,0.42105,0.32,0.61473,87,1.95367,-0.8,-0.40421,0.10105,5,lapse_rate,2.0,True,1.047,0,False,right,-0.08421,0.5479,0.3813,-0.1666,1.1646,1.3063,0.1416,A
88,0.49684,0.1,2,0.21052,0.27789,0.44631,88,1.75998,-0.346,-0.17684,0.32842,5,2U1D,1.0,True,0.237,7,False,left,0.16842,1.226,1.4176,0.1916,0.2592,0.6512,0.392,A
89,0.49684,1.2,1,0.29473,0.29473,0.40421,89,2.30734,0.64,0.32,0.81683,5,2D1U,1.0,True,0.408,11,False,left,-0.08421,0.2578,1.1332,0.8754,1.5414,2.0161,0.4747,A
90,0.49684,1.2,2,0.43789,0.41263,0.46315,90,2.71155,0.8,0.40421,0.90104,5,lapse_rate,2.0,True,0.415,0,False,right,0.16842,1.531,2.3896,0.8586,0.3142,1.0391,0.7249,A
91,0.49684,1.2,1,0.28631,0.2021,0.69052,91,2.02945,-0.292,-0.14316,0.35368,5,2U1D,1.0,False,0.933,7,False,left,-0.08421,0.2496,0.6659,0.4163,1.3572,1.8323,0.4752,A
92,0.49684,0.1,2,0.43789,0.21895,0.47157,92,2.41682,0.586,0.29473,0.79157,5,2D1U,2.0,True,0.397,12,True,right,0.16842,1.4725,2.1227,0.6503,0.4812,0.8729,0.3917,A
93,0.49684,0.1,2,0.24421,0.35368,0.48842,93,1.91157,-0.346,-0.17684,0.32842,5,2U1D,1.0,True,0.37,8,True,left,-0.08421,1.1745,1.3658,0.1913,0.416,0.5577,0.1417,A
94,0.49684,1.2,2,0.21895,0.37894,0.70736,94,2.70313,0.8,0.40421,0.90104,5,lapse_rate,2.0,True,0.152,0,False,right,0.16842,1.5566,2.4149,0.8583,0.0979,0.8233,0.7254,A
95,0.49684,0.1,2,0.3621,0.3621,0.60631,95,2.72839,0.8,0.40421,0.90104,5,lapse_rate,2.0,True,0.185,0,False,right,-0.08421,1.4062,2.1644,0.7582,0.5314,0.6734,0.142,A
96,0.49684,1.2,1,0.24421,0.30315,0.58105,96,2.41682,0.586,0.29473,0.79157,5,2D1U,2.0,False,0.274,12,True,right,0.16842,0.2061,1.0561,0.85,1.514,2.2393,0.7252,A
97,0.49684,1.2,1,0.2021,0.3621,0.78315,97,2.17261,-0.346,-0.17684,0.32842,5,2U1D,2.0,True,0.3,8,True,right,-0.08421,0.1688,0.5604,0.3917,1.3441,1.819,0.4749,A
98,0.49684,0.1,1,0.2021,0.31158,0.42105,98,2.2484,0.64,0.32,0.81683,5,2D1U,1.0,True,0.17,13,True,left,0.16842,0.3323,0.8736,0.5413,1.3406,1.7321,0.3914,A
99,0.49684,0.1,2,0.38736,0.3621,0.58105,99,2.72839,0.8,0.40421,0.90104,5,lapse_rate,2.0,True,0.154,0,False,right,-0.08421,1.4069,2.1653,0.7585,0.5569,0.6989,0.142,A
100,0.49684,0.1,2,0.42105,0.26105,0.82526,100,2.35788,-0.292,-0.14316,0.35368,5,2U1D,1.0,True,0.638,9,True,left,0.16842,1.8094,2.0259,0.2165,0.4678,0.8593,0.3915,A
101,0.49684,1.2,2,0.37052,0.39579,0.79157,101,2.87155,0.64,0.32,0.81683,5,2D1U,2.0,True,0.148,13,True,right,-0.08421,1.6618,2.4367,0.775,0.3702,0.8451,0.4749,A
102,0.49684,0.1,1,0.27789,0.24421,0.85052,102,2.7705,0.8,0.40421,0.90104,5,lapse_rate,1.0,True,0.352,0,False,left,0.16842,0.4072,1.0327,0.6255,1.9238,2.3156,0.3918,A
103,0.49684,1.2,1,0.37894,0.40421,0.70736,103,2.34103,-0.292,-0.14316,0.35368,5,2U1D,2.0,True,0.292,9,True,right,-0.08421,0.3408,0.7578,0.417,1.4657,1.9409,0.4752,A
104,0.49684,0.1,2,0.38736,0.29473,0.40421,104,2.37471,0.586,0.29473,0.79157,5,2D1U,2.0,True,0.291,14,True,right,0.16842,1.3535,2.0033,0.6498,0.4285,0.8199,0.3913,A
105,0.49684,0.1,1,0.26947,0.25263,0.55578,105,2.47576,0.8,0.40421,0.90104,5,lapse_rate,1.0,True,0.26,0,False,left,-0.08421,0.3989,1.0235,0.6245,1.7487,1.8905,0.1418,A
106,0.49684,0.1,1,0.28631,0.33684,0.5221,106,2.02103,-0.238,-0.11789,0.37894,5,2U1D,2.0,True,0.247,9,False,right,0.16842,0.417,0.5251,0.108,1.092,1.4835,0.3915,A
107,0.49684,1.2,1,0.25263,0.21895,0.59789,107,2.35788,0.586,0.29473,0.79157,5,2D1U,1.0,True,0.356,14,True,left,-0.08421,0.2152,1.0651,0.8499,1.6651,2.14,0.4749,A
108,0.49684,1.2,1,0.41263,0.28631,0.8421,108,2.41682,-0.238,-0.11789,0.37894,5,2U1D,2.0,True,0.234,9,False,right,0.16842,0.373,0.815,0.4419,1.5317,2.2568,0.7252,A
109,0.49684,0.1,2,0.24421,0.23579,0.62315,109,2.50103,0.8,0.40421,0.90104,5,lapse_rate,2.0,True,0.409,0,False,right,-0.08421,1.3065,2.0645,0.758,0.4147,0.5565,0.1418,A
110,0.49684,0.1,1,0.32,0.37052,0.63157,110,2.22314,-0.184,-0.09263,0.40421,5,2U1D,1.0,False,0.497,9,False,left,0.16842,0.4487,0.5823,0.1336,1.2572,1.6489,0.3917,A
111,0.49684,0.1,2,0.32,0.31158,0.87578,111,2.77051,0.532,0.26947,0.76631,5,2D1U,2.0,True,0.269,14,False,right,-0.08421,1.6285,2.2538,0.6254,0.4872,0.6286,0.1414,A
112,0.49684,0.1,2,0.26105,0.3621,0.54736,112,2.56839,0.8,0.40421,0.90104,5,lapse_rate,2.0,True,0.254,0,False,right,0.16842,1.3699,2.128,0.7582,0.3032,0.6949,0.3917,A
113,0.49684,1.2,1,0.27789,0.25263,0.65684,113,2.58524,0.8,0.40421,0.90104,5,lapse_rate,1.0,True,0.975,0,False,left,-0.08421,0.2373,1.1953,0.958,1.8539,2.329,0.475,A
114,0.49684,1.2,2,0.24421,0.3621,0.40421,114,1.8863,-0.238,-0.11789,0.37894,5,2U1D,2.0,False,0.347,10,True,right,0.16842,1.2809,1.6226,0.3416,0.1227,0.8471,0.7244,A
115,0.49684,1.2,2,0.37894,0.24421,0.90104,115,2.78734,0.532,0.26947,0.76631,5,2D1U,2.0,True,0.204,14,False,right,-0.08421,1.7841,2.5094,0.7252,0.3842,0.859,0.4748,A
116,0.49684,0.1,1,0.26105,0.33684,0.85052,116,2.6863,0.478,0.23579,0.74105,5,2D1U,1.0,True,0.462,14,False,left,0.16842,0.394,0.8606,0.4666,1.7523,2.144,0.3917,A
117,0.49684,0.1,1,0.42947,0.35368,0.69052,117,2.32419,-0.292,-0.14316,0.35368,5,2U1D,2.0,True,0.29,10,False,right,-0.08421,0.5541,0.6372,0.0831,1.496,1.6376,0.1416,A
118,0.49684,0.1,1,0.40421,0.27789,0.62315,118,2.70313,0.8,0.40421,0.90104,5,lapse_rate,1.0,True,0.199,0,False,left,0.16842,0.5289,1.1538,0.6249,1.8205,2.2123,0.3917,A
119,0.49684,1.2,1,0.30315,0.38736,0.53894,119,1.82734,-0.8,-0.40421,0.10105,5,lapse_rate,2.0,True,0.234,0,False,right,-0.08421,0.2652,0.4322,0.167,0.9734,1.4485,0.4751,A
120,0.49684,1.2,1,0.25263,0.27789,0.67368,120,2.44209,0.478,0.23579,0.74105,5,2D1U,2.0,False,0.728,14,False,right,0.16842,0.2142,1.0142,0.8,1.5643,2.2895,0.7252,A
121,0.49684,1.2,2,0.30315,0.24421,0.47157,121,1.86945,-0.292,-0.14316,0.35368,5,2U1D,1.0,True,0.592,10,False,left,-0.08421,1.2786,1.5953,0.3167,0.3038,0.7785,0.4747,A
122,0.49684,0.1,1,0.23579,0.42947,0.66526,122,2.2063,-0.238,-0.11789,0.37894,5,2U1D,2.0,True,0.266,11,True,right,0.16842,0.3683,0.4767,0.1084,1.185,1.5766,0.3916,A
123,0.49684,0.1,2,0.26947,0.22737,0.69052,123,2.45051,0.532,0.26947,0.76631,5,2D1U,2.0,True,0.178,15,True,right,-0.08421,1.4011,2.0257,0.6246,0.4423,0.584,0.1417,A
124,0.49684,1.2,2,0.31158,0.39579,0.66526,124,2.77051,0.8,0.40421,0.90104,5,lapse_rate,2.0,True,0.11,0,False,right,0.16842,1.606,2.4645,0.8585,0.1894,0.9147,0.7253,A
125,0.49684,0.1,1,0.42947,0.21895,0.74105,125,1.98736,-0.8,-0.40421,0.10105,5,lapse_rate,1.0,False,0.63,0,False,left,-0.08421,0.556,0.3895,-0.1665,1.2977,1.4392,0.1415,A
126,0.49684,1.2,1,0.37894,0.43789,0.70736,126,2.39997,-0.238,-0.11789,0.37894,5,2U1D,2.0,True,0.158,11,True,right,0.16842,0.3369,0.7786,0.4417,1.3615,2.0867,0.7252,A
127,0.49684,1.2,2,0.31158,0.23579,0.45473,127,2.26525,0.532,0.26947,0.76631,5,2D1U,2.0,True,0.288,15,True,right,-0.08421,1.2746,1.9994,0.7248,0.3162,0.7912,0.475,A
128,0.49684,0.1,2,0.42105,0.31158,0.83368,128,2.96419,0.8,0.40421,0.90104,5,lapse_rate,2.0,True,0.292,0,False,right,0.16842,1.8193,2.5775,0.7581,0.4693,0.8611,0.3918,A
129,0.49684,0.1,2,0.21895,0.21052,0.86736,129,2.19788,-0.184,-0.09263,0.40421,5,2U1D,2.0,False,0.385,11,False,right,-0.08421,1.5257,1.7925,0.2668,0.3921,0.5339,0.1418,A
130,0.49684,0.1,2,0.27789,0.26947,0.77473,130,2.55998,0.478,0.23579,0.74105,5,2D1U,2.0,True,0.723,16,True,right,0.16842,1.6156,2.2156,0.6,0.3242,0.7157,0.3915,A
131,0.49684,1.2,1,0.42947,0.34526,0.60631,131,2.25682,-0.238,-0.11789,0.37894,5,2U1D,1.0,False,1.888,12,True,left,-0.08421,0.3912,0.8326,0.4414,1.4408,1.9158,0.475,A
132,0.49684,1.2,1,0.39579,0.40421,0.71578,132,2.75367,0.478,0.23579,0.74105,5,2D1U,1.0,True,0.381,16,True,left,0.16842,0.3604,1.1604,0.8,1.7521,2.477,0.7249,A
133,0.49684,0.1,1,0.35368,0.38736,0.42105,133,1.75998,-0.8,-0.40421,0.10105,5,lapse_rate,2.0,True,0.189,0,False,right,-0.08421,0.4843,0.318,-0.1663,0.909,1.0509,0.1419,A
134,0.49684,0.1,2,0.28631,0.41263,0.70736,134,2.25682,-0.292,-0.14316,0.35368,5,2U1D,1.0,True,0.589,12,False,left,0.16842,1.5595,1.7759,0.2164,0.3344,0.7262,0.3918,A
135,0.49684,1.2,1,0.25263,0.22737,0.53052,135,2.4084,0.8,0.40421,0.90104,5,lapse_rate,2.0,False,0.299,0,False,right,-0.08421,0.2182,1.1771,0.9589,1.7107,2.1854,0.4747,A
136,0.49684,0.1,2,0.28631,0.39579,0.50526,136,2.39998,0.424,0.21052,0.71578,5,2D1U,2.0,True,0.245,16,False,right,0.16842,1.3534,1.9284,0.575,0.3285,0.7199,0.3915,A
137,0.49684,1.2,2,0.39579,0.22737,0.73262,137,2.2063,-0.292,-0.14316,0.35368,5,2U1D,1.0,True,1.141,12,False,left,-0.08421,1.629,1.9459,0.3169,0.3958,0.8705,0.4747,A
138,0.49684,1.2,2,0.23579,0.32842,0.82526,138,2.60209,0.424,0.21052,0.71578,5,2D1U,2.0,True,0.239,16,False,right,0.16842,1.6901,2.3644,0.6743,0.1146,0.8396,0.725,A
139,0.49684,0.1,1,0.38736,0.42947,0.62315,139,2.83786,0.8,0.40421,0.90104,5,lapse_rate,1.0,True,0.323,0,False,left,-0.08421,0.5118,1.1368,0.625,1.9284,2.0702,0.1418,A
140,0.49684,0.1,2,0.40421,0.25263,0.41263,140,1.94525,-0.238,-0.11789,0.37894,5,2U1D,1.0,True,0.293,13,True,left,0.16842,1.3813,1.6227,0.2414,0.4481,0.8397,0.3916,A
141,0.49684,1.2,2,0.37894,0.27789,0.53894,141,2.59365,0.8,0.40421,0.90104,5,lapse_rate,2.0,True,0.156,0,False,right,-0.08421,1.4272,2.2854,0.8582,0.3853,0.861,0.4756,A
142,0.49684,0.1,2,0.28631,0.28631,0.7242,142,2.47576,0.37,0.18526,0.6821,5,2D1U,2.0,True,0.318,16,False,right,0.16842,1.5762,2.118,0.5417,0.3342,0.7257,0.3915,A
143,0.49684,1.2,1,0.23579,0.30315,0.62315,143,2.03787,-0.238,-0.11789,0.37894,5,2U1D,1.0,False,0.732,13,True,left,-0.08421,0.1996,0.6417,0.4421,1.2664,1.7417,0.4753,A
144,0.49684,1.2,1,0.32842,0.22737,0.73262,144,2.46735,0.37,0.18526,0.6821,5,2D1U,2.0,False,0.925,16,False,right,0.16842,0.2927,1.0344,0.7417,1.6426,2.3674,0.7248,A
145,0.49684,1.2,1,0.43789,0.26105,0.85052,145,2.94734,0.8,0.40421,0.90104,5,lapse_rate,1.0,True,0.612,0,False,left,-0.08421,0.3961,1.3544,0.9584,2.2042,2.6791,0.4749,A
146,0.49684,1.2,2,0.28631,0.34526,0.50526,146,2.53471,0.8,0.40421,0.90104,5,lapse_rate,2.0,True,0.114,0,False,right,0.16842,1.4263,2.2844,0.8581,0.1683,0.8931,0.7248,A
147,0.49684,0.1,1,0.44631,0.44631,0.62315,147,2.72839,0.424,0.21052,0.71578,5,2D1U,1.0,True,0.195,17,True,left,-0.08421,0.5721,1.0141,0.4419,1.8053,1.947,0.1417,A
148,0.49684,0.1,1,0.3621,0.44631,0.50526,148,2.16419,-0.292,-0.14316,0.35368,5,2U1D,2.0,True,0.331,14,True,right,0.16842,0.4898,0.573,0.0832,1.123,1.5149,0.3919,A
149,0.49684,1.2,1,0.30315,0.38736,0.70736,149,2.24839,-0.292,-0.14316,0.35368,5,2U1D,2.0,True,0.483,14,True,right,-0.08421,0.264,0.6805,0.4165,1.3884,1.8638,0.4754,A
150,0.49684,1.2,1,0.31158,0.26947,0.71578,150,2.50945,0.424,0.21052,0.71578,5,2D1U,1.0,True,1.509,17,True,left,0.16842,0.271,1.0467,0.7757,1.638,2.3631,0.7251,A
151,0.49684,0.1,2,0.26947,0.21052,0.53894,151,1.61682,-0.8,-0.40421,0.10105,5,lapse_rate,1.0,True,0.443,0,False,left,-0.08421,1.2472,1.2136,-0.0335,0.439,0.5809,0.1419,A
152,0.49684,0.1,1,0.43789,0.43789,0.89262,152,2.64418,-0.238,-0.11789,0.37894,5,2U1D,2.0,True,0.265,15,True,right,0.16842,0.5623,0.6707,0.1084,1.6038,1.9957,0.392,A
153,0.49684,0.1,1,0.44631,0.42105,0.79157,153,2.83787,0.37,0.18526,0.6821,5,2D1U,1.0,True,0.195,18,True,left,-0.08421,0.5767,0.9845,0.4078,1.9428,2.0848,0.142,A
154,0.49684,0.1,2,0.32,0.31158,0.61473,154,2.64419,0.8,0.40421,0.90104,5,lapse_rate,2.0,True,0.19,0,False,right,0.16842,1.5007,2.2587,0.7581,0.3671,0.7585,0.3914,A
155,0.49684,1.2,2,0.27789,0.40421,0.58947,155,2.45051,0.37,0.18526,0.6821,5,2D1U,2.0,True,0.45,18,True,right,-0.08421,1.378,2.0201,0.642,0.2862,0.7614,0.4752,A
156,0.49684,1.2,1,0.23579,0.27789,0.76631,156,2.15577,-0.238,-0.11789,0.37894,5,2U1D,1.0,False,0.862,15,True,left,0.16842,0.1979,0.6397,0.4418,1.2819,2.0061,0.7242,A
157,0.49684,1.2,2,0.30315,0.42947,0.74947,157,2.87997,0.8,0.40421,0.90104,5,lapse_rate,2.0,True,0.135,0,False,right,-0.08421,1.5583,2.4167,0.8584,0.3086,0.7832,0.4746,A
158,0.49684,0.1,2,0.23579,0.3621,0.57263,158,2.3242,0.316,0.16,0.65684,5,2D1U,2.0,True,0.23,18,False,right,0.16842,1.3772,1.894,0.5168,0.2856,0.6777,0.3922,A
159,0.49684,0.1,1,0.26105,0.3621,0.61473,159,2.0884,-0.292,-0.14316,0.35368,5,2U1D,2.0,True,0.253,16,True,right,-0.08421,0.3874,0.4711,0.0837,1.2538,1.3959,0.1421,A
160,0.49684,0.1,2,0.2021,0.22737,0.54736,160,1.57472,-0.8,-0.40421,0.10105,5,lapse_rate,1.0,True,0.471,0,False,left,0.16842,1.3118,1.2783,-0.0335,0.2452,0.637,0.3917,A
161,0.49684,1.2,2,0.31158,0.33684,0.5221,161,2.02104,-0.292,-0.14316,0.35368,5,2U1D,1.0,True,0.847,16,True,left,-0.08421,1.3424,1.6593,0.3169,0.3179,0.7931,0.4752,A
162,0.49684,1.2,2,0.26105,0.32842,0.74105,162,2.4842,0.316,0.16,0.65684,5,2D1U,2.0,True,0.109,18,False,right,0.16842,1.6311,2.2475,0.6164,0.1395,0.8647,0.7253,A
163,0.49684,0.1,1,0.34526,0.23579,0.49684,163,1.67578,-0.8,-0.40421,0.10105,5,lapse_rate,2.0,True,0.289,0,False,right,-0.08421,0.472,0.3049,-0.1671,0.9722,1.1133,0.1411,A
164,0.49684,1.2,1,0.33684,0.24421,0.49684,164,1.67578,-0.8,-0.40421,0.10105,5,lapse_rate,2.0,True,0.225,0,False,right,0.16842,0.3005,0.467,0.1665,0.842,1.5671,0.7251,A
165,0.49684,0.1,2,0.37052,0.44631,0.5221,165,2.21471,-0.238,-0.11789,0.37894,5,2U1D,1.0,True,0.176,17,True,left,-0.08421,1.3325,1.5742,0.2417,0.5409,0.6824,0.1415,A
166,0.49684,0.1,2,0.26105,0.26947,0.48,166,2.13893,0.262,0.13474,0.63157,5,2D1U,2.0,True,0.196,18,False,right,0.16842,1.3065,1.7984,0.4919,0.3067,0.6981,0.3915,A
167,0.49684,1.2,2,0.26947,0.32842,0.58105,167,2.05472,-0.238,-0.11789,0.37894,5,2U1D,2.0,False,0.242,17,True,right,-0.08421,1.3594,1.7008,0.3415,0.2755,0.7505,0.4751,A
168,0.49684,1.2,2,0.33684,0.3621,0.7242,168,2.02103,-0.8,-0.40421,0.10105,5,lapse_rate,1.0,True,0.582,0,False,left,0.16842,1.6935,1.7602,0.0667,0.2181,0.9436,0.7255,A
169,0.49684,1.2,2,0.26105,0.34526,0.77473,169,2.50945,0.262,0.13474,0.63157,5,2D1U,2.0,True,0.117,18,False,right,-0.08421,1.539,2.1304,0.5914,0.2641,0.739,0.4749,A
170,0.49684,0.1,2,0.32842,0.35368,0.77473,170,2.55998,0.208,0.10105,0.60631,5,2D1U,2.0,True,0.234,18,False,right,0.16842,1.6652,2.1322,0.467,0.3739,0.7657,0.3918,A
171,0.49684,0.1,2,0.26947,0.42947,0.85894,171,2.4084,-0.292,-0.14316,0.35368,5,2U1D,1.0,True,0.19,18,True,left,-0.08421,1.5648,1.7816,0.2168,0.4401,0.5814,0.1413,A
172,0.49684,1.2,1,0.25263,0.27789,0.48,172,2.11367,0.208,0.10105,0.60631,5,2D1U,2.0,False,0.183,18,False,right,0.16842,0.2123,0.8787,0.6665,1.237,1.9624,0.7254,A
173,0.49684,1.2,2,0.38736,0.26947,0.50526,173,2.2905,0.262,0.13474,0.63157,5,2D1U,2.0,True,0.108,19,True,right,-0.08421,1.3957,1.9874,0.5917,0.3873,0.8626,0.4752,A
174,0.49684,0.1,1,0.32842,0.32842,0.71578,174,2.22314,-0.292,-0.14316,0.35368,5,2U1D,2.0,True,0.193,18,True,right,0.16842,0.4572,0.5403,0.0832,1.2988,1.6904,0.3916,A
175,0.49684,0.1,2,0.22737,0.34526,0.79157,175,2.49261,0.262,0.13474,0.63157,5,2D1U,2.0,True,0.251,19,True,right,-0.08421,1.4587,1.95,0.4913,0.4004,0.542,0.1416,A
176,0.49684,1.2,2,0.23579,0.44631,0.61473,176,2.39998,0.208,0.10105,0.60631,5,2D1U,2.0,True,0.523,20,True,right,0.16842,1.4836,2.0502,0.5666,0.1166,0.8419,0.7253,A
177,0.49684,1.2,2,0.29473,0.33684,0.48842,177,2.22314,0.208,0.10105,0.60631,5,2D1U,2.0,True,0.11,20,True,right,-0.08421,1.2889,1.8553,0.5664,0.297,0.7724,0.4754,A
178,0.49684,0.1,2,0.41263,0.22737,0.8421,178,2.35788,-0.238,-0.11789,0.37894,5,2U1D,2.0,False,0.495,19,True,right,0.16842,1.8192,2.0605,0.2413,0.4607,0.8525,0.3918,A
179,0.49684,0.1,2,0.28631,0.32842,0.57263,179,2.03788,-0.292,-0.14316,0.35368,5,2U1D,1.0,True,0.437,20,True,left,-0.08421,1.3016,1.5186,0.2171,0.4602,0.6019,0.1417,A
180,0.49684,1.2,2,0.28631,0.30315,0.45473,180,2.12208,0.154,0.07579,0.58105,5,2D1U,1.0,False,0.381,20,False,left,0.16842,1.3766,1.9185,0.5419,0.1681,0.8937,0.7255,A
181,0.49684,1.2,2,0.3621,0.22737,0.57263,181,2.01262,-0.292,-0.14316,0.35368,5,2U1D,1.0,True,0.529,20,True,left,-0.08421,1.4375,1.7539,0.3164,0.362,0.8374,0.4753,A
182,0.49684,0.1,1,0.37894,0.29473,0.58105,182,2.35787,0.208,0.10105,0.60631,5,2D1U,2.0,False,0.214,21,True,right,0.16842,0.5091,0.8424,0.3332,1.4673,1.8591,0.3918,A
183,0.49684,0.1,1,0.21052,0.32842,0.8421,183,2.25682,-0.238,-0.11789,0.37894,5,2U1D,2.0,True,0.567,21,True,right,-0.08421,0.3436,0.4522,0.1086,1.4604,1.6023,0.1419,A
184,0.49684,1.2,2,0.37894,0.40421,0.59789,184,2.50945,0.262,0.13474,0.63157,5,2D1U,2.0,True,0.112,21,False,right,0.16842,1.61,2.2015,0.5915,0.2599,0.9848,0.7248,A
185,0.49684,1.2,1,0.31158,0.26105,0.82526,185,2.5263,0.262,0.13474,0.63157,5,2D1U,1.0,True,0.284,21,False,left,-0.08421,0.2733,0.9649,0.6917,1.79,2.2648,0.4748,A
186,0.49684,0.1,1,0.21895,0.25263,0.85894,186,2.43367,0.208,0.10105,0.60631,5,2D1U,1.0,True,0.302,22,True,left,0.16842,0.3513,0.6845,0.3332,1.5846,1.9761,0.3915,A
187,0.49684,0.1,1,0.23579,0.2021,0.8421,187,2.15577,-0.238,-0.11789,0.37894,5,2U1D,2.0,True,0.257,21,True,right,-0.08421,0.3655,0.474,0.1084,1.4817,1.6236,0.1419,A
188,0.49684,1.2,1,0.22737,0.28631,0.71578,188,2.13051,-0.184,-0.09263,0.40421,5,2U1D,2.0,True,0.251,21,False,right,0.16842,0.1889,0.6558,0.4669,1.2478,1.9723,0.7246,A
189,0.49684,1.2,1,0.39579,0.21052,0.81683,189,2.32419,-0.184,-0.09263,0.40421,5,2U1D,1.0,False,0.928,21,False,left,-0.08421,0.3592,0.8256,0.4664,1.6425,2.1174,0.4749,A
190,0.49684,0.1,2,0.40421,0.44631,0.66526,190,2.61893,0.208,0.10105,0.60631,5,2D1U,2.0,True,0.231,22,True,right,0.16842,1.6295,2.0963,0.4669,0.4464,0.8381,0.3917,A
191,0.49684,0.1,2,0.37052,0.31158,0.59789,191,2.35788,0.154,0.07579,0.58105,5,2D1U,2.0,True,0.916,22,False,right,-0.08421,1.4034,1.8453,0.4419,0.5368,0.6785,0.1418,A
192,0.49684,1.2,1,0.41263,0.32842,0.51368,192,2.33262,0.154,0.07579,0.58105,5,2D1U,1.0,True,0.329,22,False,left,0.16842,0.3747,1.0162,0.6416,1.4079,2.1328,0.7248,A
193,0.49684,1.2,2,0.32842,0.41263,0.69052,193,2.30735,-0.238,-0.11789,0.37894,5,2U1D,1.0,True,0.482,22,True,left,-0.08421,1.5277,1.8694,0.3417,0.3365,0.8109,0.4745,A
194,0.49684,0.1,1,0.22737,0.22737,0.80841,194,2.13893,-0.238,-0.11789,0.37894,5,2U1D,2.0,True,0.429,22,True,right,0.16842,0.3532,0.4616,0.1084,1.3117,1.7029,0.3912,A
195,0.49684,0.1,1,0.30315,0.39579,0.46315,195,2.20629,0.1,0.05053,0.54736,5,2D1U,1.0,True,0.48,22,False,left,-0.08421,0.429,0.7041,0.2751,1.3374,1.4791,0.1417,A
196,0.49684,1.2,2,0.40421,0.30315,0.5221,196,2.27366,0.1,0.05053,0.54736,5,2D1U,2.0,True,0.17,22,False,right,0.16842,1.5539,2.062,0.5081,0.2788,1.0038,0.725,A
197,0.49684,1.2,2,0.42105,0.35368,0.43789,197,2.23156,0.046,0.02526,0.5221,5,2D1U,2.0,True,0.209,22,False,right,-0.08421,1.3696,1.8529,0.4833,0.4282,0.903,0.4748,A
198,0.49684,0.1,1,0.41263,0.24421,0.5642,198,2.23998,0.046,0.02526,0.5221,5,2D1U,1.0,True,0.291,22,False,left,0.16842,0.5437,0.7943,0.2506,1.4021,1.7939,0.3917,A
199,0.49684,0.1,1,0.25263,0.21895,0.73262,199,2.10525,-0.184,-0.09263,0.40421,5,2U1D,2.0,True,0.346,23,True,right,-0.08421,0.3816,0.5147,0.1331,1.4148,1.5564,0.1416,A
200,0.49684,1.2,2,0.28631,0.37052,0.73262,200,2.38313,-0.008,0.0,0.49684,5,2D1U,1.0,False,0.553,22,False,left,0.16842,1.6466,2.1047,0.4581,0.1634,0.8887,0.7253,A
201,0.49684,1.2,2,0.2021,0.25263,0.70736,201,2.06314,-0.184,-0.09263,0.40421,5,2U1D,1.0,True,0.601,23,True,left,-0.08421,1.4165,1.7836,0.3671,0.2084,0.6835,0.4752,A
202,0.49684,0.1,2,0.38736,0.35368,0.54736,202,2.25681,-0.062,-0.03368,0.47157,5,2D1U,1.0,True,0.401,23,True,left,0.16842,1.497,1.8303,0.3333,0.4303,0.8219,0.3916,A
203,0.49684,0.1,2,0.40421,0.27789,0.79999,203,2.4505,-0.062,-0.03368,0.47157,5,2D1U,2.0,False,1.382,23,True,right,-0.08421,1.6448,1.9781,0.3333,0.5781,0.7202,0.1421,A
204,0.49684,1.2,1,0.32842,0.35368,0.41263,204,2.02946,-0.13,-0.06737,0.43789,5,2U1D,2.0,True,1.853,23,False,right,0.16842,0.2897,0.7901,0.5003,1.0816,1.8066,0.7249,A
205,0.49684,1.2,2,0.3621,0.42105,0.64841,205,2.36629,-0.116,-0.05895,0.43789,5,2D1U,1.0,True,0.182,23,False,left,-0.08421,1.5127,1.9127,0.4,0.3632,0.8375,0.4744,A
206,0.49684,0.1,2,0.40421,0.32,0.67368,206,2.33262,-0.13,-0.06737,0.43789,5,2U1D,1.0,True,0.191,23,False,left,0.16842,1.6383,1.9382,0.2999,0.4466,0.8383,0.3917,A
207,0.49684,0.1,2,0.23579,0.3621,0.61473,207,2.14735,-0.116,-0.05895,0.43789,5,2D1U,2.0,False,0.23,23,False,right,-0.08421,1.2897,1.5898,0.3001,0.4068,0.5483,0.1415,A
208,0.49684,1.2,2,0.3621,0.40421,0.8842,208,2.55998,-0.17,-0.08421,0.41263,5,2D1U,1.0,True,0.298,23,False,left,0.16842,1.872,2.2471,0.3751,0.2396,0.9637,0.7242,A
209,0.49684,1.2,2,0.3621,0.37894,0.6821,209,2.38313,-0.076,-0.0421,0.46315,5,2U1D,1.0,True,0.365,23,False,left,-0.08421,1.5471,1.9721,0.425,0.3639,0.8388,0.4749,A
210,0.49684,0.1,1,0.33684,0.21052,0.43789,210,1.89472,-0.17,-0.08421,0.41263,5,2D1U,2.0,True,0.268,23,False,right,0.16842,0.4634,0.6056,0.1422,1.0884,1.4799,0.3915,A
211,0.49684,0.1,1,0.42947,0.32842,0.57263,211,2.26525,-0.116,-0.05895,0.43789,5,2D1U,1.0,False,0.209,24,True,left,-0.08421,0.5539,0.7206,0.1667,1.4621,1.6036,0.1415,A
212,0.49684,1.2,2,0.33684,0.23579,0.45473,212,1.93683,-0.17,-0.08421,0.41263,5,2D1U,1.0,True,0.558,25,True,left,0.16842,1.4207,1.796,0.3753,0.2127,0.9379,0.7252,A
213,0.49684,1.2,2,0.39579,0.37052,0.6821,213,2.4084,-0.076,-0.0421,0.46315,5,2U1D,2.0,False,0.164,23,False,right,-0.08421,1.5848,2.0105,0.4257,0.4017,0.8762,0.4745,A
214,0.49684,0.1,2,0.29473,0.3621,0.77473,214,2.34103,-0.17,-0.08421,0.41263,5,2D1U,1.0,True,0.267,25,True,left,0.16842,1.6304,1.9058,0.2754,0.3393,0.7307,0.3915,A
215,0.49684,0.1,2,0.21895,0.41263,0.50526,215,2.07157,-0.116,-0.05895,0.43789,5,2D1U,2.0,False,0.146,26,True,right,-0.08421,1.1689,1.469,0.3,0.3943,0.5357,0.1413,A
216,0.49684,1.2,1,0.25263,0.3621,0.75789,216,2.30735,-0.13,-0.06737,0.43789,5,2U1D,2.0,True,41.322,24,True,right,0.16842,0.2164,0.7159,0.4995,1.3494,2.0742,0.7248,A
217,0.49684,1.2,1,0.42105,0.2021,0.85052,217,2.38314,-0.17,-0.08421,0.41263,5,2D1U,1.0,False,0.753,27,True,left,-0.08421,0.3855,0.8605,0.475,1.7105,2.1852,0.4747,A
218,0.49684,0.1,1,0.22737,0.21052,0.74947,218,2.07156,-0.224,-0.10947,0.38736,5,2D1U,2.0,True,0.268,27,False,right,0.16842,0.3591,0.4758,0.1168,1.2675,1.6589,0.3914,A
219,0.49684,0.1,1,0.21895,0.37894,0.81683,219,2.29892,-0.224,-0.10947,0.38736,5,2D1U,2.0,True,2.216,27,False,right,-0.08421,0.3506,0.4667,0.1161,1.4502,1.5918,0.1417,A
220,0.49684,1.2,2,0.26105,0.42105,0.69052,220,2.30735,-0.13,-0.06737,0.43789,5,2U1D,1.0,True,0.761,24,True,left,0.16842,1.5819,1.9821,0.4002,0.1405,0.8654,0.7249,A
221,0.49684,1.2,2,0.30315,0.39579,0.47157,221,2.1305,-0.076,-0.0421,0.46315,5,2U1D,2.0,False,0.482,25,True,right,-0.08421,1.2844,1.709,0.4247,0.3089,0.7837,0.4748,A
222,0.49684,0.1,1,0.42105,0.23579,0.75789,222,2.3242,-0.17,-0.08421,0.41263,5,2D1U,2.0,True,0.384,28,True,right,0.16842,0.5485,0.69,0.1416,1.4899,1.8817,0.3918,A
223,0.49684,0.1,1,0.37052,0.32,0.48,223,2.10525,-0.13,-0.06737,0.43789,5,2U1D,1.0,False,0.345,26,True,left,-0.08421,0.4981,0.6646,0.1665,1.3143,1.4562,0.1418,A
224,0.49684,1.2,1,0.26947,0.32842,0.45473,224,1.96209,-0.17,-0.08421,0.41263,5,2D1U,2.0,True,0.173,28,True,right,0.16842,0.2311,0.7058,0.4747,1.0392,1.7646,0.7254,A
225,0.49684,1.2,2,0.28631,0.43789,0.78315,225,2.44208,-0.116,-0.05895,0.43789,5,2D1U,2.0,False,0.369,28,False,right,-0.08421,1.5742,1.9742,0.4,0.2909,0.7661,0.4752,A
226,0.49684,0.1,1,0.40421,0.33684,0.59789,226,2.23999,-0.184,-0.09263,0.40421,5,2U1D,2.0,True,0.59,26,False,right,0.16842,0.5298,0.663,0.1332,1.3048,1.6961,0.3914,A
227,0.49684,0.1,2,0.42947,0.39579,0.51368,227,2.24841,-0.17,-0.08421,0.41263,5,2D1U,1.0,True,0.129,29,True,left,-0.08421,1.3801,1.6553,0.2752,0.5965,0.7383,0.1418,A
228,0.49684,1.2,2,0.34526,0.32,0.78315,228,2.35788,-0.17,-0.08421,0.41263,5,2D1U,1.0,True,0.41,29,True,left,0.16842,1.7547,2.1295,0.3748,0.2212,0.9463,0.725,A
229,0.49684,1.2,1,0.32842,0.32842,0.73262,229,2.29051,-0.184,-0.09263,0.40421,5,2U1D,1.0,False,0.732,26,False,left,-0.08421,0.2888,0.7552,0.4664,1.489,1.9632,0.4742,A
230,0.49684,0.1,1,0.26105,0.3621,0.63999,230,2.19787,-0.116,-0.05895,0.43789,5,2D1U,2.0,True,0.162,30,True,right,0.16842,0.389,0.556,0.1671,1.2395,1.6308,0.3913,A
231,0.49684,0.1,2,0.37894,0.26947,0.85894,231,2.38313,-0.238,-0.11789,0.37894,5,2U1D,1.0,True,0.471,26,False,left,-0.08421,1.6711,1.9126,0.2416,0.5459,0.6876,0.1417,A
232,0.49684,1.2,2,0.34526,0.37052,0.51368,232,2.10524,-0.238,-0.11789,0.37894,5,2U1D,1.0,True,0.3,26,False,left,0.16842,1.494,1.8358,0.3418,0.2277,0.9524,0.7247,A
233,0.49684,1.2,2,0.3621,0.30315,0.78315,233,2.38313,-0.116,-0.05895,0.43789,5,2D1U,1.0,True,1.052,30,True,left,-0.08421,1.6526,2.0524,0.3998,0.3695,0.8445,0.475,A
234,0.49684,0.1,1,0.42105,0.40421,0.90104,234,2.62735,-0.184,-0.09263,0.40421,5,2U1D,2.0,True,0.479,27,True,right,0.16842,0.5479,0.6817,0.1338,1.6225,2.0147,0.3922,A
235,0.49684,0.1,2,0.31158,0.21895,0.69894,235,2.19788,-0.062,-0.03368,0.47157,5,2D1U,1.0,True,0.659,30,False,left,-0.08421,1.4508,1.7842,0.3334,0.4844,0.6261,0.1417,A
236,0.49684,1.2,2,0.24421,0.29473,0.70736,236,2.21471,-0.062,-0.03368,0.47157,5,2D1U,2.0,False,0.353,30,False,right,0.16842,1.5787,2.0122,0.4335,0.1202,0.8453,0.7251,A
237,0.49684,1.2,1,0.27789,0.42947,0.63157,237,2.23998,-0.184,-0.09263,0.40421,5,2U1D,2.0,True,0.11,27,True,right,-0.08421,0.2412,0.7066,0.4653,1.3401,1.8146,0.4744,A
238,0.49684,0.1,1,0.3621,0.2021,0.40421,238,1.90314,-0.13,-0.06737,0.43789,5,2U1D,2.0,True,0.222,27,False,right,0.16842,0.4914,0.6582,0.1668,1.108,1.4997,0.3917,A
239,0.49684,0.1,1,0.26105,0.22737,0.86736,239,2.29051,-0.116,-0.05895,0.43789,5,2D1U,2.0,True,0.542,31,True,right,-0.08421,0.39,0.5567,0.1667,1.5902,1.7319,0.1417,A
240,0.49684,1.2,2,0.42105,0.44631,0.6821,240,2.48419,-0.13,-0.06737,0.43789,5,2U1D,2.0,False,0.279,27,False,right,0.16842,1.7348,2.1347,0.3999,0.3011,1.0263,0.7252,A
241,0.49684,1.2,2,0.44631,0.44631,0.53052,241,2.35787,-0.116,-0.05895,0.43789,5,2D1U,2.0,False,0.111,31,True,right,-0.08421,1.4814,1.8812,0.3998,0.4477,0.9229,0.4752,A
242,0.49684,0.1,2,0.32842,0.21895,0.77473,242,2.23157,-0.17,-0.08421,0.41263,5,2D1U,2.0,False,0.248,31,False,right,0.16842,1.6661,1.9409,0.2748,0.3744,0.7661,0.3917,A
243,0.49684,0.1,1,0.42947,0.38736,0.77473,243,2.49261,-0.184,-0.09263,0.40421,5,2U1D,2.0,True,0.107,28,True,right,-0.08421,0.5551,0.6882,0.1331,1.6303,1.772,0.1418,A
244,0.49684,1.2,1,0.41263,0.28631,0.79157,244,2.37471,-0.224,-0.10947,0.38736,5,2D1U,2.0,True,0.11,31,False,right,0.16842,0.3759,0.8261,0.4502,1.4927,2.2175,0.7248,A
245,0.49684,1.2,2,0.21052,0.40421,0.77473,245,2.27366,-0.224,-0.10947,0.38736,5,2D1U,2.0,False,0.976,31,False,right,-0.08421,1.4923,1.8424,0.3501,0.2172,0.6924,0.4752,A
246,0.49684,0.1,2,0.42105,0.32842,0.82526,246,2.47578,-0.184,-0.09263,0.40421,5,2U1D,1.0,True,0.299,28,True,left,0.16842,1.8066,2.0729,0.2664,0.4652,0.8566,0.3913,A
247,0.49684,0.1,1,0.23579,0.27789,0.77473,247,2.14735,-0.278,-0.14316,0.3621,5,2D1U,1.0,False,0.367,31,False,left,-0.08421,0.363,0.4542,0.0912,1.396,1.5379,0.1419,A
248,0.49684,1.2,1,0.42105,0.22737,0.66526,248,2.24841,-0.13,-0.06737,0.43789,5,2U1D,2.0,True,0.272,29,True,right,0.16842,0.381,0.8807,0.4997,1.4227,2.1475,0.7248,A
249,0.49684,1.2,2,0.35368,0.44631,0.50526,249,2.13893,-0.332,-0.16842,0.33684,5,2D1U,1.0,True,0.188,31,False,left,-0.08421,1.3641,1.664,0.2999,0.3558,0.8307,0.475,A
250,0.49684,0.1,2,0.37894,0.33684,0.77473,250,2.32419,-0.332,-0.16842,0.33684,5,2D1U,1.0,True,0.486,31,False,left,0.16842,1.7189,1.9189,0.2,0.4274,0.8192,0.3918,A
251,0.49684,0.1,1,0.41263,0.44631,0.53894,251,2.25682,-0.278,-0.14316,0.3621,5,2D1U,2.0,True,0.111,32,True,right,-0.08421,0.5368,0.6282,0.0914,1.3364,1.4782,0.1419,A
252,0.49684,1.2,2,0.24421,0.41263,0.73262,252,2.32419,-0.13,-0.06737,0.43789,5,2U1D,1.0,True,0.307,29,True,left,0.16842,1.6085,2.0086,0.4001,0.1257,0.8505,0.7249,A
253,0.49684,1.2,2,0.42105,0.23579,0.79999,253,2.41682,-0.076,-0.0421,0.46315,5,2U1D,2.0,False,0.655,29,False,right,-0.08421,1.7263,2.1515,0.4252,0.4262,0.9016,0.4754,A
254,0.49684,0.1,2,0.28631,0.37894,0.55578,254,2.15576,-0.13,-0.06737,0.43789,5,2U1D,1.0,True,0.197,30,True,left,0.16842,1.4029,1.7034,0.3005,0.3283,0.7193,0.391,A
255,0.49684,0.1,2,0.44631,0.28631,0.85052,255,2.44208,-0.278,-0.14316,0.3621,5,2D1U,1.0,True,0.258,32,True,left,-0.08421,1.7338,1.959,0.2252,0.6171,0.7586,0.1415,A
256,0.49684,1.2,1,0.37894,0.28631,0.40421,256,2.00419,-0.13,-0.06737,0.43789,5,2U1D,2.0,True,0.59,30,True,right,0.16842,0.3411,0.8412,0.5001,1.1247,1.8496,0.7249,A
257,0.49684,1.2,2,0.39579,0.43789,0.45473,257,2.2484,-0.076,-0.0421,0.46315,5,2U1D,1.0,True,0.299,31,True,left,-0.08421,1.3563,1.7814,0.4251,0.398,0.8732,0.4753,A
258,0.49684,0.1,2,0.21052,0.3621,0.8421,258,2.37471,-0.076,-0.0421,0.46315,5,2U1D,1.0,True,0.325,31,True,left,0.16842,1.6142,1.9393,0.325,0.256,0.6489,0.393,A
259,0.49684,0.1,1,0.3621,0.42105,0.74947,259,2.41682,-0.224,-0.10947,0.38736,5,2D1U,2.0,True,0.186,32,False,right,-0.08421,0.4869,0.604,0.1171,1.5204,1.662,0.1415,A
260,0.49684,1.2,1,0.43789,0.2021,0.64841,260,2.1726,-0.224,-0.10947,0.38736,5,2D1U,2.0,True,0.3,32,False,right,0.16842,0.4019,0.8517,0.4498,1.3766,2.1013,0.7247,A
261,0.49684,1.2,1,0.27789,0.35368,0.44631,261,2.06314,-0.022,-0.00842,0.48842,5,2U1D,1.0,False,0.367,31,False,left,-0.08421,0.2386,0.7886,0.55,1.2387,1.7134,0.4747,A
262,0.49684,0.1,1,0.32,0.22737,0.80841,262,2.31577,-0.076,-0.0421,0.46315,5,2U1D,2.0,True,0.157,32,True,right,0.16842,0.4458,0.6376,0.1918,1.4876,1.8795,0.3919,A
263,0.49684,0.1,2,0.2021,0.32,0.63157,263,2.11366,-0.076,-0.0421,0.46315,5,2U1D,1.0,True,0.217,32,True,left,-0.08421,1.2731,1.5976,0.3245,0.3728,0.5144,0.1416,A
264,0.49684,1.2,1,0.34526,0.29473,0.71578,264,2.26524,-0.17,-0.08421,0.41263,5,2D1U,2.0,True,0.151,32,False,right,0.16842,0.3053,0.7803,0.475,1.3719,2.0969,0.725,A
265,0.49684,1.2,2,0.24421,0.31158,0.55578,265,2.09683,-0.022,-0.00842,0.48842,5,2U1D,2.0,False,0.245,33,True,right,-0.08421,1.3035,1.7536,0.4501,0.2448,0.7204,0.4756,A
266,0.49684,0.1,1,0.44631,0.43789,0.70736,266,2.55155,-0.076,-0.0421,0.46315,5,2U1D,1.0,False,0.336,34,True,left,0.16842,0.5763,0.7686,0.1924,1.5178,1.9095,0.3917,A
267,0.49684,0.1,2,0.40421,0.41263,0.54736,267,2.27367,-0.17,-0.08421,0.41263,5,2D1U,1.0,True,0.297,32,False,left,-0.08421,1.3946,1.6695,0.2749,0.5779,0.7196,0.1417,A
268,0.49684,1.2,2,0.37894,0.37052,0.55578,268,2.23997,-0.13,-0.06737,0.43789,5,2U1D,1.0,True,0.547,34,False,left,0.16842,1.5674,1.9676,0.4002,0.259,0.9845,0.7255,A
269,0.49684,1.2,1,0.26947,0.23579,0.77473,269,2.21472,-0.13,-0.06737,0.43789,5,2U1D,2.0,True,0.231,34,False,right,-0.08421,0.2305,0.7304,0.4999,1.5056,1.9808,0.4752,A
270,0.49684,0.1,2,0.22737,0.2021,0.87578,270,2.26524,-0.076,-0.0421,0.46315,5,2U1D,1.0,True,0.26,35,True,left,0.16842,1.6669,1.9917,0.3248,0.2752,0.6668,0.3916,A
271,0.49684,0.1,1,0.32842,0.39579,0.53894,271,2.19788,-0.116,-0.05895,0.43789,5,2D1U,1.0,False,0.318,32,False,left,-0.08421,0.4567,0.6233,0.1666,1.3321,1.4735,0.1415,A
272,0.49684,1.2,1,0.38736,0.24421,0.63157,272,2.22313,-0.076,-0.0421,0.46315,5,2U1D,2.0,True,0.444,35,True,right,0.16842,0.3524,0.8769,0.5245,1.3855,2.1102,0.7247,A
273,0.49684,1.2,2,0.35368,0.30315,0.42947,273,1.99577,-0.17,-0.08421,0.41263,5,2D1U,1.0,True,0.247,33,True,left,-0.08421,1.29,1.6645,0.3745,0.3561,0.831,0.4748,A
274,0.49684,0.1,2,0.42105,0.2021,0.44631,274,2.05472,-0.022,-0.00842,0.48842,5,2U1D,1.0,True,0.574,35,False,left,0.16842,1.4324,1.782,0.3496,0.4655,0.857,0.3915,A
275,0.49684,0.1,1,0.41263,0.22737,0.5221,275,2.07157,-0.17,-0.08421,0.41263,5,2D1U,2.0,True,0.16,33,True,right,-0.08421,0.5413,0.6829,0.1416,1.3744,1.5162,0.1417,A
276,0.49684,1.2,1,0.26947,0.31158,0.77473,276,2.29051,-0.116,-0.05895,0.43789,5,2D1U,1.0,False,0.477,34,True,left,0.16842,0.2313,0.7313,0.5,1.3812,2.1065,0.7252,A
277,0.49684,1.2,2,0.22737,0.35368,0.79999,277,2.3663,-0.022,-0.00842,0.48842,5,2U1D,2.0,False,0.283,35,False,right,-0.08421,1.5322,1.982,0.4498,0.2321,0.707,0.4749,A
278,0.49684,0.1,1,0.26105,0.26105,0.85052,278,2.28209,-0.17,-0.08421,0.41263,5,2D1U,2.0,True,0.263,35,True,right,0.16842,0.3918,0.5334,0.1415,1.425,1.8168,0.3918,A
279,0.49684,0.1,1,0.40421,0.25263,0.69052,279,2.25683,-0.17,-0.08421,0.41263,5,2D1U,2.0,True,0.534,35,True,right,-0.08421,0.5319,0.6739,0.142,1.532,1.6734,0.1414,A
280,0.49684,1.2,2,0.3621,0.21052,0.53894,280,2.07155,-0.076,-0.0421,0.46315,5,2U1D,2.0,False,0.506,36,True,right,0.16842,1.5325,1.9578,0.4253,0.2412,0.9661,0.7249,A
281,0.49684,1.2,2,0.25263,0.43789,0.85052,281,2.47577,-0.116,-0.05895,0.43789,5,2D1U,1.0,True,0.269,36,True,left,-0.08421,1.605,2.0051,0.4002,0.2551,0.7301,0.475,A
282,0.49684,0.1,1,0.32,0.32,0.44631,282,2.02104,-0.13,-0.06737,0.43789,5,2U1D,2.0,True,0.378,36,False,right,0.16842,0.447,0.6137,0.1667,1.1053,1.4968,0.3916,A
283,0.49684,0.1,2,0.37894,0.42947,0.69052,283,2.43366,-0.13,-0.06737,0.43789,5,2U1D,2.0,False,0.202,36,False,right,-0.08421,1.5063,1.8059,0.2996,0.5476,0.6893,0.1417,A
284,0.49684,1.2,2,0.39579,0.26105,0.55578,284,2.14735,-0.116,-0.05895,0.43789,5,2D1U,1.0,True,0.407,36,True,left,0.16842,1.5795,1.9797,0.4001,0.2713,0.9965,0.7252,A
285,0.49684,1.2,2,0.34526,0.30315,0.71578,285,2.26524,-0.184,-0.09263,0.40421,5,2U1D,1.0,True,0.255,36,False,left,-0.08421,1.564,1.9306,0.3667,0.3475,0.8224,0.4749,A
286,0.49684,0.1,2,0.30315,0.30315,0.50526,286,2.07997,-0.062,-0.03368,0.47157,5,2D1U,1.0,True,0.481,36,False,left,0.16842,1.3731,1.7067,0.3336,0.3488,0.7398,0.391,A
287,0.49684,0.1,2,0.42947,0.23579,0.77473,287,2.4084,-0.062,-0.03368,0.47157,5,2D1U,1.0,True,0.404,36,False,left,-0.08421,1.6441,1.9777,0.3336,0.6026,0.7442,0.1416,A
288,0.49684,1.2,1,0.24421,0.38736,0.90104,288,2.43366,-0.184,-0.09263,0.40421,5,2U1D,2.0,True,0.237,36,False,right,0.16842,0.2066,0.6732,0.4666,1.4482,2.1734,0.7252,A
289,0.49684,1.2,2,0.33684,0.21895,0.78315,289,2.33262,-0.008,0.0,0.49684,5,2D1U,1.0,False,0.621,36,False,left,-0.08421,1.6231,2.0817,0.4586,0.3394,0.8152,0.4758,A
290,0.49684,0.1,2,0.34526,0.32842,0.85894,290,2.46735,-0.13,-0.06737,0.43789,5,2U1D,1.0,True,0.516,37,True,left,0.16842,1.7662,2.0662,0.2999,0.3909,0.7828,0.3919,A
291,0.49684,0.1,1,0.33684,0.38736,0.60631,291,2.29892,-0.062,-0.03368,0.47157,5,2D1U,1.0,False,0.362,37,True,left,-0.08421,0.4659,0.6657,0.1998,1.4408,1.5825,0.1417,A
292,0.49684,1.2,1,0.24421,0.42105,0.45473,292,2.05472,-0.116,-0.05895,0.43789,5,2D1U,2.0,True,0.857,37,False,right,0.16842,0.2056,0.7056,0.5,1.0393,1.7639,0.7246,A
293,0.49684,1.2,1,0.23579,0.38736,0.74947,293,2.30735,-0.116,-0.05895,0.43789,5,2D1U,2.0,True,0.245,37,False,right,-0.08421,0.195,0.695,0.5,1.4451,1.9199,0.4748,A
294,0.49684,0.1,2,0.23579,0.26105,0.43789,294,1.90314,-0.062,-0.03368,0.47157,5,2D1U,1.0,True,0.356,38,True,left,0.16842,1.2435,1.5771,0.3335,0.2853,0.677,0.3916,A
295,0.49684,0.1,2,0.25263,0.42947,0.63157,295,2.2484,-0.13,-0.06737,0.43789,5,2U1D,2.0,False,0.11,37,True,right,-0.08421,1.3234,1.623,0.2996,0.4234,0.565,0.1416,A
296,0.49684,1.2,2,0.32842,0.2021,0.7242,296,2.15577,-0.184,-0.09263,0.40421,5,2U1D,2.0,False,0.273,38,True,right,0.16842,1.6822,2.0489,0.3667,0.2071,0.9319,0.7248,A
297,0.49684,1.2,1,0.32,0.2021,0.73262,297,2.22313,-0.062,-0.03368,0.47157,5,2D1U,2.0,True,0.113,38,True,right,-0.08421,0.2796,0.8128,0.5332,1.5461,2.0213,0.4752,A
298,0.49684,0.1,2,0.26947,0.35368,0.49684,298,1.99577,-0.238,-0.11789,0.37894,5,2U1D,1.0,True,0.25,38,False,left,0.16842,1.3296,1.5703,0.2407,0.3121,0.7039,0.3918,A
299,0.49684,0.1,2,0.39579,0.27789,0.89262,299,2.55998,-0.008,0.0,0.49684,5,2D1U,2.0,False,0.107,38,False,right,-0.08421,1.7265,2.085,0.3585,0.5684,0.71,0.1415,A
300,0.49684,1.2,2,0.22737,0.21895,0.78315,300,2.10525,-0.238,-0.11789,0.37894,5,2U1D,1.0,True,0.466,38,False,left,0.16842,1.6368,1.9785,0.3417,0.1035,0.8287,0.7252,A
301,0.49684,1.2,2,0.31158,0.32,0.57263,301,2.17262,-0.062,-0.03368,0.47157,5,2D1U,2.0,False,0.187,39,True,right,-0.08421,1.3899,1.8234,0.4335,0.3143,0.7897,0.4754,A
302,0.49684,0.1,2,0.42105,0.40421,0.6821,302,2.44209,-0.116,-0.05895,0.43789,5,2D1U,1.0,True,1.12,39,False,left,0.16842,1.6671,1.9673,0.3002,0.4672,0.8593,0.392,A
303,0.49684,0.1,2,0.39579,0.28631,0.57263,303,2.15578,-0.184,-0.09263,0.40421,5,2U1D,2.0,False,0.136,39,True,right,-0.08421,1.4115,1.6785,0.2669,0.5693,0.711,0.1417,A
304,0.49684,1.2,2,0.3621,0.23579,0.44631,304,1.91998,-0.238,-0.11789,0.37894,5,2U1D,2.0,False,0.354,40,True,right,0.16842,1.4444,1.7862,0.3418,0.2444,0.9695,0.7251,A
305,0.49684,1.2,1,0.37894,0.34526,0.5221,305,2.09682,-0.292,-0.14316,0.35368,5,2U1D,2.0,True,0.256,40,False,right,-0.08421,0.343,0.7596,0.4166,1.2845,1.7597,0.4751,A
306,0.49684,0.1,2,0.42105,0.27789,0.44631,306,1.99577,-0.292,-0.14316,0.35368,5,2U1D,1.0,True,0.248,40,False,left,0.16842,1.4331,1.6493,0.2162,0.4657,0.858,0.3923,A
307,0.49684,0.1,1,0.38736,0.27789,0.82526,307,2.42524,-0.116,-0.05895,0.43789,5,2D1U,2.0,True,0.283,39,False,right,-0.08421,0.5123,0.6789,0.1667,1.6704,1.8125,0.1421,A
308,0.49684,1.2,1,0.43789,0.37052,0.51368,308,2.19787,-0.238,-0.11789,0.37894,5,2U1D,2.0,True,0.126,41,True,right,0.16842,0.4025,0.8442,0.4418,1.2354,1.9608,0.7254,A
309,0.49684,1.2,2,0.35368,0.23579,0.74105,309,2.29893,-0.062,-0.03368,0.47157,5,2D1U,2.0,False,0.361,40,True,right,-0.08421,1.5983,2.032,0.4337,0.3566,0.8319,0.4753,A
310,0.49684,0.1,2,0.28631,0.28631,0.85052,310,2.29892,-0.238,-0.11789,0.37894,5,2U1D,1.0,True,0.385,41,True,left,0.16842,1.6948,1.9363,0.2415,0.3281,0.7197,0.3916,A
311,0.49684,0.1,1,0.37052,0.21052,0.5221,311,2.00419,-0.184,-0.09263,0.40421,5,2U1D,2.0,True,0.318,41,False,right,-0.08421,0.4973,0.6307,0.1334,1.3223,1.4639,0.1416,A
312,0.49684,1.2,2,0.37052,0.34526,0.8421,312,2.49261,-0.116,-0.05895,0.43789,5,2D1U,2.0,False,0.218,41,True,right,0.16842,1.8383,2.2381,0.3998,0.2463,0.9718,0.7256,A
313,0.49684,1.2,1,0.22737,0.21052,0.63157,313,1.97051,-0.184,-0.09263,0.40421,5,2U1D,2.0,True,0.292,41,False,right,-0.08421,0.1922,0.6589,0.4667,1.2922,1.7673,0.4751,A
314,0.49684,0.1,2,0.41263,0.23579,0.87578,314,2.45893,-0.13,-0.06737,0.43789,5,2U1D,1.0,True,0.288,41,False,left,0.16842,1.8454,2.1454,0.2999,0.4536,0.8459,0.3923,A
315,0.49684,0.1,2,0.32842,0.25263,0.64841,315,2.13893,-0.17,-0.08421,0.41263,5,2D1U,2.0,False,0.181,41,False,right,-0.08421,1.4152,1.6901,0.2749,0.4989,0.6405,0.1416,A
316,0.49684,1.2,2,0.30315,0.26947,0.8842,316,2.34102,-0.224,-0.10947,0.38736,5,2D1U,1.0,True,0.549,41,False,left,0.16842,1.8151,2.1652,0.3501,0.1817,0.907,0.7253,A
317,0.49684,1.2,1,0.37894,0.42947,0.40421,317,2.14735,-0.13,-0.06737,0.43789,5,2U1D,2.0,True,0.11,41,False,right,-0.08421,0.3408,0.8408,0.5,1.2492,1.7245,0.4753,A
318,0.49684,0.1,2,0.26105,0.27789,0.82526,318,2.2484,-0.224,-0.10947,0.38736,5,2D1U,2.0,False,0.323,41,False,right,0.16842,1.6452,1.8951,0.2499,0.3035,0.6952,0.3917,A
319,0.49684,0.1,2,0.21895,0.2021,0.45473,319,1.73472,-0.278,-0.14316,0.3621,5,2D1U,1.0,True,0.432,41,False,left,-0.08421,1.114,1.3387,0.2248,0.389,0.531,0.142,A
320,0.49684,1.2,1,0.41263,0.24421,0.61473,320,2.13051,-0.278,-0.14316,0.3621,5,2D1U,2.0,True,0.266,41,False,right,0.16842,0.3703,0.7952,0.4249,1.287,2.0119,0.7249,A
321,0.49684,1.2,2,0.33684,0.24421,0.59789,321,2.13893,-0.076,-0.0421,0.46315,5,2U1D,2.0,False,0.141,41,False,right,-0.08421,1.4445,1.8692,0.4247,0.3443,0.8192,0.4749,A
322,0.49684,0.1,2,0.26105,0.40421,0.75789,322,2.30735,-0.224,-0.10947,0.38736,5,2D1U,1.0,True,0.108,42,True,left,0.16842,1.5856,1.8356,0.2501,0.3105,0.7025,0.392,A
323,0.49684,0.1,2,0.37894,0.26105,0.8842,323,2.45892,-0.13,-0.06737,0.43789,5,2U1D,2.0,False,0.139,42,True,right,-0.08421,1.6975,1.9976,0.3001,0.5477,0.6894,0.1417,A
324,0.49684,1.2,2,0.33684,0.23579,0.57263,324,2.02946,-0.224,-0.10947,0.38736,5,2D1U,1.0,True,0.268,42,True,left,0.16842,1.5429,1.8931,0.3502,0.2173,0.943,0.7257,A
325,0.49684,1.2,1,0.21052,0.40421,0.70736,325,2.22314,-0.184,-0.09263,0.40421,5,2U1D,2.0,True,0.15,42,False,right,-0.08421,0.1751,0.6422,0.4671,1.3503,1.8253,0.475,A
326,0.49684,0.1,1,0.35368,0.35368,0.42947,326,2.03788,-0.184,-0.09263,0.40421,5,2U1D,1.0,False,0.473,42,False,left,0.16842,0.486,0.6192,0.1332,1.0946,1.4864,0.3918,A
327,0.49684,0.1,2,0.32,0.26947,0.63999,327,2.10524,-0.238,-0.11789,0.37894,5,2U1D,1.0,True,0.674,42,False,left,-0.08421,1.4005,1.6423,0.2418,0.4924,0.6341,0.1417,A
328,0.49684,1.2,2,0.39579,0.29473,0.46315,328,2.06314,-0.17,-0.08421,0.41263,5,2D1U,2.0,False,0.154,42,False,right,0.16842,1.488,1.8632,0.3752,0.2713,0.9964,0.725,A
329,0.49684,1.2,1,0.23579,0.44631,0.81683,329,2.38313,-0.224,-0.10947,0.38736,5,2D1U,2.0,True,0.123,43,True,right,-0.08421,0.1947,0.6447,0.45,1.4617,1.9368,0.4751,A
330,0.49684,0.1,2,0.34526,0.37052,0.70736,330,2.30734,-0.224,-0.10947,0.38736,5,2D1U,1.0,True,0.614,43,True,left,0.16842,1.6158,1.8661,0.2503,0.3908,0.7825,0.3917,A
331,0.49684,0.1,2,0.44631,0.34526,0.51368,331,2.18103,-0.238,-0.11789,0.37894,5,2U1D,2.0,False,0.435,42,False,right,-0.08421,1.3991,1.6408,0.2416,0.6159,0.7576,0.1417,A
332,0.49684,1.2,2,0.2021,0.41263,0.58947,332,2.11367,-0.17,-0.08421,0.41263,5,2D1U,1.0,True,0.165,44,True,left,0.16842,1.4269,1.8021,0.3752,0.0853,0.8103,0.7249,A
333,0.49684,1.2,1,0.28631,0.41263,0.49684,333,2.0463,-0.292,-0.14316,0.35368,5,2U1D,2.0,True,0.183,42,False,right,-0.08421,0.2484,0.6652,0.4168,1.1655,1.6401,0.4746,A
334,0.49684,0.1,1,0.30315,0.44631,0.5642,334,2.22313,-0.17,-0.08421,0.41263,5,2D1U,2.0,True,0.237,44,True,right,0.16842,0.4277,0.5696,0.142,1.178,1.5697,0.3917,A
335,0.49684,0.1,2,0.44631,0.41263,0.61473,335,2.32419,-0.292,-0.14316,0.35368,5,2U1D,1.0,True,0.148,42,False,left,-0.08421,1.4974,1.714,0.2166,0.6139,0.7562,0.1423,A
336,0.49684,1.2,2,0.23579,0.21895,0.7242,336,2.11367,-0.116,-0.05895,0.43789,5,2D1U,2.0,False,0.314,44,False,right,0.16842,1.5901,1.99,0.3999,0.1152,0.84,0.7248,A
337,0.49684,1.2,1,0.21895,0.30315,0.42947,337,1.82735,-0.238,-0.11789,0.37894,5,2U1D,2.0,True,0.111,43,True,right,-0.08421,0.1819,0.6239,0.4419,1.057,1.5319,0.4749,A
338,0.49684,0.1,2,0.34526,0.42947,0.7242,338,2.4084,-0.17,-0.08421,0.41263,5,2D1U,2.0,False,0.195,45,True,right,0.16842,1.636,1.9107,0.2747,0.3945,0.786,0.3915,A
339,0.49684,0.1,2,0.26947,0.23579,0.89262,339,2.28208,-0.224,-0.10947,0.38736,5,2D1U,1.0,True,0.784,45,False,left,-0.08421,1.5969,1.847,0.2501,0.4389,0.5803,0.1414,A
340,0.49684,1.2,1,0.39579,0.26105,0.6821,340,2.21472,-0.238,-0.11789,0.37894,5,2U1D,2.0,True,0.246,43,True,right,0.16842,0.3568,0.798,0.4412,1.3562,2.0818,0.7256,A
341,0.49684,1.2,1,0.39579,0.26947,0.46315,341,2.01261,-0.224,-0.10947,0.38736,5,2D1U,1.0,False,0.284,45,False,left,-0.08421,0.3572,0.8074,0.4502,1.2739,1.749,0.4751,A
342,0.49684,0.1,2,0.40421,0.32842,0.61473,342,2.24841,-0.184,-0.09263,0.40421,5,2U1D,2.0,False,0.193,43,False,right,0.16842,1.5802,1.8468,0.2666,0.4465,0.8384,0.392,A
343,0.49684,0.1,2,0.27789,0.42947,0.69052,343,2.25682,-0.278,-0.14316,0.3621,5,2D1U,1.0,True,0.111,45,False,left,-0.08421,1.4074,1.6319,0.2244,0.4488,0.5904,0.1416,A
344,0.49684,1.2,2,0.26947,0.3621,0.71578,344,2.20629,-0.278,-0.14316,0.3621,5,2D1U,2.0,False,0.191,45,False,right,0.16842,1.6128,1.938,0.3252,0.1462,0.8711,0.7249,A
345,0.49684,1.2,1,0.24421,0.31158,0.40421,345,1.79368,-0.332,-0.16842,0.33684,5,2D1U,1.0,False,0.456,45,False,left,-0.08421,0.2097,0.6098,0.4001,1.0185,1.4933,0.4747,A
346,0.49684,0.1,1,0.27789,0.22737,0.57263,346,1.95367,-0.238,-0.11789,0.37894,5,2U1D,2.0,True,0.623,44,True,right,0.16842,0.4095,0.5178,0.1083,1.1345,1.5258,0.3913,A
347,0.49684,0.1,1,0.42947,0.24421,0.40421,347,1.87788,-0.386,-0.19368,0.30315,5,2D1U,2.0,True,0.307,45,False,right,-0.08421,0.5577,0.5912,0.0335,1.166,1.3079,0.1419,A
348,0.49684,1.2,1,0.28631,0.35368,0.74105,348,2.25682,-0.238,-0.11789,0.37894,5,2U1D,2.0,True,1.329,44,True,right,0.16842,0.2476,0.6893,0.4418,1.3063,2.031,0.7246,A
349,0.49684,1.2,2,0.25263,0.32842,0.74947,349,2.23157,-0.184,-0.09263,0.40421,5,2U1D,1.0,True,0.142,45,True,left,-0.08421,1.5068,1.8734,0.3666,0.2574,0.732,0.4747,A
350,0.49684,0.1,2,0.24421,0.43789,0.49684,350,1.97893,-0.386,-0.19368,0.30315,5,2D1U,1.0,True,0.108,45,False,left,0.16842,1.3052,1.4716,0.1665,0.2887,0.6804,0.3917,A
351,0.49684,0.1,2,0.21052,0.31158,0.63999,351,2.06314,-0.184,-0.09263,0.40421,5,2U1D,2.0,False,0.256,45,True,right,-0.08421,1.2932,1.5599,0.2666,0.3848,0.5266,0.1419,A
352,0.49684,1.2,1,0.2021,0.42947,0.80841,352,2.31576,-0.238,-0.11789,0.37894,5,2U1D,1.0,False,0.253,46,True,left,0.16842,0.1648,0.6067,0.442,1.29,2.0149,0.7249,A
353,0.49684,1.2,1,0.30315,0.34526,0.83368,353,2.33261,-0.292,-0.14316,0.35368,5,2U1D,2.0,True,0.225,46,False,right,-0.08421,0.2644,0.6811,0.4167,1.5144,1.9893,0.4749,A
354,0.49684,0.1,1,0.31158,0.32,0.58947,354,2.05473,-0.332,-0.16842,0.33684,5,2D1U,2.0,True,0.973,46,True,right,0.16842,0.44,0.5062,0.0662,1.1395,1.5312,0.3917,A
355,0.49684,0.1,1,0.3621,0.29473,0.44631,355,1.93682,-0.332,-0.16842,0.33684,5,2D1U,2.0,True,0.413,46,True,right,-0.08421,0.4885,0.555,0.0665,1.1714,1.3134,0.142,A
356,0.49684,1.2,2,0.37052,0.32,0.73262,356,2.27366,-0.292,-0.14316,0.35368,5,2U1D,1.0,True,0.23,46,False,left,0.16842,1.7311,2.0474,0.3163,0.2482,0.9732,0.7251,A
357,0.49684,1.2,2,0.37894,0.37052,0.5642,357,2.18944,-0.238,-0.11789,0.37894,5,2U1D,1.0,True,0.2,47,True,left,-0.08421,1.4464,1.7876,0.3413,0.3794,0.8545,0.475,A
358,0.49684,0.1,2,0.42947,0.37052,0.76631,358,2.42524,-0.278,-0.14316,0.3621,5,2D1U,1.0,True,0.262,46,False,left,0.16842,1.7564,1.9813,0.2249,0.4736,0.8644,0.3907,A
359,0.49684,0.1,2,0.43789,0.29473,0.51368,359,2.10524,-0.278,-0.14316,0.3621,5,2D1U,2.0,False,0.182,46,False,right,-0.08421,1.388,1.6131,0.2251,0.605,0.7465,0.1415,A
360,0.49684,1.2,2,0.30315,0.2021,0.74105,360,2.07998,-0.332,-0.16842,0.33684,5,2D1U,1.0,True,0.419,47,True,left,0.16842,1.6733,1.9733,0.3,0.1814,0.9065,0.7251,A
361,0.49684,1.2,1,0.34526,0.28631,0.77473,361,2.28208,-0.238,-0.11789,0.37894,5,2U1D,2.0,True,0.194,47,True,right,-0.08421,0.3104,0.7523,0.442,1.5275,2.0022,0.4747,A
362,0.49684,0.1,1,0.43789,0.40421,0.76631,362,2.50946,-0.184,-0.09263,0.40421,5,2U1D,2.0,True,0.2,47,False,right,0.16842,0.5629,0.6958,0.1329,1.5041,1.896,0.3919,A
363,0.49684,0.1,2,0.34526,0.21895,0.49684,363,1.89473,-0.332,-0.16842,0.33684,5,2D1U,1.0,True,0.264,47,True,left,-0.08421,1.2857,1.4857,0.2,0.5189,0.6603,0.1415,A
364,0.49684,1.2,2,0.32,0.26105,0.76631,364,2.2063,-0.278,-0.14316,0.3621,5,2D1U,2.0,False,0.412,48,True,right,0.16842,1.717,2.0421,0.325,0.2005,0.9255,0.725,A
365,0.49684,1.2,2,0.32,0.42105,0.42947,365,2.0042,-0.332,-0.16842,0.33684,5,2D1U,2.0,False,0.107,49,True,right,-0.08421,1.2532,1.5529,0.2998,0.3196,0.7948,0.4752,A
366,0.49684,0.1,1,0.3621,0.40421,0.76631,366,2.33261,-0.386,-0.19368,0.30315,5,2D1U,1.0,False,0.175,49,False,left,0.16842,0.4941,0.5272,0.0332,1.3357,1.7275,0.3918,A
367,0.49684,0.1,1,0.33684,0.26105,0.71578,367,2.21472,-0.184,-0.09263,0.40421,5,2U1D,2.0,True,0.173,47,False,right,-0.08421,0.4673,0.6003,0.1331,1.484,1.6253,0.1413,A
368,0.49684,1.2,1,0.32,0.34526,0.64841,368,2.2484,-0.13,-0.06737,0.43789,5,2U1D,2.0,True,0.375,47,False,right,0.16842,0.2804,0.7804,0.4999,1.3056,2.0302,0.7246,A
369,0.49684,1.2,2,0.26947,0.21895,0.77473,369,2.03788,-0.44,-0.21895,0.27789,5,2D1U,1.0,True,0.334,49,False,left,-0.08421,1.548,1.7898,0.2418,0.2734,0.7481,0.4747,A
370,0.49684,0.1,1,0.35368,0.42105,0.66526,370,2.21472,-0.44,-0.21895,0.27789,5,2D1U,2.0,True,0.224,49,False,right,0.16842,0.482,0.4905,0.0085,1.1987,1.5902,0.3914,A
371,0.49684,0.1,2,0.44631,0.42947,0.74947,371,2.55998,-0.13,-0.06737,0.43789,5,2U1D,1.0,True,0.141,47,False,left,-0.08421,1.6302,1.9303,0.3001,0.6136,0.7553,0.1417,A
372,0.49684,1.2,1,0.43789,0.24421,0.8842,372,2.36629,-0.386,-0.19368,0.30315,5,2D1U,2.0,True,0.23,50,True,right,0.16842,0.3971,0.7638,0.3667,1.5221,2.2473,0.7252,A
373,0.49684,1.2,2,0.30315,0.43789,0.59789,373,2.13892,-0.386,-0.19368,0.30315,5,2D1U,1.0,True,0.32,50,True,left,-0.08421,1.4069,1.6735,0.2666,0.3069,0.7818,0.4749,A
374,0.49684,0.1,1,0.23579,0.30315,0.74105,374,2.11367,-0.332,-0.16842,0.33684,5,2D1U,2.0,True,0.14,50,False,right,0.16842,0.3681,0.4347,0.0666,1.2181,1.6097,0.3917,A
375,0.49684,0.1,1,0.32842,0.29473,0.40421,375,1.86104,-0.332,-0.16842,0.33684,5,2D1U,2.0,True,0.191,50,False,right,-0.08421,0.4567,0.5234,0.0666,1.0989,1.2402,0.1413,A
376,0.49684,1.2,2,0.42105,0.37894,0.53052,376,2.2905,-0.076,-0.0421,0.46315,5,2U1D,2.0,False,0.108,47,False,right,0.16842,1.5792,2.0046,0.4254,0.2962,1.0213,0.725,A
377,0.49684,1.2,1,0.41263,0.28631,0.41263,377,2.0463,-0.13,-0.06737,0.43789,5,2U1D,2.0,True,0.152,48,True,right,-0.08421,0.373,0.8727,0.4997,1.2895,1.7643,0.4748,A
378,0.49684,0.1,2,0.40421,0.43789,0.69894,378,2.39998,-0.278,-0.14316,0.3621,5,2D1U,1.0,True,0.512,50,False,left,0.16842,1.6682,1.8932,0.225,0.4524,0.8433,0.3909,A
379,0.49684,0.1,1,0.37052,0.26105,0.61473,379,2.18103,-0.13,-0.06737,0.43789,5,2U1D,2.0,True,0.246,48,True,right,-0.08421,0.4951,0.6616,0.1665,1.4451,1.5865,0.1414,A
380,0.49684,1.2,2,0.23579,0.44631,0.60631,380,2.2484,-0.076,-0.0421,0.46315,5,2U1D,2.0,False,0.212,49,True,right,0.16842,1.4752,1.9001,0.4249,0.1171,0.842,0.7249,A
381,0.49684,1.2,2,0.42947,0.2021,0.65684,381,2.14735,-0.278,-0.14316,0.3621,5,2D1U,1.0,True,0.286,50,False,left,-0.08421,1.593,1.918,0.3251,0.4347,0.9099,0.4752,A
382,0.49684,0.1,2,0.32842,0.27789,0.82526,382,2.31577,-0.224,-0.10947,0.38736,5,2D1U,2.0,False,0.394,50,False,right,0.16842,1.7172,1.9672,0.25,0.3754,0.7672,0.3918,A
383,0.49684,0.1,1,0.41263,0.32,0.40421,383,2.07157,-0.13,-0.06737,0.43789,5,2U1D,1.0,False,0.7,50,True,left,-0.08421,0.5433,0.7101,0.1668,1.2849,1.4264,0.1416,A
384,0.49684,1.2,1,0.43789,0.30315,0.40421,384,2.00419,-0.278,-0.14316,0.3621,5,2D1U,2.0,True,0.499,51,True,right,0.16842,0.4013,0.8265,0.4252,1.1097,1.8348,0.7251,A
385,0.49684,1.2,1,0.33684,0.37894,0.50526,385,2.07998,-0.278,-0.14316,0.3621,5,2D1U,2.0,True,0.604,51,True,right,-0.08421,0.3013,0.7265,0.4252,1.2347,1.7095,0.4748,A
386,0.49684,0.1,1,0.31158,0.21052,0.42105,386,1.8442,-0.184,-0.09263,0.40421,5,2U1D,2.0,True,0.274,50,False,right,0.16842,0.4426,0.5756,0.133,1.0426,1.434,0.3915,A
387,0.49684,0.1,2,0.31158,0.37052,0.54736,387,2.13051,-0.184,-0.09263,0.40421,5,2U1D,1.0,True,0.109,50,False,left,-0.08421,1.302,1.5685,0.2665,0.4853,0.6269,0.1417,A
388,0.49684,1.2,1,0.33684,0.31158,0.85052,388,2.38314,-0.224,-0.10947,0.38736,5,2D1U,2.0,True,0.174,52,True,right,0.16842,0.3021,0.7525,0.4503,1.4775,2.2023,0.7248,A
389,0.49684,1.2,1,0.44631,0.38736,0.81683,389,2.5347,-0.224,-0.10947,0.38736,5,2D1U,1.0,False,0.186,52,True,left,-0.08421,0.4067,0.8566,0.4499,1.673,2.1484,0.4754,A
390,0.49684,0.1,1,0.30315,0.39579,0.7242,390,2.35787,-0.13,-0.06737,0.43789,5,2U1D,2.0,True,0.541,51,True,right,0.16842,0.4354,0.6017,0.1663,1.3685,1.7601,0.3917,A
391,0.49684,0.1,2,0.21052,0.23579,0.58105,391,1.8863,-0.278,-0.14316,0.3621,5,2D1U,1.0,True,0.283,53,True,left,-0.08421,1.2295,1.4546,0.2252,0.3795,0.5215,0.1419,A
392,0.49684,1.2,2,0.24421,0.35368,0.42947,392,1.96209,-0.13,-0.06737,0.43789,5,2U1D,1.0,True,0.623,51,True,left,0.16842,1.3043,1.7046,0.4003,0.1214,0.8464,0.725,A
393,0.49684,1.2,1,0.34526,0.44631,0.83368,393,2.48419,-0.278,-0.14316,0.3621,5,2D1U,2.0,True,0.564,53,True,right,-0.08421,0.3042,0.7297,0.4255,1.5626,2.0375,0.4749,A
394,0.49684,0.1,2,0.25263,0.37052,0.66526,394,2.2484,-0.076,-0.0421,0.46315,5,2U1D,1.0,True,0.263,51,False,left,0.16842,1.4791,1.804,0.3248,0.2958,0.6877,0.3919,A
395,0.49684,0.1,2,0.21895,0.40421,0.79999,395,2.38314,-0.076,-0.0421,0.46315,5,2U1D,2.0,False,0.601,51,False,right,-0.08421,1.4568,1.781,0.3242,0.3896,0.5312,0.1416,A
396,0.49684,1.2,2,0.38736,0.42947,0.48842,396,2.23998,-0.13,-0.06737,0.43789,5,2U1D,1.0,True,0.195,52,True,left,0.16842,1.5051,1.9049,0.3998,0.2631,0.9884,0.7253,A
397,0.49684,1.2,1,0.26947,0.32,0.61473,397,2.0884,-0.224,-0.10947,0.38736,5,2D1U,2.0,True,0.112,54,True,right,-0.08421,0.2289,0.679,0.45,1.2956,1.7708,0.4753,A
398,0.49684,0.1,2,0.37894,0.37052,0.89262,398,2.57681,-0.13,-0.06737,0.43789,5,2U1D,1.0,True,1.026,52,True,left,0.16842,1.8318,2.1314,0.2996,0.4237,0.8149,0.3912,A
399,0.49684,0.1,1,0.38736,0.31158,0.47157,399,2.1305,-0.076,-0.0421,0.46315,5,2U1D,2.0,True,0.292,53,True,right,-0.08421,0.5145,0.7064,0.192,1.3485,1.4896,0.141,A
400,0.49684,1.2,1,0.2021,0.22737,0.46315,400,1.77682,-0.224,-0.10947,0.38736,5,2D1U,2.0,True,0.298,54,True,right,0.16842,0.1637,0.6139,0.4502,0.9555,1.6803,0.7248,A
401,0.49684,1.2,1,0.21052,0.26105,0.65684,401,2.03788,-0.17,-0.08421,0.41263,5,2D1U,1.0,False,0.324,54,False,left,-0.08421,0.1739,0.6489,0.475,1.3072,1.7825,0.4754,A
402,0.49684,0.1,1,0.37052,0.31158,0.40421,402,2.0463,-0.076,-0.0421,0.46315,5,2U1D,2.0,True,2.265,53,True,right,0.16842,0.4973,0.6887,0.1914,1.1393,1.5309,0.3917,A
403,0.49684,0.1,2,0.28631,0.37894,0.57263,403,2.22314,-0.022,-0.00842,0.48842,5,2U1D,2.0,False,1.248,53,False,right,-0.08421,1.2954,1.6453,0.3499,0.454,0.596,0.142,A
404,0.49684,1.2,2,0.33684,0.39579,0.7242,404,2.34103,-0.224,-0.10947,0.38736,5,2D1U,1.0,True,0.228,55,True,left,0.16842,1.6899,2.0406,0.3507,0.2158,0.9402,0.7244,A
405,0.49684,1.2,2,0.26105,0.28631,0.51368,405,2.02103,-0.076,-0.0421,0.46315,5,2U1D,2.0,False,0.109,54,True,right,-0.08421,1.2838,1.7096,0.4258,0.2682,0.7427,0.4745,A
406,0.49684,0.1,2,0.44631,0.37052,0.86736,406,2.61892,-0.13,-0.06737,0.43789,5,2U1D,1.0,True,0.272,54,False,left,0.16842,1.8715,2.1715,0.3,0.488,0.8803,0.3922,A
407,0.49684,0.1,2,0.37052,0.37052,0.78315,407,2.40839,-0.224,-0.10947,0.38736,5,2D1U,1.0,True,0.211,55,True,left,-0.08421,1.5916,1.8418,0.2503,0.5426,0.6836,0.1409,A
408,0.49684,1.2,2,0.22737,0.21052,0.64841,408,1.99577,-0.17,-0.08421,0.41263,5,2D1U,2.0,False,0.24,56,True,right,0.16842,1.5063,1.8818,0.3755,0.1063,0.8318,0.7255,A
409,0.49684,1.2,1,0.26105,0.27789,0.54736,409,2.02103,-0.13,-0.06737,0.43789,5,2U1D,2.0,True,0.111,54,False,right,-0.08421,0.2224,0.7225,0.5001,1.2728,1.7476,0.4748,A
410,0.49684,0.1,1,0.41263,0.34526,0.8421,410,2.55998,-0.076,-0.0421,0.46315,5,2U1D,2.0,True,0.189,55,True,right,0.16842,0.5401,0.7326,0.1924,1.6151,2.0068,0.3917,A
411,0.49684,0.1,2,0.43789,0.29473,0.58105,411,2.27366,-0.076,-0.0421,0.46315,5,2U1D,2.0,False,0.131,55,True,right,-0.08421,1.4564,1.7813,0.3249,0.6065,0.7479,0.1414,A
412,0.49684,1.2,1,0.24421,0.39579,0.83368,412,2.35788,-0.224,-0.10947,0.38736,5,2D1U,2.0,True,0.221,57,True,right,0.16842,0.2051,0.6561,0.451,1.3641,2.089,0.7249,A
413,0.49684,1.2,2,0.42105,0.42947,0.63999,413,2.42524,-0.13,-0.06737,0.43789,5,2U1D,1.0,True,0.249,56,True,left,-0.08421,1.563,1.9627,0.3996,0.4212,0.8965,0.4753,A
414,0.49684,0.1,1,0.3621,0.32842,0.71578,414,2.2905,-0.224,-0.10947,0.38736,5,2D1U,2.0,True,0.219,57,True,right,0.16842,0.4939,0.6104,0.1165,1.3689,1.7607,0.3918,A
415,0.49684,0.1,2,0.33684,0.26947,0.46315,415,2.00419,-0.13,-0.06737,0.43789,5,2U1D,2.0,False,0.19,56,True,right,-0.08421,1.2369,1.5366,0.2998,0.5036,0.6452,0.1416,A
416,0.49684,1.2,1,0.24421,0.26105,0.65684,416,2.07157,-0.17,-0.08421,0.41263,5,2D1U,2.0,True,0.231,58,True,right,0.16842,0.2095,0.6848,0.4754,1.2185,1.9436,0.7251,A
417,0.49684,1.2,2,0.33684,0.30315,0.87578,417,2.42524,-0.17,-0.08421,0.41263,5,2D1U,1.0,True,0.458,58,True,left,-0.08421,1.7157,2.091,0.3752,0.3418,0.8164,0.4746,A
418,0.49684,0.1,2,0.32842,0.35368,0.51368,418,2.09683,-0.184,-0.09263,0.40421,5,2U1D,2.0,False,0.166,56,False,right,0.16842,1.4098,1.6767,0.2668,0.3764,0.7681,0.3917,A
419,0.49684,0.1,1,0.27789,0.39579,0.43789,419,1.98735,-0.238,-0.11789,0.37894,5,2U1D,2.0,True,0.195,56,False,right,-0.08421,0.4118,0.52,0.1082,1.128,1.2704,0.1424,A
420,0.49684,1.2,1,0.39579,0.38736,0.54736,420,2.26524,-0.116,-0.05895,0.43789,5,2D1U,2.0,True,0.112,58,False,right,0.16842,0.3549,0.855,0.5001,1.2804,2.005,0.7246,A
421,0.49684,1.2,1,0.29473,0.25263,0.42105,421,1.90314,-0.116,-0.05895,0.43789,5,2D1U,1.0,False,0.342,58,False,left,-0.08421,0.2552,0.7542,0.499,1.1797,1.6552,0.4755,A
422,0.49684,0.1,1,0.2021,0.40421,0.86736,422,2.38314,-0.17,-0.08421,0.41263,5,2D1U,2.0,True,0.478,59,True,right,0.16842,0.334,0.4762,0.1423,1.3845,1.7768,0.3923,A
423,0.49684,0.1,2,0.21895,0.35368,0.63157,423,2.07998,-0.238,-0.11789,0.37894,5,2U1D,1.0,True,0.24,56,False,left,-0.08421,1.2874,1.5297,0.2423,0.3876,0.5293,0.1417,A
424,0.49684,1.2,2,0.29473,0.44631,0.66526,424,2.30735,-0.184,-0.09263,0.40421,5,2U1D,2.0,False,0.111,57,True,right,0.16842,1.5924,1.9604,0.368,0.176,0.901,0.7251,A
425,0.49684,1.2,2,0.27789,0.28631,0.77473,425,2.21471,-0.238,-0.11789,0.37894,5,2U1D,1.0,True,0.312,58,True,left,-0.08421,1.561,1.9029,0.3418,0.2864,0.7614,0.475,A
426,0.49684,0.1,1,0.42105,0.34526,0.51368,426,2.18946,-0.17,-0.08421,0.41263,5,2D1U,1.0,False,0.432,59,True,left,0.16842,0.546,0.6877,0.1417,1.2463,1.6371,0.3907,A
427,0.49684,0.1,2,0.34526,0.32,0.77473,427,2.32419,-0.224,-0.10947,0.38736,5,2D1U,1.0,True,0.359,59,False,left,-0.08421,1.5565,1.8058,0.2494,0.5141,0.6555,0.1414,A
428,0.49684,1.2,2,0.29473,0.23579,0.63999,428,2.05471,-0.224,-0.10947,0.38736,5,2D1U,1.0,True,0.591,59,False,left,0.16842,1.5687,1.9192,0.3505,0.1777,0.9033,0.7257,A
429,0.49684,1.2,2,0.40421,0.24421,0.45473,429,1.97893,-0.238,-0.11789,0.37894,5,2U1D,1.0,True,0.448,58,True,left,-0.08421,1.363,1.7042,0.3412,0.4046,0.8793,0.4747,A
430,0.49684,0.1,1,0.34526,0.44631,0.51368,430,2.2063,-0.184,-0.09263,0.40421,5,2U1D,2.0,True,0.742,59,True,right,0.16842,0.4732,0.606,0.1328,1.1647,1.5556,0.3909,A
431,0.49684,0.1,1,0.42947,0.41263,0.71578,431,2.46735,-0.17,-0.08421,0.41263,5,2D1U,1.0,False,0.188,60,True,left,-0.08421,0.5595,0.7017,0.1422,1.5846,1.7259,0.1413,A
432,0.49684,1.2,2,0.31158,0.21052,0.51368,432,1.93683,-0.184,-0.09263,0.40421,5,2U1D,1.0,True,0.375,59,True,left,0.16842,1.4553,1.8214,0.3661,0.1889,0.9138,0.7249,A
433,0.49684,1.2,1,0.38736,0.28631,0.79999,433,2.40839,-0.13,-0.06737,0.43789,5,2U1D,2.0,True,0.29,59,False,right,-0.08421,0.3451,0.8448,0.4997,1.6447,2.1198,0.4751,A
434,0.49684,0.1,2,0.44631,0.2021,0.41263,434,1.94524,-0.224,-0.10947,0.38736,5,2D1U,1.0,True,0.32,61,True,left,0.16842,1.427,1.6772,0.2502,0.4937,0.8857,0.392,A
435,0.49684,0.1,2,0.31158,0.31158,0.65684,435,2.21473,-0.13,-0.06737,0.43789,5,2U1D,1.0,True,0.655,59,False,left,-0.08421,1.4066,1.7069,0.3003,0.4817,0.6236,0.1418,A
436,0.49684,1.2,2,0.21052,0.27789,0.54736,436,1.99576,-0.076,-0.0421,0.46315,5,2U1D,2.0,False,0.193,59,False,right,0.16842,1.3923,1.8181,0.4258,0.0927,0.8178,0.7251,A
437,0.49684,1.2,1,0.21895,0.24421,0.75789,437,2.10525,-0.224,-0.10947,0.38736,5,2D1U,2.0,True,0.141,61,True,right,-0.08421,0.18,0.6299,0.4498,1.3888,1.8632,0.4745,A
438,0.49684,0.1,1,0.3621,0.30315,0.44631,438,2.04629,-0.13,-0.06737,0.43789,5,2U1D,1.0,False,2.206,60,True,left,0.16842,0.4935,0.6603,0.1667,1.1508,1.5437,0.3929,A
439,0.49684,0.1,2,0.28631,0.32842,0.6821,439,2.2063,-0.17,-0.08421,0.41263,5,2D1U,2.0,False,0.165,62,True,right,-0.08421,1.4042,1.6778,0.2736,0.4537,0.5957,0.1421,A
440,0.49684,1.2,2,0.34526,0.32,0.8842,440,2.45051,-0.184,-0.09263,0.40421,5,2U1D,1.0,True,0.793,60,False,left,0.16842,1.8565,2.2232,0.3668,0.2232,0.9475,0.7243,A
441,0.49684,1.2,1,0.43789,0.40421,0.65684,441,2.38314,-0.224,-0.10947,0.38736,5,2D1U,1.0,False,0.358,63,True,left,-0.08421,0.3957,0.8458,0.4501,1.5038,1.9788,0.475,A
442,0.49684,0.1,1,0.27789,0.21895,0.63999,442,1.99577,-0.278,-0.14316,0.3621,5,2D1U,2.0,True,0.183,63,False,right,0.16842,0.4101,0.5015,0.0914,1.1848,1.5766,0.3919,A
443,0.49684,0.1,2,0.38736,0.3621,0.75789,443,2.36629,-0.278,-0.14316,0.3621,5,2D1U,1.0,True,0.229,63,False,left,-0.08421,1.5848,1.8103,0.2255,0.5596,0.7019,0.1423,A
444,0.49684,1.2,2,0.28631,0.43789,0.51368,444,2.13893,-0.184,-0.09263,0.40421,5,2U1D,2.0,False,0.186,60,False,right,0.16842,1.4327,1.8,0.3673,0.1663,0.8915,0.7253,A
445,0.49684,1.2,1,0.37894,0.40421,0.86736,445,2.52629,-0.238,-0.11789,0.37894,5,2U1D,1.0,False,0.347,60,False,left,-0.08421,0.3394,0.7813,0.4419,1.6479,2.1224,0.4745,A
446,0.49684,0.1,2,0.32,0.29473,0.57263,446,2.07156,-0.224,-0.10947,0.38736,5,2D1U,1.0,True,0.53,64,True,left,0.16842,1.4577,1.7076,0.2499,0.3661,0.7572,0.3912,A
447,0.49684,0.1,2,0.39579,0.37052,0.47157,447,2.12208,-0.224,-0.10947,0.38736,5,2D1U,1.0,True,0.287,64,True,left,-0.08421,1.3067,1.5569,0.2503,0.565,0.7065,0.1416,A
448,0.49684,1.2,1,0.37052,0.32842,0.50526,448,2.05472,-0.292,-0.14316,0.35368,5,2U1D,2.0,True,0.165,60,False,right,0.16842,0.3346,0.751,0.4164,1.135,1.8597,0.7247,A
449,0.49684,1.2,1,0.42947,0.43789,0.8421,449,2.61893,-0.17,-0.08421,0.41263,5,2D1U,2.0,True,0.11,64,False,right,-0.08421,0.3884,0.8637,0.4753,1.7047,2.1801,0.4754,A
450,0.49684,0.1,2,0.42105,0.24421,0.43789,450,1.95367,-0.292,-0.14316,0.35368,5,2U1D,1.0,True,1.522,60,False,left,0.16842,1.4263,1.6429,0.2166,0.4682,0.8596,0.3915,A
451,0.49684,0.1,1,0.21052,0.24421,0.66526,451,2.02946,-0.17,-0.08421,0.41263,5,2D1U,2.0,True,0.23,64,False,right,-0.08421,0.3389,0.4809,0.142,1.3138,1.4551,0.1413,A
452,0.49684,1.2,2,0.24421,0.21052,0.87578,452,2.26524,-0.116,-0.05895,0.43789,5,2D1U,2.0,False,0.283,64,False,right,0.16842,1.7532,2.153,0.3998,0.1283,0.8533,0.725,A
453,0.49684,1.2,1,0.3621,0.40421,0.59789,453,2.23998,-0.238,-0.11789,0.37894,5,2U1D,2.0,True,0.135,61,True,right,-0.08421,0.3244,0.7664,0.442,1.3665,1.8421,0.4756,A
454,0.49684,0.1,1,0.21052,0.37894,0.71578,454,2.21471,-0.17,-0.08421,0.41263,5,2D1U,2.0,True,0.599,65,True,right,0.16842,0.3453,0.4861,0.1408,1.2453,1.6365,0.3912,A
455,0.49684,0.1,2,0.35368,0.26105,0.41263,455,1.93683,-0.17,-0.08421,0.41263,5,2D1U,1.0,True,0.523,65,True,left,-0.08421,1.2097,1.4841,0.2744,0.526,0.6676,0.1416,A
456,0.49684,1.2,1,0.26105,0.39579,0.66526,456,2.19788,-0.238,-0.11789,0.37894,5,2U1D,1.0,False,0.313,61,True,left,0.16842,0.2273,0.6692,0.4419,1.211,1.9362,0.7252,A
457,0.49684,1.2,2,0.26947,0.26105,0.63157,457,2.09682,-0.116,-0.05895,0.43789,5,2D1U,2.0,False,0.226,66,True,right,-0.08421,1.4036,1.8031,0.3995,0.2697,0.7457,0.476,A
458,0.49684,0.1,2,0.42105,0.29473,0.74947,458,2.37472,-0.17,-0.08421,0.41263,5,2D1U,1.0,True,0.338,67,True,left,0.16842,1.7286,2.0033,0.2747,0.4622,0.8535,0.3913,A
459,0.49684,0.1,2,0.21052,0.41263,0.64841,459,2.18103,-0.17,-0.08421,0.41263,5,2D1U,1.0,True,1.134,67,True,left,-0.08421,1.2973,1.5718,0.2744,0.3811,0.5223,0.1413,A
460,0.49684,1.2,2,0.41263,0.32842,0.50526,460,2.09683,-0.292,-0.14316,0.35368,5,2U1D,2.0,False,0.22,62,True,right,0.16842,1.5501,1.8668,0.3167,0.2922,1.0164,0.7243,A
461,0.49684,1.2,1,0.44631,0.25263,0.47157,461,1.99577,-0.346,-0.17684,0.32842,5,2U1D,2.0,True,0.193,62,False,right,-0.08421,0.4065,0.7982,0.3917,1.2722,1.7484,0.4762,A
462,0.49684,0.1,1,0.37894,0.25263,0.49684,462,2.06314,-0.116,-0.05895,0.43789,5,2D1U,2.0,True,0.108,68,True,right,0.16842,0.5114,0.678,0.1666,1.2197,1.6109,0.3912,A
463,0.49684,0.1,2,0.25263,0.34526,0.58947,463,2.01262,-0.346,-0.17684,0.32842,5,2U1D,1.0,True,0.261,62,False,left,-0.08421,1.2852,1.4764,0.1912,0.4265,0.5686,0.1422,A
464,0.49684,1.2,2,0.22737,0.24421,0.44631,464,1.76841,-0.292,-0.14316,0.35368,5,2U1D,2.0,False,0.421,63,True,right,0.16842,1.3059,1.6226,0.3167,0.1064,0.831,0.7246,A
465,0.49684,1.2,2,0.28631,0.28631,0.61473,465,2.12208,-0.116,-0.05895,0.43789,5,2D1U,2.0,False,0.303,68,True,right,-0.08421,1.4074,1.8073,0.3999,0.2908,0.7655,0.4747,A
466,0.49684,0.1,1,0.35368,0.30315,0.5221,466,2.00419,-0.346,-0.17684,0.32842,5,2U1D,2.0,True,0.107,64,True,right,0.16842,0.4827,0.541,0.0583,1.1078,1.4994,0.3916,A
467,0.49684,0.1,1,0.3621,0.35368,0.42947,467,2.05472,-0.17,-0.08421,0.41263,5,2D1U,1.0,False,0.299,69,True,left,-0.08421,0.4882,0.6308,0.1426,1.2301,1.3714,0.1413,A
468,0.49684,1.2,1,0.44631,0.30315,0.73262,468,2.30734,-0.346,-0.17684,0.32842,5,2U1D,2.0,True,0.233,64,True,right,0.16842,0.4094,0.8014,0.392,1.4094,2.1347,0.7252,A
469,0.49684,1.2,2,0.25263,0.25263,0.41263,469,1.80209,-0.224,-0.10947,0.38736,5,2D1U,2.0,False,0.197,69,False,right,-0.08421,1.1763,1.5262,0.3499,0.259,0.7345,0.4755,A
470,0.49684,0.1,2,0.28631,0.27789,0.6821,470,2.09682,-0.292,-0.14316,0.35368,5,2U1D,1.0,True,0.291,65,True,left,0.16842,1.5299,1.7462,0.2163,0.3293,0.7218,0.3926,A
471,0.49684,0.1,2,0.44631,0.41263,0.47157,471,2.18103,-0.292,-0.14316,0.35368,5,2U1D,1.0,True,0.158,65,True,left,-0.08421,1.3586,1.5756,0.217,0.6175,0.7595,0.142,A
472,0.49684,1.2,1,0.26947,0.37052,0.61473,472,2.11366,-0.278,-0.14316,0.3621,5,2D1U,2.0,True,0.232,69,False,right,0.16842,0.2329,0.6585,0.4255,1.15,1.875,0.725,A
473,0.49684,1.2,2,0.23579,0.26105,0.74105,473,2.09683,-0.278,-0.14316,0.3621,5,2D1U,2.0,False,0.237,69,False,right,-0.08421,1.4787,1.8036,0.3249,0.237,0.7122,0.4751,A
474,0.49684,0.1,1,0.32,0.32842,0.82526,474,2.34946,-0.238,-0.11789,0.37894,5,2U1D,2.0,True,0.11,65,False,right,0.16842,0.4474,0.5563,0.1089,1.4226,1.8147,0.3921,A
475,0.49684,0.1,1,0.2021,0.31158,0.61473,475,1.96209,-0.332,-0.16842,0.33684,5,2D1U,2.0,True,0.112,69,False,right,-0.08421,0.3302,0.397,0.0667,1.1808,1.3219,0.1411,A
476,0.49684,1.2,2,0.27789,0.21052,0.90104,476,2.26523,-0.238,-0.11789,0.37894,5,2U1D,1.0,True,0.542,65,False,left,0.16842,1.804,2.1455,0.3415,0.1539,0.8795,0.7256,A
477,0.49684,1.2,2,0.32,0.41263,0.53894,477,2.10525,-0.332,-0.16842,0.33684,5,2D1U,2.0,False,0.696,69,False,right,-0.08421,1.3652,1.6643,0.2992,0.3235,0.7981,0.4745,A
478,0.49684,0.1,1,0.35368,0.34526,0.49684,478,2.09683,-0.184,-0.09263,0.40421,5,2U1D,2.0,True,0.109,65,False,right,0.16842,0.4837,0.6169,0.1332,1.1591,1.5503,0.3913,A
479,0.49684,0.1,2,0.44631,0.35368,0.70736,479,2.4084,-0.184,-0.09263,0.40421,5,2U1D,2.0,False,0.168,65,False,right,-0.08421,1.5895,1.8553,0.2657,0.6134,0.7552,0.1418,A
480,0.49684,1.2,1,0.42105,0.32,0.42947,480,1.97051,-0.386,-0.19368,0.30315,5,2D1U,2.0,True,0.114,69,False,right,0.16842,0.3794,0.7457,0.3664,1.0535,1.7796,0.7261,A
481,0.49684,1.2,2,0.22737,0.25263,0.59789,481,1.87788,-0.386,-0.19368,0.30315,5,2D1U,1.0,True,0.82,69,False,left,-0.08421,1.3332,1.6004,0.2671,0.2342,0.7089,0.4747,A
482,0.49684,0.1,2,0.32,0.23579,0.87578,482,2.30735,-0.238,-0.11789,0.37894,5,2U1D,1.0,True,0.302,66,True,left,0.16842,1.7571,1.999,0.242,0.365,0.7576,0.3926,A
483,0.49684,0.1,1,0.30315,0.38736,0.89262,483,2.41681,-0.332,-0.16842,0.33684,5,2D1U,2.0,True,0.815,70,True,right,-0.08421,0.431,0.4977,0.0666,1.5572,1.6981,0.1409,A
484,0.49684,1.2,1,0.21895,0.23579,0.85052,484,2.18104,-0.238,-0.11789,0.37894,5,2U1D,2.0,True,0.522,66,True,right,0.16842,0.1848,0.6267,0.4419,1.3512,2.0765,0.7253,A
485,0.49684,1.2,1,0.21895,0.41263,0.86736,485,2.39999,-0.184,-0.09263,0.40421,5,2U1D,1.0,False,0.458,67,True,left,-0.08421,0.1815,0.6479,0.4664,1.515,1.99,0.475,A
486,0.49684,0.1,1,0.35368,0.42947,0.86736,486,2.48419,-0.332,-0.16842,0.33684,5,2D1U,2.0,True,0.109,70,True,right,0.16842,0.4819,0.5493,0.0674,1.4568,1.8493,0.3924,A
487,0.49684,0.1,2,0.43789,0.37894,0.85894,487,2.55155,-0.238,-0.11789,0.37894,5,2U1D,1.0,True,0.346,68,True,left,-0.08421,1.7287,1.97,0.2413,0.6037,0.7454,0.1416,A
488,0.49684,1.2,1,0.26947,0.40421,0.71578,488,2.2484,-0.278,-0.14316,0.3621,5,2D1U,2.0,True,0.193,70,False,right,0.16842,0.2318,0.6568,0.425,1.2486,1.9737,0.7251,A
489,0.49684,1.2,2,0.37052,0.32,0.50526,489,2.07156,-0.238,-0.11789,0.37894,5,2U1D,1.0,True,0.373,68,True,left,-0.08421,1.3807,1.7223,0.3417,0.3728,0.8473,0.4745,A
490,0.49684,0.1,1,0.21052,0.35368,0.49684,490,1.96209,-0.184,-0.09263,0.40421,5,2U1D,2.0,True,0.202,69,True,right,0.16842,0.3392,0.4727,0.1334,1.0142,1.406,0.3918,A
491,0.49684,0.1,1,0.3621,0.39579,0.44631,491,2.10525,-0.184,-0.09263,0.40421,5,2U1D,2.0,True,0.484,69,True,right,-0.08421,0.4905,0.6247,0.1341,1.2414,1.3824,0.1409,A
492,0.49684,1.2,1,0.38736,0.42947,0.83368,492,2.50945,-0.278,-0.14316,0.3621,5,2D1U,1.0,False,0.308,70,False,left,0.16842,0.3455,0.7703,0.4248,1.479,2.204,0.725,A
493,0.49684,1.2,2,0.31158,0.37052,0.51368,493,2.13051,-0.13,-0.06737,0.43789,5,2U1D,2.0,False,0.286,69,False,right,-0.08421,1.3342,1.7343,0.4,0.3173,0.7928,0.4755,A
494,0.49684,0.1,2,0.38736,0.21895,0.74105,494,2.18104,-0.332,-0.16842,0.33684,5,2D1U,1.0,True,1.248,71,True,left,0.16842,1.6875,1.8881,0.2006,0.4297,0.8218,0.3921,A
495,0.49684,0.1,1,0.42947,0.42105,0.57263,495,2.3242,-0.184,-0.09263,0.40421,5,2U1D,1.0,False,0.244,70,True,left,-0.08421,0.5542,0.6884,0.1342,1.4298,1.5711,0.1413,A
496,0.49684,1.2,1,0.37052,0.42105,0.79999,496,2.42524,-0.332,-0.16842,0.33684,5,2D1U,2.0,True,0.224,71,True,right,0.16842,0.332,0.7319,0.3999,1.4069,2.1326,0.7257,A
497,0.49684,1.2,1,0.23579,0.41263,0.66526,497,2.18946,-0.238,-0.11789,0.37894,5,2U1D,2.0,True,0.548,70,False,right,-0.08421,0.198,0.6402,0.4422,1.3063,1.7811,0.4748,A
498,0.49684,0.1,1,0.37052,0.22737,0.5642,498,2.02103,-0.278,-0.14316,0.3621,5,2D1U,2.0,True,0.317,72,True,right,0.16842,0.5041,0.5949,0.0908,1.2034,1.595,0.3916,A
499,0.49684,0.1,2,0.38736,0.32842,0.40421,499,1.99577,-0.238,-0.11789,0.37894,5,2U1D,1.0,True,0.536,70,False,left,-0.08421,1.2352,1.4772,0.2421,0.5608,0.7019,0.1411,A
500,0.49684,1.2,1,0.42105,0.2021,0.48,500,1.96209,-0.278,-0.14316,0.3621,5,2D1U,1.0,False,0.572,72,True,left,0.16842,0.3837,0.8089,0.4253,1.1674,1.8928,0.7254,A
501,0.49684,1.2,2,0.23579,0.34526,0.81683,501,2.23156,-0.332,-0.16842,0.33684,5,2D1U,2.0,False,0.254,73,True,right,-0.08421,1.5568,1.856,0.2992,0.2392,0.7151,0.4759,A
502,0.49684,0.1,2,0.37052,0.26105,0.58947,502,2.12209,-0.184,-0.09263,0.40421,5,2U1D,1.0,True,0.675,71,True,left,0.16842,1.527,1.7936,0.2667,0.4184,0.8102,0.3917,A
503,0.49684,0.1,2,0.2021,0.42105,0.74947,503,2.17261,-0.386,-0.19368,0.30315,5,2D1U,1.0,True,0.107,73,False,left,-0.08421,1.3934,1.5602,0.1667,0.3768,0.5185,0.1417,A
504,0.49684,1.2,1,0.38736,0.28631,0.76631,504,2.34103,-0.184,-0.09263,0.40421,5,2U1D,2.0,True,0.238,71,True,right,0.16842,0.3515,0.8181,0.4666,1.4598,2.1846,0.7248,A
505,0.49684,1.2,2,0.21052,0.38736,0.77473,505,2.1726,-0.386,-0.19368,0.30315,5,2D1U,2.0,False,0.466,73,False,right,-0.08421,1.4897,1.7565,0.2668,0.2145,0.69,0.4755,A
506,0.49684,0.1,1,0.38736,0.34526,0.5642,506,2.07155,-0.44,-0.21895,0.27789,5,2D1U,2.0,True,0.185,73,False,right,0.16842,0.5162,0.5246,0.0084,1.1325,1.5241,0.3916,A
507,0.49684,0.1,1,0.42947,0.25263,0.42105,507,2.03788,-0.13,-0.06737,0.43789,5,2U1D,2.0,True,0.409,71,False,right,-0.08421,0.5545,0.7211,0.1666,1.3126,1.4546,0.142,A
508,0.49684,1.2,2,0.35368,0.34526,0.90104,508,2.37471,-0.44,-0.21895,0.27789,5,2D1U,1.0,True,0.368,73,False,left,0.16842,1.8811,2.1225,0.2414,0.2306,0.9559,0.7253,A
509,0.49684,1.2,1,0.25263,0.35368,0.55578,509,2.09682,-0.13,-0.06737,0.43789,5,2U1D,2.0,True,0.209,71,False,right,-0.08421,0.2147,0.7151,0.5003,1.2732,1.7488,0.4756,A
510,0.49684,0.1,2,0.38736,0.41263,0.85894,510,2.45892,-0.386,-0.19368,0.30315,5,2D1U,1.0,True,0.196,74,True,left,0.16842,1.8107,1.9771,0.1664,0.4352,0.827,0.3918,A
511,0.49684,0.1,2,0.32842,0.37894,0.42105,511,1.9284,-0.386,-0.19368,0.30315,5,2D1U,2.0,False,0.265,74,True,right,-0.08421,1.1932,1.3604,0.1672,0.502,0.6441,0.1421,A
512,0.49684,1.2,1,0.34526,0.31158,0.70736,512,2.32419,-0.076,-0.0421,0.46315,5,2U1D,1.0,False,1.04,71,False,left,0.16842,0.3052,0.8295,0.5242,1.4127,2.1372,0.7245,A
513,0.49684,1.2,2,0.2021,0.43789,0.6821,513,2.25682,-0.13,-0.06737,0.43789,5,2U1D,2.0,False,1.403,72,True,right,-0.08421,1.3892,1.7891,0.3999,0.2066,0.6809,0.4743,A
514,0.49684,0.1,2,0.22737,0.26947,0.51368,514,1.78525,-0.44,-0.21895,0.27789,5,2D1U,1.0,True,1.236,75,True,left,0.16842,1.3066,1.4487,0.1421,0.2732,0.6658,0.3926,A
515,0.49684,0.1,1,0.31158,0.24421,0.7242,515,2.18104,-0.184,-0.09263,0.40421,5,2U1D,2.0,True,0.171,72,False,right,-0.08421,0.4379,0.5716,0.1337,1.463,1.6049,0.1419,A
516,0.49684,1.2,1,0.29473,0.37894,0.73262,516,2.30734,-0.184,-0.09263,0.40421,5,2U1D,2.0,True,0.334,72,False,right,0.16842,0.2595,0.7257,0.4663,1.3347,2.0594,0.7247,A
517,0.49684,1.2,2,0.27789,0.38736,0.51368,517,1.95366,-0.44,-0.21895,0.27789,5,2D1U,1.0,True,0.184,75,True,left,-0.08421,1.2976,1.5399,0.2422,0.2819,0.7574,0.4756,A
518,0.49684,0.1,2,0.31158,0.26947,0.83368,518,2.34946,-0.13,-0.06737,0.43789,5,2U1D,1.0,True,0.303,73,True,left,0.16842,1.7066,2.0066,0.3,0.3566,0.7481,0.3915,A
519,0.49684,0.1,2,0.29473,0.37894,0.74105,519,2.21471,-0.386,-0.19368,0.30315,5,2D1U,1.0,True,0.179,76,True,left,-0.08421,1.4724,1.6389,0.1665,0.4638,0.6059,0.1421,A
520,0.49684,1.2,1,0.32,0.37894,0.65684,520,2.29051,-0.13,-0.06737,0.43789,5,2U1D,2.0,True,0.142,73,True,right,0.16842,0.2809,0.7811,0.5002,1.3146,2.0395,0.7249,A
521,0.49684,1.2,2,0.32,0.44631,0.75789,521,2.32419,-0.386,-0.19368,0.30315,5,2D1U,1.0,True,0.397,76,True,left,-0.08421,1.5851,1.8523,0.2672,0.3267,0.8019,0.4751,A
522,0.49684,0.1,1,0.21895,0.2021,0.49684,522,1.87788,-0.076,-0.0421,0.46315,5,2U1D,2.0,True,0.227,73,False,right,0.16842,0.352,0.5436,0.1916,1.085,1.4769,0.3919,A
523,0.49684,0.1,2,0.43789,0.2021,0.69052,523,2.2905,-0.076,-0.0421,0.46315,5,2U1D,2.0,False,0.23,73,False,right,-0.08421,1.5627,1.8876,0.3249,0.6034,0.7456,0.1422,A
524,0.49684,1.2,2,0.35368,0.29473,0.78315,524,2.36629,-0.13,-0.06737,0.43789,5,2U1D,1.0,True,0.196,74,True,left,0.16842,1.7659,2.1656,0.3997,0.2322,0.9577,0.7254,A
525,0.49684,1.2,2,0.32842,0.40421,0.77473,525,2.34104,-0.332,-0.16842,0.33684,5,2D1U,1.0,True,0.286,76,False,left,-0.08421,1.607,1.9068,0.2997,0.3323,0.8071,0.4748,A
526,0.49684,0.1,2,0.32842,0.38736,0.45473,526,2.00419,-0.332,-0.16842,0.33684,5,2D1U,1.0,True,0.366,76,False,left,0.16842,1.3456,1.546,0.2004,0.3707,0.7631,0.3924,A
527,0.49684,0.1,1,0.42947,0.28631,0.82526,527,2.47577,-0.13,-0.06737,0.43789,5,2U1D,1.0,False,0.297,74,True,left,-0.08421,0.5543,0.7206,0.1663,1.7124,1.8554,0.143,A
528,0.49684,1.2,1,0.40421,0.22737,0.6821,528,2.17262,-0.278,-0.14316,0.3621,5,2D1U,2.0,True,0.235,76,False,right,0.16842,0.3689,0.795,0.4261,1.3522,2.0777,0.7254,A
529,0.49684,1.2,1,0.35368,0.31158,0.7242,529,2.29051,-0.184,-0.09263,0.40421,5,2U1D,1.0,False,0.4,74,False,left,-0.08421,0.3155,0.7823,0.4668,1.5071,1.9825,0.4754,A
530,0.49684,0.1,1,0.31158,0.42105,0.81683,530,2.42524,-0.238,-0.11789,0.37894,5,2U1D,2.0,True,0.155,74,False,right,0.16842,0.4443,0.5526,0.1083,1.4109,1.8031,0.3921,A
531,0.49684,0.1,2,0.33684,0.23579,0.53894,531,1.97051,-0.278,-0.14316,0.3621,5,2D1U,1.0,True,0.287,76,False,left,-0.08421,1.3151,1.5402,0.2251,0.5064,0.6478,0.1414,A
532,0.49684,1.2,1,0.26105,0.26947,0.74947,532,2.16419,-0.224,-0.10947,0.38736,5,2D1U,2.0,True,0.27,76,False,right,0.16842,0.2264,0.6761,0.4498,1.3015,2.0265,0.725,A
533,0.49684,1.2,1,0.41263,0.32842,0.43789,533,2.05472,-0.238,-0.11789,0.37894,5,2U1D,1.0,False,0.217,74,False,left,-0.08421,0.3737,0.8148,0.4411,1.2573,1.7322,0.4749,A
534,0.49684,0.1,2,0.32,0.37894,0.58947,534,2.17261,-0.224,-0.10947,0.38736,5,2D1U,1.0,True,0.362,76,False,left,0.16842,1.474,1.7234,0.2494,0.366,0.7566,0.3907,A
535,0.49684,0.1,2,0.44631,0.38736,0.53894,535,2.28208,-0.17,-0.08421,0.41263,5,2D1U,2.0,False,0.112,76,False,right,-0.08421,1.4256,1.7005,0.2749,0.617,0.7587,0.1417,A
536,0.49684,1.2,1,0.21895,0.31158,0.54736,536,1.96209,-0.224,-0.10947,0.38736,5,2D1U,2.0,True,0.132,77,True,right,0.16842,0.1794,0.6293,0.4499,1.0547,1.7805,0.7258,A
537,0.49684,1.2,2,0.31158,0.37052,0.53894,537,2.10524,-0.224,-0.10947,0.38736,5,2D1U,1.0,True,0.224,77,True,left,-0.08421,1.3573,1.7075,0.3502,0.3157,0.7908,0.4751,A
538,0.49684,0.1,1,0.34526,0.21052,0.82526,538,2.23156,-0.292,-0.14316,0.35368,5,2U1D,2.0,True,0.261,74,False,right,0.16842,0.4762,0.5603,0.0841,1.4265,1.8182,0.3917,A
539,0.49684,0.1,2,0.44631,0.38736,0.8842,539,2.62734,-0.17,-0.08421,0.41263,5,2D1U,2.0,False,0.556,78,True,right,-0.08421,1.7639,2.0386,0.2747,0.6138,0.7551,0.1413,A
540,0.49684,1.2,1,0.21052,0.26105,0.73262,540,2.08839,-0.224,-0.10947,0.38736,5,2D1U,2.0,True,0.315,79,True,right,0.16842,0.1731,0.6234,0.4503,1.2318,1.9564,0.7246,A
541,0.49684,1.2,2,0.33684,0.21895,0.69894,541,2.10525,-0.292,-0.14316,0.35368,5,2U1D,1.0,True,0.565,74,False,left,-0.08421,1.5399,1.8563,0.3164,0.3399,0.8157,0.4758,A
542,0.49684,0.1,1,0.42105,0.23579,0.67368,542,2.21472,-0.224,-0.10947,0.38736,5,2D1U,2.0,True,0.199,79,True,right,0.16842,0.5456,0.6623,0.1167,1.3791,1.7705,0.3914,A
543,0.49684,0.1,1,0.44631,0.26105,0.63157,543,2.2484,-0.17,-0.08421,0.41263,5,2D1U,2.0,True,0.735,80,True,right,-0.08421,0.5727,0.7139,0.1412,1.514,1.6556,0.1416,A
544,0.49684,1.2,2,0.42947,0.32842,0.5642,544,2.19787,-0.238,-0.11789,0.37894,5,2U1D,1.0,True,0.206,75,True,left,0.16842,1.6219,1.9633,0.3414,0.3047,1.0303,0.7256,A
545,0.49684,1.2,1,0.26947,0.35368,0.8421,545,2.34103,-0.238,-0.11789,0.37894,5,2U1D,2.0,True,0.654,75,True,right,-0.08421,0.232,0.6736,0.4415,1.5153,1.9902,0.4749,A
546,0.49684,0.1,1,0.21052,0.44631,0.74947,546,2.30735,-0.184,-0.09263,0.40421,5,2U1D,2.0,True,0.178,75,False,right,0.16842,0.3376,0.471,0.1334,1.2626,1.6547,0.3921,A
547,0.49684,0.1,2,0.24421,0.37052,0.85052,547,2.37472,-0.17,-0.08421,0.41263,5,2D1U,2.0,False,0.349,80,True,right,-0.08421,1.5301,1.8055,0.2754,0.4137,0.5553,0.1415,A
548,0.49684,1.2,2,0.26947,0.22737,0.82526,548,2.2063,-0.224,-0.10947,0.38736,5,2D1U,1.0,True,0.413,81,True,left,0.16842,1.7286,2.0778,0.3492,0.1528,0.8785,0.7257,A
549,0.49684,1.2,1,0.44631,0.21052,0.40421,549,1.96209,-0.184,-0.09263,0.40421,5,2U1D,1.0,False,0.526,75,False,left,-0.08421,0.4117,0.878,0.4663,1.2865,1.7623,0.4758,A
550,0.49684,0.1,2,0.34526,0.32842,0.69894,550,2.25682,-0.224,-0.10947,0.38736,5,2D1U,1.0,True,0.261,81,True,left,0.16842,1.606,1.8559,0.2499,0.389,0.7805,0.3915,A
551,0.49684,0.1,2,0.38736,0.33684,0.79999,551,2.39997,-0.238,-0.11789,0.37894,5,2U1D,2.0,False,0.109,76,True,right,-0.08421,1.6262,1.8682,0.2421,0.5599,0.7015,0.1416,A
552,0.49684,1.2,2,0.25263,0.44631,0.8421,552,2.45051,-0.17,-0.08421,0.41263,5,2D1U,2.0,False,0.216,82,True,right,0.16842,1.724,2.0995,0.3755,0.1323,0.8576,0.7253,A
553,0.49684,1.2,2,0.27789,0.2021,0.59789,553,1.96208,-0.224,-0.10947,0.38736,5,2D1U,1.0,True,0.3,83,True,left,-0.08421,1.3855,1.735,0.3495,0.2851,0.7601,0.475,A
554,0.49684,0.1,2,0.23579,0.3621,0.6821,554,2.13051,-0.292,-0.14316,0.35368,5,2U1D,1.0,True,0.243,76,False,left,0.16842,1.4817,1.6986,0.2169,0.2815,0.6736,0.3921,A
555,0.49684,0.1,1,0.25263,0.41263,0.50526,555,2.05472,-0.224,-0.10947,0.38736,5,2D1U,2.0,True,0.126,83,True,right,-0.08421,0.3848,0.5013,0.1165,1.1768,1.3182,0.1415,A
556,0.49684,1.2,2,0.22737,0.29473,0.82526,556,2.25683,-0.17,-0.08421,0.41263,5,2D1U,2.0,False,0.296,84,True,right,0.16842,1.6818,2.057,0.3752,0.1069,0.8316,0.7247,A
557,0.49684,1.2,1,0.26105,0.26105,0.40421,557,1.81051,-0.224,-0.10947,0.38736,5,2D1U,1.0,False,0.76,85,True,left,-0.08421,0.2244,0.6735,0.4491,1.0825,1.5566,0.4741,A
558,0.49684,0.1,1,0.2021,0.38736,0.75789,558,2.19787,-0.292,-0.14316,0.35368,5,2U1D,2.0,True,0.208,76,False,right,0.16842,0.331,0.4142,0.0832,1.2142,1.6059,0.3917,A
559,0.49684,0.1,1,0.44631,0.27789,0.77473,559,2.35787,-0.278,-0.14316,0.3621,5,2D1U,2.0,True,0.32,85,False,right,-0.08421,0.571,0.663,0.092,1.6049,1.7462,0.1413,A
560,0.49684,1.2,1,0.26947,0.3621,0.58947,560,2.09682,-0.238,-0.11789,0.37894,5,2U1D,2.0,True,0.136,77,True,right,0.16842,0.2317,0.6732,0.4415,1.1399,1.8648,0.7249,A
561,0.49684,1.2,1,0.28631,0.39579,0.50526,561,2.0463,-0.278,-0.14316,0.3621,5,2D1U,2.0,True,0.105,85,False,right,-0.08421,0.2487,0.6737,0.4249,1.1825,1.6575,0.475,A
562,0.49684,0.1,2,0.33684,0.37894,0.51368,562,2.10524,-0.238,-0.11789,0.37894,5,2U1D,1.0,True,0.445,77,True,left,0.16842,1.4116,1.6538,0.2423,0.3786,0.7706,0.392,A
563,0.49684,0.1,2,0.32842,0.26947,0.81683,563,2.29892,-0.224,-0.10947,0.38736,5,2D1U,1.0,True,0.353,86,True,left,-0.08421,1.5819,1.8327,0.2508,0.4985,0.64,0.1416,A
564,0.49684,1.2,2,0.22737,0.27789,0.78315,564,2.18946,-0.184,-0.09263,0.40421,5,2U1D,1.0,True,0.462,77,False,left,0.16842,1.6375,2.0041,0.3666,0.1043,0.8291,0.7248,A
565,0.49684,1.2,1,0.34526,0.21052,0.60631,565,2.04629,-0.224,-0.10947,0.38736,5,2D1U,2.0,True,0.314,86,True,right,-0.08421,0.3058,0.7559,0.4501,1.3638,1.839,0.4752,A
566,0.49684,0.1,1,0.21895,0.29473,0.57263,566,1.99578,-0.17,-0.08421,0.41263,5,2D1U,2.0,True,0.158,86,False,right,0.16842,0.3509,0.4926,0.1417,1.1092,1.5008,0.3916,A
567,0.49684,0.1,1,0.43789,0.22737,0.70736,567,2.28209,-0.17,-0.08421,0.41263,5,2D1U,1.0,False,1.076,86,False,left,-0.08421,0.5694,0.7115,0.1421,1.5862,1.7274,0.1412,A
568,0.49684,1.2,1,0.30315,0.35368,0.81683,568,2.37471,-0.184,-0.09263,0.40421,5,2U1D,2.0,True,0.208,77,False,right,0.16842,0.2647,0.7318,0.4671,1.4228,2.148,0.7252,A
569,0.49684,1.2,1,0.33684,0.32842,0.78315,569,2.38314,-0.13,-0.06737,0.43789,5,2U1D,1.0,False,0.616,77,False,left,-0.08421,0.3024,0.803,0.5006,1.586,2.0606,0.4746,A
570,0.49684,0.1,2,0.25263,0.40421,0.75789,570,2.29893,-0.224,-0.10947,0.38736,5,2D1U,1.0,True,0.899,87,True,left,0.16842,1.5753,1.8243,0.249,0.2994,0.6922,0.3928,A
571,0.49684,0.1,2,0.21052,0.38736,0.53052,571,2.0126,-0.224,-0.10947,0.38736,5,2D1U,2.0,False,0.217,87,True,right,-0.08421,1.1819,1.4319,0.25,0.3822,0.5236,0.1414,A
572,0.49684,1.2,1,0.33684,0.22737,0.61473,572,2.07999,-0.184,-0.09263,0.40421,5,2U1D,2.0,True,0.258,78,True,right,0.16842,0.2964,0.7631,0.4667,1.2548,1.98,0.7252,A
573,0.49684,1.2,1,0.42947,0.34526,0.61473,573,2.2484,-0.278,-0.14316,0.3621,5,2D1U,2.0,True,0.199,87,False,right,-0.08421,0.3902,0.8154,0.4252,1.4319,1.907,0.475,A
574,0.49684,0.1,2,0.2021,0.26105,0.8421,574,2.2063,-0.184,-0.09263,0.40421,5,2U1D,1.0,True,0.317,78,True,left,0.16842,1.6108,1.8776,0.2668,0.2524,0.6439,0.3915,A
575,0.49684,0.1,2,0.31158,0.22737,0.49684,575,1.89473,-0.278,-0.14316,0.3621,5,2D1U,1.0,True,0.316,87,False,left,-0.08421,1.253,1.4776,0.2246,0.4856,0.6276,0.1419,A
576,0.49684,1.2,1,0.40421,0.21052,0.74947,576,2.29893,-0.13,-0.06737,0.43789,5,2U1D,1.0,False,0.492,79,True,left,0.16842,0.3644,0.8638,0.4995,1.4888,2.2137,0.725,A
577,0.49684,1.2,1,0.23579,0.21895,0.66526,577,2.02105,-0.184,-0.09263,0.40421,5,2U1D,2.0,True,0.277,80,True,right,-0.08421,0.2019,0.6686,0.4667,1.3365,1.8112,0.4747,A
578,0.49684,0.1,2,0.29473,0.21052,0.70736,578,2.11366,-0.184,-0.09263,0.40421,5,2U1D,2.0,False,0.427,80,True,right,0.16842,1.5632,1.8293,0.266,0.337,0.7291,0.3921,A
579,0.49684,0.1,2,0.33684,0.33684,0.59789,579,2.15577,-0.224,-0.10947,0.38736,5,2D1U,1.0,True,0.31,88,True,left,-0.08421,1.373,1.6231,0.2502,0.5068,0.6477,0.1408,A
580,0.49684,1.2,2,0.42105,0.32842,0.83368,580,2.46735,-0.224,-0.10947,0.38736,5,2D1U,2.0,False,0.254,88,True,right,0.16842,1.8855,2.2359,0.3504,0.302,1.0275,0.7255,A
581,0.49684,1.2,1,0.33684,0.31158,0.69894,581,2.22314,-0.238,-0.11789,0.37894,5,2U1D,2.0,True,0.107,80,False,right,-0.08421,0.2957,0.7372,0.4415,1.4375,1.9118,0.4743,A
582,0.49684,0.1,1,0.33684,0.28631,0.69052,582,2.17261,-0.278,-0.14316,0.3621,5,2D1U,2.0,True,0.307,89,True,right,0.16842,0.4643,0.5556,0.0914,1.2895,1.6807,0.3912,A
583,0.49684,0.1,2,0.44631,0.27789,0.45473,583,2.05471,-0.238,-0.11789,0.37894,5,2U1D,1.0,True,0.199,80,False,left,-0.08421,1.3397,1.582,0.2423,0.6154,0.7571,0.1416,A
584,0.49684,1.2,1,0.40421,0.21052,0.73262,584,2.20629,-0.278,-0.14316,0.3621,5,2D1U,2.0,True,0.125,89,True,right,0.16842,0.3618,0.787,0.4252,1.3952,2.1205,0.7253,A
585,0.49684,1.2,1,0.38736,0.42105,0.78315,585,2.47576,-0.224,-0.10947,0.38736,5,2D1U,2.0,True,0.166,90,True,right,-0.08421,0.3531,0.8034,0.4504,1.5862,2.0617,0.4754,A
586,0.49684,0.1,2,0.32,0.38736,0.64841,586,2.25682,-0.184,-0.09263,0.40421,5,2U1D,1.0,True,1.736,81,True,left,0.16842,1.5296,1.7963,0.2667,0.3621,0.7543,0.3921,A
587,0.49684,0.1,1,0.27789,0.32842,0.51368,587,2.00419,-0.224,-0.10947,0.38736,5,2D1U,2.0,True,0.202,90,True,right,-0.08421,0.4041,0.5213,0.1172,1.2043,1.3462,0.1419,A
588,0.49684,1.2,1,0.32842,0.2021,0.62315,588,2.05472,-0.184,-0.09263,0.40421,5,2U1D,2.0,True,0.248,81,True,right,0.16842,0.2916,0.7585,0.4669,1.258,1.9839,0.7259,A
589,0.49684,1.2,2,0.30315,0.21895,0.66526,589,2.12209,-0.13,-0.06737,0.43789,5,2U1D,2.0,False,0.411,81,False,right,-0.08421,1.472,1.8723,0.4003,0.3055,0.7809,0.4754,A
590,0.49684,0.1,2,0.32,0.28631,0.51368,590,2.02946,-0.17,-0.08421,0.41263,5,2D1U,1.0,True,0.329,90,False,left,0.16842,1.3972,1.6716,0.2743,0.3641,0.7547,0.3906,A
591,0.49684,0.1,2,0.31158,0.27789,0.63999,591,2.13893,-0.17,-0.08421,0.41263,5,2D1U,2.0,False,0.281,90,False,right,-0.08421,1.395,1.6691,0.2741,0.4868,0.6276,0.1408,A
592,0.49684,1.2,2,0.28631,0.26105,0.45473,592,1.90314,-0.184,-0.09263,0.40421,5,2U1D,1.0,True,1.583,82,True,left,0.16842,1.3768,1.7431,0.3662,0.1679,0.8934,0.7255,A
593,0.49684,1.2,2,0.28631,0.42105,0.81683,593,2.42524,-0.184,-0.09263,0.40421,5,2U1D,2.0,False,0.184,82,True,right,-0.08421,1.6052,1.9714,0.3661,0.2883,0.7633,0.475,A
594,0.49684,0.1,1,0.41263,0.43789,0.48,594,2.2063,-0.238,-0.11789,0.37894,5,2U1D,2.0,True,0.506,82,False,right,0.16842,0.5438,0.6523,0.1085,1.1775,1.569,0.3914,A
595,0.49684,0.1,2,0.28631,0.35368,0.8842,595,2.39997,-0.238,-0.11789,0.37894,5,2U1D,1.0,True,0.25,82,False,left,-0.08421,1.6068,1.8486,0.2418,0.457,0.5984,0.1414,A
596,0.49684,1.2,2,0.38736,0.35368,0.63157,596,2.27366,-0.184,-0.09263,0.40421,5,2U1D,2.0,False,0.154,83,True,right,0.16842,1.6523,2.0189,0.3666,0.2686,0.9942,0.7255,A
597,0.49684,1.2,1,0.21052,0.33684,0.59789,597,2.02103,-0.238,-0.11789,0.37894,5,2U1D,2.0,True,0.133,84,True,right,-0.08421,0.174,0.6156,0.4416,1.216,1.6904,0.4743,A
598,0.49684,0.1,1,0.32,0.39579,0.57263,598,2.1642,-0.238,-0.11789,0.37894,5,2U1D,1.0,False,0.311,84,True,left,0.16842,0.4487,0.5571,0.1083,1.1738,1.5656,0.3918,A
599,0.49684,0.1,2,0.34526,0.28631,0.63157,599,2.11366,-0.292,-0.14316,0.35368,5,2U1D,2.0,False,0.144,84,False,right,-0.08421,1.4163,1.6328,0.2164,0.5162,0.6573,0.1411,A
600,0.49684,1.2,2,0.21052,0.32,0.5221,600,1.87788,-0.346,-0.17684,0.32842,5,2U1D,1.0,True,0.148,84,False,left,0.16842,1.3648,1.6571,0.2923,0.0902,0.8156,0.7255,A
601,0.49684,1.2,2,0.43789,0.26105,0.54736,601,2.07156,-0.346,-0.17684,0.32842,5,2U1D,1.0,True,0.312,84,False,left,-0.08421,1.489,1.7808,0.2918,0.4393,0.9151,0.4758,A
602,0.49684,0.1,1,0.33684,0.42105,0.42947,602,2.03788,-0.292,-0.14316,0.35368,5,2U1D,2.0,True,0.705,85,True,right,0.16842,0.4626,0.5452,0.0827,1.0208,1.412,0.3912,A
603,0.49684,0.1,1,0.42105,0.40421,0.42947,603,2.10525,-0.292,-0.14316,0.35368,5,2U1D,2.0,True,0.341,85,True,right,-0.08421,0.5473,0.6309,0.0836,1.2313,1.3726,0.1413,A
604,0.49684,1.2,1,0.28631,0.26947,0.85894,604,2.2905,-0.238,-0.11789,0.37894,5,2U1D,1.0,False,0.326,85,False,left,0.16842,0.2485,0.6902,0.4417,1.4238,2.1485,0.7247,A
