,standardDur,audNoise,order,preDur,postDur,isiDur,trial_num,totalDur,delta_dur_percents,deltaDurS,testDurS,intensities,current_stair,responses,is_correct,response_rts,stair_num_reversal,stair_is_reversal,response_keys,conflictDur,recordedOnsetVisualTest,recordedOffsetVisualTest,recordedDurVisualTest,recordedOnsetVisualStandard,recordedOffsetVisualStandard,recordedDurVisualStandard,modalityCue
0,0.50002,1.2,1,0.39168,0.33335,0.52502,0,2.60011,0.7,0.35002,0.85004,5,2D1U,1.0,True,8.721,0,False,left,0.08334,0.3589,1.2765,0.9176,1.7257,2.3758,0.6501,A
1,0.50002,1.2,2,0.43335,0.44169,0.8167,1,2.34177,-0.7,-0.35002,0.15001,5,2U1D,1.0,True,1.357,0,False,left,-0.25001,1.6938,1.8107,0.1169,0.5275,0.8439,0.3164,A
2,0.50002,0.1,2,0.23334,0.42502,0.68336,2,1.94174,-0.8,-0.40002,0.1,5,lapse_rate,2.0,False,4.13,0,False,right,0.08334,1.4611,1.4275,-0.0336,0.3274,0.6441,0.3168,A
3,0.50002,0.1,2,0.33335,0.40002,0.82504,3,2.90847,0.7,0.35002,0.85004,5,2D1U,2.0,True,0.632,0,False,right,-0.25001,1.5319,2.2487,0.7168,0.5902,0.5736,-0.0166,A
4,0.50002,0.1,2,0.28335,0.42502,0.65836,4,2.01676,-0.7,-0.35002,0.15001,5,2U1D,1.0,True,1.615,0,False,left,0.08334,1.4833,1.4998,0.0165,0.3753,0.6916,0.3163,A
5,0.50002,1.2,2,0.35002,0.35835,0.45002,5,2.55845,0.8,0.40002,0.90004,5,lapse_rate,1.0,False,3.461,0,False,left,-0.25001,1.2396,2.1061,0.8666,0.4398,0.7561,0.3163,A
6,0.50002,1.2,2,0.29168,0.25001,0.52502,6,1.79174,-0.55,-0.27501,0.22501,5,2U1D,1.0,True,0.897,0,False,left,0.08334,1.4219,1.6135,0.1916,0.2136,0.8635,0.6499,A
7,0.50002,1.2,2,0.26668,0.20001,0.72503,7,2.46677,0.55,0.27501,0.77503,5,2D1U,2.0,True,1.342,0,False,right,-0.25001,1.4315,2.1734,0.7419,0.3567,0.6732,0.3166,A
8,0.50002,0.1,1,0.20001,0.32501,0.42502,8,1.55006,-0.8,-0.40002,0.1,5,lapse_rate,2.0,True,1.419,0,False,right,0.08334,0.3333,0.1668,-0.1664,0.6834,1.0004,0.317,A
9,0.50002,0.1,2,0.20834,0.21668,0.7417,9,1.89175,-0.55,-0.27501,0.22501,5,2U1D,1.0,True,0.35,0,False,left,-0.25001,1.3218,1.4133,0.0916,0.4634,0.4468,-0.0166,A
10,0.50002,0.1,2,0.26668,0.36668,0.50836,10,2.41677,0.55,0.27501,0.77503,5,2D1U,2.0,True,0.298,0,False,right,0.08334,1.3148,1.9564,0.6416,0.3564,0.6731,0.3167,A
11,0.50002,1.2,2,0.42502,0.37502,0.56669,11,2.16676,-0.4,-0.20001,0.30001,5,2U1D,1.0,True,0.464,0,False,left,-0.25001,1.4316,1.6983,0.2668,0.5151,0.8317,0.3167,A
12,0.50002,1.2,1,0.40002,0.44169,0.85837,12,2.90013,0.4,0.20001,0.70003,5,2D1U,2.0,False,3.118,0,False,right,0.08334,0.3624,1.1294,0.767,1.9124,2.5623,0.6499,A
13,0.50002,1.2,1,0.25834,0.45002,0.8667,13,2.17508,-0.8,-0.40002,0.1,5,lapse_rate,1.0,False,4.184,0,False,left,-0.25001,0.2241,0.3912,0.1671,1.349,1.6659,0.3169,A
14,0.50002,0.1,2,0.25001,0.37502,0.8167,14,2.24176,-0.4,-0.20001,0.30001,5,2U1D,1.0,True,0.396,0,False,left,0.08334,1.6055,1.7722,0.1667,0.3387,0.6556,0.3168,A
15,0.50002,0.1,2,0.26668,0.25834,0.59169,15,2.51677,0.8,0.40002,0.90004,5,lapse_rate,2.0,True,0.411,0,False,right,-0.25001,1.2286,1.9952,0.7667,0.5202,0.5037,-0.0165,A
16,0.50002,0.1,2,0.38335,0.35002,0.8667,16,2.84179,0.49,0.24168,0.7417,5,2D1U,1.0,False,1.25,1,True,left,0.08334,1.7923,2.4006,0.6083,0.4757,0.7923,0.3167,A
17,0.50002,1.2,1,0.25001,0.20001,0.40835,17,2.15009,0.58,0.29168,0.7917,5,2D1U,1.0,True,0.395,1,False,left,-0.25001,0.2153,1.074,0.8587,1.5736,1.8903,0.3166,A
18,0.50002,1.2,2,0.29168,0.25001,0.7417,18,2.68345,0.8,0.40002,0.90004,5,lapse_rate,2.0,True,2.563,0,False,right,0.08334,1.6378,2.5047,0.8669,0.213,0.863,0.65,A
19,0.50002,1.2,2,0.21668,0.41669,0.80837,19,2.31678,-0.25,-0.12501,0.37502,5,2U1D,1.0,True,1.431,0,False,left,-0.25001,1.4655,1.8075,0.3421,0.3071,0.624,0.3169,A
20,0.50002,0.1,2,0.29168,0.32501,0.51669,20,2.4251,0.58,0.29168,0.7917,5,2D1U,2.0,True,0.337,1,False,right,0.08334,1.3454,2.0031,0.6576,0.3787,0.6956,0.3169,A
21,0.50002,1.2,1,0.30001,0.20834,0.51669,21,1.62506,-0.8,-0.40002,0.1,5,lapse_rate,2.0,True,1.456,0,False,right,-0.25001,0.2644,0.4311,0.1667,1.0394,1.3561,0.3167,A
22,0.50002,0.1,2,0.36668,0.35002,0.8667,22,2.45844,-0.25,-0.12501,0.37502,5,2U1D,1.0,True,0.454,0,False,left,0.08334,1.7756,2.0172,0.2416,0.4589,0.7759,0.317,A
23,0.50002,1.2,2,0.39168,0.38335,0.60836,23,2.65011,0.526,0.26668,0.7667,5,2D1U,2.0,True,0.268,2,True,right,-0.25001,1.4389,2.1722,0.7333,0.4806,0.7971,0.3165,A
24,0.50002,1.2,1,0.40002,0.20001,0.46669,24,2.01676,-0.1,-0.05,0.45002,5,2U1D,2.0,True,0.5,0,False,right,0.08334,0.3685,0.8852,0.5167,1.2771,1.9268,0.6497,A
25,0.50002,0.1,2,0.20834,0.40835,0.44169,25,1.6584,-0.8,-0.40002,0.1,5,lapse_rate,1.0,True,0.498,0,False,left,-0.25001,1.0275,0.9946,-0.0329,0.4691,0.4524,-0.0167,A
26,0.50002,0.1,2,0.43335,0.31668,0.49169,26,2.19176,-0.1,-0.05,0.45002,5,2U1D,2.0,False,0.331,0,False,right,0.08334,1.4641,1.7806,0.3165,0.5227,0.8389,0.3162,A
27,0.50002,1.2,2,0.38335,0.34168,0.62503,27,1.95008,-0.8,-0.40002,0.1,5,lapse_rate,1.0,True,0.841,0,False,left,-0.25001,1.4472,1.5136,0.0664,0.4719,0.7889,0.317,A
28,0.50002,0.1,2,0.43335,0.40835,0.7167,28,2.82512,0.526,0.26668,0.7667,5,2D1U,2.0,True,0.319,2,True,right,0.08334,1.6934,2.3264,0.633,0.5263,0.8434,0.3171,A
29,0.50002,1.2,2,0.35002,0.38335,0.53336,29,2.50012,0.472,0.23334,0.73337,5,2D1U,2.0,True,0.214,2,False,right,-0.25001,1.3211,2.0209,0.6998,0.4376,0.7542,0.3166,A
30,0.50002,0.1,1,0.34168,0.39168,0.60003,30,2.73345,0.8,0.40002,0.90004,5,lapse_rate,1.0,True,0.22,0,False,left,0.08334,0.4752,1.1094,0.6342,1.8013,2.1171,0.3158,A
31,0.50002,1.2,1,0.21668,0.35835,0.52502,31,2.00842,-0.19,-0.09167,0.40835,5,2U1D,1.0,False,0.416,1,True,left,-0.25001,0.1802,0.6562,0.4761,1.2724,1.5896,0.3172,A
32,0.50002,0.1,2,0.30001,0.20834,0.44169,32,1.55006,-0.8,-0.40002,0.1,5,lapse_rate,1.0,True,0.344,0,False,left,0.08334,1.2782,1.2461,-0.0321,0.3878,0.7037,0.3159,A
33,0.50002,0.1,1,0.20834,0.26668,0.54169,33,1.87508,-0.28,-0.14167,0.35835,5,2U1D,2.0,True,0.242,1,False,right,-0.25001,0.3431,0.4348,0.0917,1.2348,1.218,-0.0168,A
34,0.50002,0.1,2,0.37502,0.40002,0.7917,34,2.80013,0.472,0.23334,0.73337,5,2D1U,2.0,True,0.459,2,False,right,0.08334,1.7044,2.3049,0.6005,0.464,0.7806,0.3166,A
35,0.50002,1.2,2,0.23334,0.22501,0.80004,35,2.65845,0.8,0.40002,0.90004,5,lapse_rate,2.0,True,0.112,0,False,right,-0.25001,1.4727,2.3401,0.8674,0.3234,0.64,0.3166,A
36,0.50002,1.2,1,0.28335,0.30001,0.65836,36,2.4501,0.418,0.20834,0.70836,5,2D1U,1.0,True,0.224,2,False,left,0.08334,0.2532,1.0277,0.7745,1.6109,2.2608,0.65,A
37,0.50002,1.2,1,0.40835,0.20834,0.44169,37,1.91675,-0.28,-0.14167,0.35835,5,2U1D,2.0,True,0.57,1,False,right,-0.25001,0.3782,0.8038,0.4255,1.3367,1.6537,0.3169,A
38,0.50002,0.1,1,0.42502,0.40002,0.77503,38,2.80845,0.418,0.20834,0.70836,5,2D1U,1.0,True,0.363,2,False,left,0.08334,0.5546,0.9963,0.4418,1.8625,2.1795,0.317,A
39,0.50002,0.1,1,0.35835,0.43335,0.63336,39,2.30843,-0.226,-0.11667,0.38335,5,2U1D,2.0,True,0.365,2,True,right,-0.25001,0.4878,0.6055,0.1177,1.496,1.4797,-0.0163,A
40,0.50002,0.1,2,0.28335,0.43335,0.60836,40,1.92508,-0.8,-0.40002,0.1,5,lapse_rate,1.0,True,0.314,0,False,left,0.08334,1.4301,1.3969,-0.0332,0.3727,0.6888,0.3161,A
41,0.50002,1.2,1,0.30001,0.30001,0.80004,41,2.28343,-0.226,-0.11667,0.38335,5,2U1D,2.0,True,0.316,2,True,right,-0.25001,0.2691,0.7189,0.4498,1.6102,1.927,0.3168,A
42,0.50002,0.1,1,0.36668,0.30001,0.62503,42,1.89174,-0.8,-0.40002,0.1,5,lapse_rate,2.0,True,0.17,0,False,right,0.08334,0.4978,0.3308,-0.167,1.0469,1.3642,0.3172,A
43,0.50002,1.2,2,0.20834,0.34168,0.59169,43,2.32509,0.364,0.18334,0.68336,5,2D1U,1.0,False,0.12,2,False,left,-0.25001,1.2388,1.8884,0.6497,0.2965,0.613,0.3164,A
44,0.50002,0.1,1,0.26668,0.44169,0.44169,44,2.06677,-0.172,-0.08334,0.41669,5,2U1D,2.0,True,0.167,2,False,right,0.08334,0.3995,0.5495,0.15,1.0828,1.399,0.3162,A
45,0.50002,0.1,2,0.31668,0.35002,0.45002,45,2.3251,0.418,0.20834,0.70836,5,2D1U,2.0,True,0.62,3,True,right,-0.25001,1.1436,1.7178,0.5742,0.5765,0.56,-0.0165,A
46,0.50002,0.1,2,0.26668,0.33335,0.48335,46,2.48344,0.8,0.40002,0.90004,5,lapse_rate,2.0,True,0.332,0,False,right,0.08334,1.2935,2.06,0.7664,0.3602,0.6768,0.3167,A
47,0.50002,1.2,2,0.36668,0.21668,0.52502,47,2.02509,-0.172,-0.08334,0.41669,5,2U1D,1.0,True,0.656,2,False,left,-0.25001,1.3288,1.7119,0.3831,0.453,0.7702,0.3172,A
48,0.50002,1.2,2,0.22501,0.24168,0.75837,48,2.62512,0.8,0.40002,0.90004,5,lapse_rate,2.0,True,0.192,0,False,right,0.08334,1.5881,2.4549,0.8668,0.1465,0.797,0.6505,A
49,0.50002,1.2,2,0.45002,0.25001,0.49169,49,2.4001,0.418,0.20834,0.70836,5,2D1U,2.0,True,0.235,3,True,right,-0.25001,1.3827,2.057,0.6743,0.5406,0.8577,0.3171,A
50,0.50002,0.1,1,0.44169,0.20834,0.75837,50,2.35011,-0.118,-0.05834,0.44169,5,2U1D,1.0,False,1.348,2,False,left,0.08334,0.5781,0.7529,0.1747,1.603,1.9196,0.3166,A
51,0.50002,0.1,1,0.43335,0.23334,0.56669,51,2.41676,0.364,0.18334,0.68336,5,2D1U,2.0,False,1.174,4,True,right,-0.25001,0.5648,0.9804,0.4156,1.8065,1.7897,-0.0169,A
52,0.50002,0.1,1,0.24168,0.37502,0.8167,52,2.83346,0.8,0.40002,0.90004,5,lapse_rate,1.0,True,0.647,0,False,left,0.08334,0.3718,1.0063,0.6345,1.9142,2.2305,0.3163,A
53,0.50002,1.2,2,0.41669,0.37502,0.90004,53,2.90013,0.418,0.20834,0.70836,5,2D1U,2.0,True,0.243,5,True,right,-0.25001,1.757,2.4316,0.6746,0.5069,0.8237,0.3168,A
54,0.50002,1.2,1,0.40002,0.21668,0.49169,54,2.0251,-0.172,-0.08334,0.41669,5,2U1D,1.0,False,0.498,3,True,left,0.08334,0.3643,0.848,0.4838,1.2639,1.9143,0.6504,A
55,0.50002,1.2,2,0.30835,0.25001,0.75003,55,2.70845,0.8,0.40002,0.90004,5,lapse_rate,2.0,True,0.455,0,False,right,-0.25001,1.4952,2.3618,0.8666,0.3951,0.7121,0.317,A
56,0.50002,0.1,1,0.44169,0.27501,0.53336,56,2.45844,0.418,0.20834,0.70836,5,2D1U,1.0,True,0.289,5,True,left,0.08334,0.5737,1.0158,0.442,1.6405,1.9573,0.3168,A
57,0.50002,0.1,1,0.30001,0.27501,0.60003,57,2.05842,-0.226,-0.11667,0.38335,5,2U1D,2.0,True,0.35,3,False,right,-0.25001,0.4318,0.5485,0.1167,1.407,1.3896,-0.0174,A
58,0.50002,1.2,2,0.24168,0.39168,0.59169,58,1.82507,-0.8,-0.40002,0.1,5,lapse_rate,1.0,True,0.348,0,False,left,0.08334,1.437,1.504,0.0669,0.1622,0.8118,0.6496,A
59,0.50002,1.2,1,0.35002,0.41669,0.52502,59,2.1751,-0.226,-0.11667,0.38335,5,2U1D,2.0,True,1.589,3,False,right,-0.25001,0.3159,0.766,0.4501,1.3825,1.6987,0.3162,A
60,0.50002,1.2,2,0.38335,0.25001,0.60836,60,2.4251,0.364,0.18334,0.68336,5,2D1U,2.0,True,0.862,6,True,right,0.08334,1.5988,2.2492,0.6504,0.3073,0.957,0.6498,A
61,0.50002,1.2,2,0.22501,0.25001,0.89171,61,1.96675,-0.8,-0.40002,0.1,5,lapse_rate,1.0,True,1.567,0,False,left,-0.25001,1.5537,1.6206,0.0669,0.3116,0.6292,0.3175,A
62,0.50002,0.1,1,0.39168,0.43335,0.73337,62,2.47511,-0.172,-0.08334,0.41669,5,2U1D,2.0,True,0.224,4,True,right,0.08334,0.5284,0.6779,0.1496,1.5037,1.82,0.3163,A
63,0.50002,1.2,2,0.27501,0.43335,0.72503,63,2.83345,0.8,0.40002,0.90004,5,lapse_rate,2.0,True,0.217,0,False,right,-0.25001,1.4386,2.3052,0.8667,0.363,0.6807,0.3177,A
64,0.50002,0.1,1,0.27501,0.39168,0.48335,64,2.33342,0.364,0.18334,0.68336,5,2D1U,2.0,False,1.047,6,True,right,0.08334,0.4078,0.8241,0.4164,1.3997,1.7164,0.3167,A
65,0.50002,1.2,1,0.22501,0.40835,0.70003,65,2.54177,0.418,0.20834,0.70836,5,2D1U,1.0,True,0.289,7,True,left,-0.25001,0.1901,0.9656,0.7755,1.7572,2.0743,0.317,A
66,0.50002,1.2,2,0.20001,0.30001,0.59169,66,2.00842,-0.172,-0.08334,0.41669,5,2U1D,2.0,False,0.308,4,True,right,0.08334,1.3953,1.7786,0.3833,0.1205,0.7702,0.6497,A
67,0.50002,1.2,2,0.41669,0.44169,0.82504,67,2.28344,-0.8,-0.40002,0.1,5,lapse_rate,1.0,True,0.512,0,False,left,-0.25001,1.687,1.7538,0.0668,0.5117,0.8289,0.3172,A
68,0.50002,0.1,2,0.22501,0.39168,0.45835,68,1.95841,-0.226,-0.11667,0.38335,5,2U1D,1.0,True,0.8,5,True,left,0.08334,1.2235,1.4737,0.2502,0.3155,0.6321,0.3166,A
69,0.50002,0.1,2,0.27501,0.22501,0.85004,69,2.55844,0.418,0.20834,0.70836,5,2D1U,2.0,True,0.391,7,True,right,-0.25001,1.4982,2.0736,0.5754,0.532,0.5154,-0.0166,A
70,0.50002,1.2,1,0.40835,0.27501,0.46669,70,1.75007,-0.8,-0.40002,0.1,5,lapse_rate,2.0,True,0.516,0,False,right,0.08334,0.3768,0.5429,0.1661,0.935,1.5849,0.6499,A
71,0.50002,1.2,2,0.44169,0.25001,0.42502,71,2.3001,0.364,0.18334,0.68336,5,2D1U,2.0,True,0.725,8,True,right,-0.25001,1.3047,1.9544,0.6497,0.5298,0.8454,0.3156,A
72,0.50002,1.2,2,0.33335,0.41669,0.8417,72,2.9918,0.8,0.40002,0.90004,5,lapse_rate,2.0,True,0.108,0,False,right,0.08334,1.7836,2.6502,0.8666,0.2585,0.9078,0.6493,A
73,0.50002,1.2,1,0.37502,0.20834,0.65003,73,2.11676,-0.226,-0.11667,0.38335,5,2U1D,1.0,False,0.499,5,True,left,-0.25001,0.3424,0.7921,0.4497,1.5341,1.8499,0.3159,A
74,0.50002,0.1,1,0.33335,0.25001,0.42502,74,1.86675,-0.28,-0.14167,0.35835,5,2U1D,2.0,True,0.315,5,False,right,0.08334,0.4671,0.5592,0.0922,1.0763,1.3925,0.3162,A
75,0.50002,0.1,1,0.33335,0.42502,0.40002,75,1.75841,-0.8,-0.40002,0.1,5,lapse_rate,2.0,True,0.239,0,False,right,-0.25001,0.4646,0.2983,-0.1663,0.9565,0.9404,-0.0162,A
76,0.50002,0.1,1,0.27501,0.31668,0.8417,76,2.61677,0.364,0.18334,0.68336,5,2D1U,1.0,True,0.307,8,True,left,0.08334,0.4118,0.8279,0.4162,1.7613,2.0781,0.3168,A
77,0.50002,1.2,2,0.43335,0.20834,0.7917,77,2.03341,-0.8,-0.40002,0.1,5,lapse_rate,1.0,True,0.4,0,False,left,-0.25001,1.6647,1.7314,0.0667,0.5233,0.8402,0.317,A
78,0.50002,1.2,2,0.27501,0.27501,0.6917,78,2.10009,-0.28,-0.14167,0.35835,5,2U1D,2.0,False,0.347,5,False,right,0.08334,1.5727,1.8975,0.3248,0.198,0.8483,0.6503,A
79,0.50002,1.2,1,0.26668,0.25001,0.70836,79,2.38343,0.31,0.15834,0.65836,5,2D1U,2.0,False,0.421,8,False,right,-0.25001,0.2346,0.9594,0.7248,1.7593,2.0766,0.3173,A
80,0.50002,0.1,1,0.34168,0.40002,0.58336,80,2.15843,-0.334,-0.16667,0.33335,5,2U1D,2.0,True,0.262,5,False,right,0.08334,0.4719,0.5374,0.0655,1.212,1.5291,0.3171,A
81,0.50002,0.1,2,0.31668,0.20834,0.45835,81,2.16675,0.364,0.18334,0.68336,5,2D1U,2.0,True,0.315,9,True,right,-0.25001,1.1515,1.7015,0.55,0.577,0.5598,-0.0172,A
82,0.50002,0.1,1,0.43335,0.40835,0.52502,82,2.76678,0.8,0.40002,0.90004,5,lapse_rate,2.0,False,0.254,0,False,right,0.08334,0.5648,1.1975,0.6326,1.8148,2.1309,0.3161,A
83,0.50002,1.2,2,0.38335,0.25001,0.49169,83,2.30843,0.364,0.18334,0.68336,5,2D1U,2.0,True,0.18,9,True,right,-0.25001,1.3187,1.9689,0.6502,0.477,0.7938,0.3167,A
84,0.50002,0.1,2,0.40835,0.23334,0.56669,84,2.60844,0.8,0.40002,0.90004,5,lapse_rate,2.0,True,0.287,0,False,right,0.08334,1.5147,2.2811,0.7664,0.4982,0.8151,0.3169,A
85,0.50002,1.2,1,0.40835,0.26668,0.45835,85,1.96675,-0.334,-0.16667,0.33335,5,2U1D,1.0,False,0.283,5,False,left,-0.25001,0.3777,0.7772,0.3996,1.3272,1.6444,0.3172,A
86,0.50002,0.1,2,0.39168,0.21668,0.80004,86,2.00842,-0.8,-0.40002,0.1,5,lapse_rate,2.0,False,0.416,0,False,right,0.08334,1.7323,1.699,-0.0333,0.4828,0.7991,0.3163,A
87,0.50002,0.1,1,0.40002,0.40002,0.63336,87,2.59178,0.31,0.15834,0.65836,5,2D1U,2.0,False,0.659,10,True,right,-0.25001,0.5355,0.927,0.3915,1.819,1.8022,-0.0168,A
88,0.50002,0.1,1,0.44169,0.37502,0.68336,88,2.30844,-0.388,-0.19168,0.30835,5,2U1D,2.0,True,1.601,5,False,right,0.08334,0.5726,0.6142,0.0416,1.3896,1.7063,0.3166,A
89,0.50002,1.2,2,0.26668,0.22501,0.48335,89,1.78341,-0.388,-0.19168,0.30835,5,2U1D,1.0,True,0.58,5,False,left,-0.25001,1.1911,1.4661,0.275,0.3578,0.6743,0.3166,A
90,0.50002,1.2,1,0.28335,0.37502,0.60003,90,2.44178,0.364,0.18334,0.68336,5,2D1U,1.0,True,2.551,11,True,left,0.08334,0.2456,0.995,0.7494,1.5205,2.1705,0.65,A
91,0.50002,1.2,1,0.31668,0.34168,0.48335,91,2.54177,0.8,0.40002,0.90004,5,lapse_rate,1.0,True,0.233,0,False,left,-0.25001,0.281,1.2477,0.9667,1.8229,2.1398,0.3169,A
92,0.50002,0.1,1,0.33335,0.43335,0.90004,92,2.85012,0.364,0.18334,0.68336,5,2D1U,1.0,True,4.679,11,True,left,0.08334,0.4674,0.8841,0.4167,1.8756,2.1924,0.3168,A
93,0.50002,0.1,1,0.20834,0.43335,0.43335,93,1.90841,-0.334,-0.16667,0.33335,5,2U1D,2.0,True,0.19,6,True,right,-0.25001,0.3398,0.4065,0.0666,1.098,1.0811,-0.0169,A
94,0.50002,0.1,2,0.30835,0.36668,0.50836,94,1.78341,-0.8,-0.40002,0.1,5,lapse_rate,1.0,True,0.334,0,False,left,0.08334,1.3547,1.3211,-0.0336,0.3967,0.7132,0.3165,A
95,0.50002,1.2,1,0.28335,0.21668,0.87504,95,2.53345,0.31,0.15834,0.65836,5,2D1U,2.0,False,0.159,12,True,right,-0.25001,0.2534,0.9775,0.7241,1.9448,2.2616,0.3168,A
96,0.50002,0.1,2,0.37502,0.28335,0.51669,96,2.57512,0.8,0.40002,0.90004,5,lapse_rate,2.0,True,0.354,0,False,right,0.08334,1.4353,2.2017,0.7664,0.4684,0.785,0.3166,A
97,0.50002,1.2,1,0.26668,0.32501,0.83337,97,2.25843,-0.334,-0.16667,0.33335,5,2U1D,2.0,True,3.682,6,True,right,-0.25001,0.2294,0.6293,0.3999,1.554,1.871,0.3169,A
98,0.50002,0.1,2,0.22501,0.27501,0.51669,98,2.20009,0.364,0.18334,0.68336,5,2D1U,1.0,False,7.609,13,True,left,0.08334,1.2807,1.8305,0.5498,0.3142,0.6304,0.3163,A
99,0.50002,1.2,2,0.36668,0.35002,0.56669,99,1.88341,-0.8,-0.40002,0.1,5,lapse_rate,1.0,True,0.391,0,False,left,-0.25001,1.3728,1.4389,0.0662,0.4564,0.7725,0.3161,A
100,0.50002,0.1,1,0.36668,0.40835,0.50836,100,2.14176,-0.28,-0.14167,0.35835,5,2U1D,2.0,True,0.22,6,False,right,0.08334,0.4974,0.5885,0.0911,1.189,1.5056,0.3165,A
101,0.50002,0.1,1,0.31668,0.35835,0.77503,101,2.05008,-0.8,-0.40002,0.1,5,lapse_rate,2.0,True,0.263,0,False,right,-0.25001,0.4489,0.2819,-0.167,1.3156,1.2992,-0.0164,A
102,0.50002,1.2,1,0.35002,0.36668,0.44169,102,2.01676,-0.28,-0.14167,0.35835,5,2U1D,2.0,True,0.233,6,False,right,0.08334,0.3133,0.7378,0.4245,1.104,1.7542,0.6501,A
103,0.50002,1.2,2,0.23334,0.36668,0.83337,103,2.64177,0.418,0.20834,0.70836,5,2D1U,2.0,True,0.252,13,False,right,-0.25001,1.5113,2.1861,0.6748,0.3277,0.6441,0.3164,A
104,0.50002,0.1,2,0.37502,0.36668,0.7917,104,2.74178,0.418,0.20834,0.70836,5,2D1U,2.0,True,2.259,13,False,right,0.08334,1.7066,2.2819,0.5753,0.4652,0.7817,0.3165,A
105,0.50002,1.2,2,0.25834,0.25834,0.60836,105,1.72506,-0.8,-0.40002,0.1,5,lapse_rate,1.0,True,0.301,0,False,left,-0.25001,1.3075,1.3739,0.0665,0.3488,0.6655,0.3168,A
106,0.50002,0.1,2,0.24168,0.40835,0.70003,106,2.23343,-0.226,-0.11667,0.38335,5,2U1D,2.0,False,0.502,6,False,right,0.08334,1.4818,1.7311,0.2493,0.3317,0.6489,0.3172,A
107,0.50002,1.2,2,0.26668,0.23334,0.57503,107,1.93342,-0.28,-0.14167,0.35835,5,2U1D,1.0,True,0.358,7,True,left,-0.25001,1.2834,1.6084,0.325,0.358,0.6757,0.3176,A
108,0.50002,1.2,2,0.43335,0.42502,0.70836,108,2.16675,-0.8,-0.40002,0.1,5,lapse_rate,1.0,True,0.333,0,False,left,0.08334,1.7488,1.8158,0.067,0.3573,1.0074,0.6502,A
109,0.50002,1.2,1,0.37502,0.42502,0.70003,109,2.68345,0.364,0.18334,0.68336,5,2D1U,2.0,False,0.304,14,True,right,-0.25001,0.3416,1.0917,0.7502,1.8831,2.2005,0.3174,A
110,0.50002,0.1,1,0.43335,0.35835,0.77503,110,2.96679,0.8,0.40002,0.90004,5,lapse_rate,1.0,True,0.235,0,False,left,0.08334,0.5677,1.2004,0.6328,2.0676,2.3841,0.3164,A
111,0.50002,0.1,1,0.28335,0.31668,0.64169,111,2.10009,-0.28,-0.14167,0.35835,5,2U1D,2.0,True,0.177,7,True,right,-0.25001,0.4162,0.5081,0.0919,1.4086,1.392,-0.0166,A
112,0.50002,0.1,2,0.35835,0.39168,0.65836,112,2.61677,0.418,0.20834,0.70836,5,2D1U,2.0,True,0.192,15,True,right,0.08334,1.5568,2.1318,0.575,0.4484,0.7645,0.3161,A
113,0.50002,1.2,1,0.25834,0.20834,0.46669,113,1.81674,-0.226,-0.11667,0.38335,5,2U1D,2.0,True,0.675,8,True,right,-0.25001,0.2282,0.6783,0.4502,1.2369,1.5536,0.3167,A
114,0.50002,0.1,2,0.23334,0.42502,0.62503,114,2.68345,0.8,0.40002,0.90004,5,lapse_rate,2.0,True,0.109,0,False,right,0.08334,1.3975,2.1641,0.7666,0.3223,0.6391,0.3168,A
115,0.50002,1.2,1,0.23334,0.39168,0.77503,115,2.60843,0.418,0.20834,0.70836,5,2D1U,1.0,True,0.163,15,True,left,-0.25001,0.2013,0.9761,0.7748,1.8428,2.1598,0.3169,A
116,0.50002,0.1,1,0.40002,0.21668,0.65836,116,2.45844,0.364,0.18334,0.68336,5,2D1U,2.0,False,0.485,16,True,right,0.08334,0.5296,0.9462,0.4166,1.6954,2.0126,0.3172,A
117,0.50002,0.1,1,0.43335,0.40835,0.7417,117,2.46677,-0.226,-0.11667,0.38335,5,2U1D,2.0,True,0.21,8,True,right,-0.25001,0.5676,0.6839,0.1163,1.6849,1.6683,-0.0166,A
118,0.50002,1.2,1,0.38335,0.33335,0.7917,118,2.90846,0.8,0.40002,0.90004,5,lapse_rate,2.0,False,0.699,0,False,right,0.08334,0.3483,1.3156,0.9673,2.0318,2.6812,0.6494,A
119,0.50002,0.1,1,0.26668,0.21668,0.61669,119,1.70007,-0.8,-0.40002,0.1,5,lapse_rate,2.0,True,0.615,0,False,right,-0.25001,0.3993,0.2317,-0.1675,1.1073,1.0912,-0.0161,A
120,0.50002,1.2,2,0.44169,0.35835,0.65003,120,2.65845,0.418,0.20834,0.70836,5,2D1U,2.0,True,0.9,17,True,right,0.08334,1.6996,2.3748,0.6752,0.3664,1.0168,0.6504,A
121,0.50002,1.2,1,0.29168,0.43335,0.85004,121,2.49178,-0.172,-0.08334,0.41669,5,2U1D,1.0,False,0.202,8,False,left,-0.25001,0.2614,0.7442,0.4828,1.6867,2.003,0.3163,A
122,0.50002,0.1,2,0.44169,0.44169,0.51669,122,2.60845,0.418,0.20834,0.70836,5,2D1U,2.0,True,0.108,17,True,right,0.08334,1.4987,2.0735,0.5748,0.5319,0.8485,0.3166,A
123,0.50002,1.2,1,0.41669,0.22501,0.50002,123,2.54178,0.8,0.40002,0.90004,5,lapse_rate,1.0,True,0.316,0,False,left,-0.25001,0.3869,1.3538,0.9669,1.9449,2.2624,0.3175,A
124,0.50002,0.1,1,0.26668,0.45002,0.52502,124,2.12509,-0.226,-0.11667,0.38335,5,2U1D,2.0,True,0.152,9,True,right,0.08334,0.3989,0.5158,0.1169,1.1328,1.4492,0.3164,A
125,0.50002,1.2,1,0.20001,0.31668,0.40002,125,1.80008,-0.226,-0.11667,0.38335,5,2U1D,2.0,True,0.525,9,True,right,-0.25001,0.1681,0.6179,0.4498,1.109,1.4263,0.3173,A
126,0.50002,1.2,1,0.32501,0.30835,0.50836,126,2.3251,0.364,0.18334,0.68336,5,2D1U,2.0,False,0.584,18,True,right,0.08334,0.2899,1.0398,0.75,1.4726,2.1232,0.6506,A
127,0.50002,0.1,1,0.42502,0.33335,0.59169,127,2.75012,0.8,0.40002,0.90004,5,lapse_rate,1.0,True,0.228,0,False,left,-0.25001,0.5539,1.1872,0.6333,2.0373,2.0209,-0.0164,A
128,0.50002,0.1,1,0.27501,0.42502,0.7917,128,2.40844,-0.172,-0.08334,0.41669,5,2U1D,2.0,True,0.144,10,True,right,0.08334,0.4052,0.5554,0.1502,1.4387,1.7561,0.3174,A
129,0.50002,0.1,1,0.20834,0.41669,0.87504,129,2.70845,0.418,0.20834,0.70836,5,2D1U,2.0,False,0.149,19,True,right,-0.25001,0.3437,0.7856,0.4419,1.9189,1.9024,-0.0166,A
130,0.50002,0.1,2,0.36668,0.42502,0.64169,130,2.83345,0.8,0.40002,0.90004,5,lapse_rate,2.0,True,0.178,0,False,right,0.08334,1.5492,2.3158,0.7666,0.4568,0.7744,0.3176,A
131,0.50002,1.2,1,0.42502,0.30001,0.85837,131,2.81679,0.472,0.23334,0.73337,5,2D1U,1.0,True,0.431,19,False,left,-0.25001,0.3937,1.1942,0.8005,2.1437,2.4607,0.3171,A
132,0.50002,1.2,1,0.36668,0.40835,0.47502,132,1.85007,-0.8,-0.40002,0.1,5,lapse_rate,2.0,True,0.13,0,False,right,0.08334,0.3314,0.498,0.1665,0.8981,1.5482,0.6501,A
133,0.50002,1.2,1,0.26668,0.36668,0.61669,133,2.16676,-0.172,-0.08334,0.41669,5,2U1D,2.0,True,0.748,10,True,right,-0.25001,0.2299,0.7129,0.483,1.4218,1.7386,0.3168,A
134,0.50002,0.1,2,0.21668,0.44169,0.52502,134,2.1251,-0.118,-0.05834,0.44169,5,2U1D,1.0,True,0.713,10,False,left,0.08334,1.2855,1.5942,0.3086,0.311,0.6276,0.3166,A
135,0.50002,0.1,2,0.43335,0.35002,0.80004,135,2.8168,0.472,0.23334,0.73337,5,2D1U,2.0,True,0.192,19,False,right,-0.25001,1.6039,2.204,0.6001,0.6872,0.6709,-0.0163,A
136,0.50002,1.2,1,0.43335,0.36668,0.8417,136,2.24175,-0.8,-0.40002,0.1,5,lapse_rate,2.0,True,0.14,0,False,right,0.08334,0.4002,0.567,0.1668,1.3339,1.9835,0.6497,A
137,0.50002,1.2,1,0.33335,0.24168,0.61669,137,2.13343,-0.118,-0.05834,0.44169,5,2U1D,2.0,True,0.291,10,False,right,-0.25001,0.2952,0.8037,0.5085,1.5126,1.8293,0.3167,A
138,0.50002,1.2,2,0.39168,0.30001,0.78337,138,2.68344,0.418,0.20834,0.70836,5,2D1U,2.0,True,0.198,20,True,right,0.08334,1.7796,2.4552,0.6756,0.3133,0.9624,0.6492,A
139,0.50002,0.1,1,0.44169,0.24168,0.68336,139,2.76679,0.8,0.40002,0.90004,5,lapse_rate,1.0,True,0.325,0,False,left,-0.25001,0.5718,1.2052,0.6333,2.1472,2.1304,-0.0168,A
140,0.50002,1.2,1,0.30001,0.40002,0.52502,140,2.62511,0.8,0.40002,0.90004,5,lapse_rate,2.0,False,0.525,0,False,right,0.08334,0.2659,1.232,0.9661,1.682,2.3318,0.6498,A
141,0.50002,0.1,2,0.43335,0.30001,0.54169,141,2.24176,-0.064,-0.03333,0.46669,5,2U1D,2.0,False,0.259,10,False,right,-0.25001,1.3522,1.6851,0.3329,0.6927,0.676,-0.0167,A
142,0.50002,0.1,2,0.21668,0.36668,0.85004,142,2.64178,0.418,0.20834,0.70836,5,2D1U,2.0,True,0.215,20,True,right,0.08334,1.6096,2.1846,0.575,0.3096,0.6264,0.3168,A
143,0.50002,1.2,1,0.29168,0.43335,0.52502,143,2.19176,-0.118,-0.05834,0.44169,5,2U1D,1.0,False,0.233,11,True,left,-0.25001,0.2604,0.7692,0.5088,1.3848,1.7022,0.3174,A
144,0.50002,1.2,2,0.28335,0.28335,0.87504,144,2.62512,0.364,0.18334,0.68336,5,2D1U,2.0,True,0.137,20,False,right,0.08334,1.7645,2.4145,0.6501,0.2053,0.8563,0.651,A
145,0.50002,1.2,1,0.25001,0.25001,0.52502,145,2.4251,0.8,0.40002,0.90004,5,lapse_rate,2.0,False,0.183,0,False,right,-0.25001,0.2143,1.1812,0.9669,1.7972,2.1147,0.3176,A
146,0.50002,0.1,1,0.26668,0.44169,0.72503,146,2.35011,-0.172,-0.08334,0.41669,5,2U1D,2.0,True,1.875,11,False,right,0.08334,0.4009,0.5506,0.1497,1.3671,1.6836,0.3165,A
147,0.50002,0.1,1,0.23334,0.33335,0.45835,147,2.20842,0.364,0.18334,0.68336,5,2D1U,1.0,True,0.339,20,False,left,-0.25001,0.3662,0.7837,0.4175,1.4996,1.4829,-0.0167,A
148,0.50002,0.1,1,0.36668,0.30835,0.64169,148,1.91674,-0.8,-0.40002,0.1,5,lapse_rate,2.0,True,0.159,0,False,right,0.08334,0.4987,0.3316,-0.1671,1.0652,1.3823,0.3171,A
149,0.50002,1.2,1,0.35002,0.32501,0.73337,149,2.32511,-0.172,-0.08334,0.41669,5,2U1D,1.0,False,0.87,11,False,left,-0.25001,0.3148,0.7981,0.4833,1.6228,1.9397,0.3168,A
150,0.50002,1.2,1,0.33335,0.30001,0.64169,150,1.87507,-0.8,-0.40002,0.1,5,lapse_rate,2.0,True,0.197,0,False,right,0.08334,0.2971,0.4635,0.1664,1.0305,1.6799,0.6494,A
151,0.50002,1.2,1,0.33335,0.35835,0.68336,151,2.53344,0.31,0.15834,0.65836,5,2D1U,2.0,False,1.8,20,False,right,-0.25001,0.2958,1.0209,0.7251,1.7958,2.1124,0.3166,A
152,0.50002,0.1,1,0.30001,0.38335,0.8167,152,2.10008,-0.8,-0.40002,0.1,5,lapse_rate,2.0,True,0.161,0,False,right,0.08334,0.4305,0.2649,-0.1656,1.1727,1.4898,0.3171,A
153,0.50002,0.1,1,0.35835,0.37502,0.55836,153,2.47511,0.364,0.18334,0.68336,5,2D1U,1.0,True,0.325,21,True,left,-0.25001,0.4898,0.9066,0.4168,1.7234,1.707,-0.0164,A
154,0.50002,0.1,1,0.36668,0.40835,0.85004,154,2.50844,-0.226,-0.11667,0.38335,5,2U1D,2.0,True,0.15,11,False,right,0.08334,0.5026,0.6193,0.1168,1.5609,1.8776,0.3167,A
155,0.50002,1.2,1,0.43335,0.21668,0.88337,155,2.41677,-0.226,-0.11667,0.38335,5,2U1D,2.0,True,0.121,11,False,right,-0.25001,0.3956,0.8457,0.45,1.8208,2.1378,0.317,A
156,0.50002,1.2,1,0.25001,0.36668,0.7917,156,2.59177,0.364,0.18334,0.68336,5,2D1U,1.0,True,0.266,21,True,left,0.08334,0.2193,0.9694,0.75,1.6862,2.3358,0.6496,A
157,0.50002,0.1,1,0.35835,0.29168,0.65003,157,1.90008,-0.8,-0.40002,0.1,5,lapse_rate,2.0,True,0.194,0,False,right,-0.25001,0.4881,0.3213,-0.1668,1.2294,1.2128,-0.0166,A
158,0.50002,0.1,1,0.21668,0.35835,0.55002,158,2.52511,0.8,0.40002,0.90004,5,lapse_rate,2.0,False,3.534,0,False,right,0.08334,0.3532,0.986,0.6328,1.6284,1.9445,0.3161,A
159,0.50002,0.1,1,0.31668,0.40002,0.47502,159,2.3501,0.31,0.15834,0.65836,5,2D1U,1.0,True,0.153,22,True,left,-0.25001,0.4462,0.8371,0.3909,1.5708,1.5536,-0.0172,A
160,0.50002,0.1,2,0.30001,0.24168,0.88337,160,2.34177,-0.172,-0.08334,0.41669,5,2U1D,1.0,True,0.317,12,True,left,0.08334,1.7203,2.0037,0.2835,0.3872,0.7041,0.3169,A
161,0.50002,0.1,1,0.37502,0.24168,0.75003,161,2.76679,0.8,0.40002,0.90004,5,lapse_rate,1.0,True,0.942,0,False,left,-0.25001,0.5038,1.1366,0.6328,2.1451,2.1291,-0.0161,A
162,0.50002,1.2,2,0.34168,0.38335,0.57503,162,2.45844,0.31,0.15834,0.65836,5,2D1U,2.0,True,0.186,22,True,right,0.08334,1.5216,2.1463,0.6246,0.2636,0.9138,0.6501,A
163,0.50002,1.2,1,0.28335,0.23334,0.56669,163,2.00009,-0.172,-0.08334,0.41669,5,2U1D,2.0,True,0.906,12,True,right,-0.25001,0.2447,0.7284,0.4836,1.3868,1.7035,0.3167,A
164,0.50002,1.2,2,0.40002,0.24168,0.65836,164,2.70012,0.8,0.40002,0.90004,5,lapse_rate,2.0,True,0.168,0,False,right,0.08334,1.6655,2.5323,0.8669,0.3241,0.9742,0.6501,A
165,0.50002,0.1,1,0.30835,0.28335,0.88337,165,2.41678,-0.118,-0.05834,0.44169,5,2U1D,2.0,True,0.217,12,False,right,-0.25001,0.4403,0.6153,0.175,1.757,1.7403,-0.0167,A
166,0.50002,0.1,2,0.41669,0.33335,0.83337,166,2.70846,0.256,0.12501,0.62503,5,2D1U,2.0,True,0.387,22,False,right,0.08334,1.7883,2.2803,0.4919,0.505,0.8218,0.3168,A
167,0.50002,1.2,2,0.37502,0.44169,0.6917,167,2.63346,0.256,0.12501,0.62503,5,2D1U,2.0,True,0.557,22,False,right,-0.25001,1.5046,2.0963,0.5917,0.4627,0.7804,0.3177,A
168,0.50002,1.2,2,0.41669,0.33335,0.67503,168,2.36678,-0.118,-0.05834,0.44169,5,2U1D,1.0,True,0.384,12,False,left,0.08334,1.6968,2.1046,0.4078,0.3386,0.9886,0.65,A
169,0.50002,1.2,2,0.34168,0.33335,0.47502,169,2.55011,0.8,0.40002,0.90004,5,lapse_rate,2.0,True,0.514,0,False,right,-0.25001,1.2551,2.1217,0.8666,0.4293,0.7469,0.3176,A
170,0.50002,0.1,1,0.20001,0.20834,0.72503,170,2.23343,0.202,0.1,0.60003,5,2D1U,1.0,True,0.372,22,False,left,0.08334,0.3351,0.6682,0.3331,1.4848,1.8015,0.3166,A
171,0.50002,0.1,1,0.35002,0.30001,0.50002,171,2.2501,0.202,0.1,0.60003,5,2D1U,1.0,True,0.386,22,False,left,-0.25001,0.4794,0.8126,0.3332,1.5705,1.5543,-0.0162,A
172,0.50002,1.2,2,0.42502,0.43335,0.57503,172,2.40011,-0.064,-0.03333,0.46669,5,2U1D,2.0,False,0.11,12,False,right,0.08334,1.6033,2.0367,0.4334,0.345,0.9949,0.6499,A
173,0.50002,1.2,1,0.43335,0.45002,0.8417,173,2.66678,-0.118,-0.05834,0.44169,5,2U1D,2.0,True,0.397,13,True,right,-0.25001,0.4003,0.9088,0.5085,1.8418,2.1585,0.3167,A
174,0.50002,0.1,1,0.35835,0.30835,0.60003,174,2.34178,0.148,0.075,0.57503,5,2D1U,1.0,True,0.702,22,False,left,0.08334,0.4907,0.7987,0.308,1.4908,1.8073,0.3165,A
175,0.50002,0.1,2,0.33335,0.25001,0.44169,175,2.1001,0.148,0.075,0.57503,5,2D1U,2.0,True,2.304,22,False,right,-0.25001,1.1459,1.5873,0.4414,0.5873,0.5706,-0.0166,A
176,0.50002,1.2,2,0.40002,0.36668,0.52502,176,2.23343,-0.118,-0.05834,0.44169,5,2U1D,1.0,True,0.434,13,True,left,0.08334,1.535,1.9435,0.4085,0.3269,0.9767,0.6498,A
177,0.50002,1.2,2,0.24168,0.42502,0.50002,177,2.13343,-0.064,-0.03333,0.46669,5,2U1D,2.0,False,0.222,14,True,right,-0.25001,1.1844,1.618,0.4336,0.3343,0.6516,0.3173,A
178,0.50002,0.1,2,0.29168,0.33335,0.57503,178,2.2501,0.094,0.05,0.55002,5,2D1U,1.0,False,0.214,22,False,left,0.08334,1.4098,1.8264,0.4166,0.3845,0.7012,0.3168,A
179,0.50002,0.1,1,0.22501,0.42502,0.45835,179,2.05009,-0.118,-0.05834,0.44169,5,2U1D,2.0,True,0.189,15,True,right,-0.25001,0.3533,0.5287,0.1753,1.2447,1.2285,-0.0163,A
180,0.50002,1.2,1,0.24168,0.30835,0.88337,180,2.50845,0.148,0.075,0.57503,5,2D1U,2.0,False,0.358,23,True,right,0.08334,0.2093,0.8506,0.6413,1.6595,2.3091,0.6496,A
181,0.50002,1.2,1,0.38335,0.40835,0.73337,181,2.46678,-0.118,-0.05834,0.44169,5,2U1D,1.0,False,18.467,15,True,left,-0.25001,0.3527,0.8608,0.508,1.6858,2.0021,0.3163,A
182,0.50002,0.1,2,0.25001,0.28335,0.42502,182,2.05843,0.202,0.1,0.60003,5,2D1U,2.0,True,0.275,23,False,right,0.08334,1.2169,1.6833,0.4664,0.342,0.6588,0.3168,A
183,0.50002,0.1,2,0.22501,0.40835,0.56669,183,2.3001,0.202,0.1,0.60003,5,2D1U,1.0,False,1.922,23,False,left,-0.25001,1.1661,1.6324,0.4662,0.4824,0.4656,-0.0169,A
184,0.50002,1.2,2,0.45002,0.30001,0.59169,184,2.25843,-0.172,-0.08334,0.41669,5,2U1D,2.0,False,9.324,15,False,right,0.08334,1.6506,2.0335,0.383,0.3756,1.0257,0.6501,A
185,0.50002,1.2,1,0.35835,0.24168,0.45002,185,2.1751,0.256,0.12501,0.62503,5,2D1U,1.0,True,1.653,23,False,left,-0.25001,0.3233,1.0151,0.6919,1.5565,1.8736,0.317,A
186,0.50002,0.1,1,0.43335,0.20834,0.41669,186,2.18343,0.256,0.12501,0.62503,5,2D1U,2.0,False,0.374,23,False,right,0.08334,0.565,0.9231,0.3582,1.4314,1.7478,0.3164,A
187,0.50002,0.1,1,0.29168,0.41669,0.78337,187,2.37511,-0.226,-0.11667,0.38335,5,2U1D,2.0,True,0.25,15,False,right,-0.25001,0.4228,0.5396,0.1168,1.5811,1.5647,-0.0163,A
188,0.50002,1.2,2,0.20834,0.20834,0.70003,188,2.27509,0.31,0.15834,0.65836,5,2D1U,2.0,True,0.858,23,False,right,0.08334,1.516,2.1412,0.6253,0.1326,0.783,0.6504,A
189,0.50002,1.2,2,0.22501,0.29168,0.42502,189,1.82508,-0.226,-0.11667,0.38335,5,2U1D,2.0,False,0.618,15,False,right,-0.25001,1.09,1.4398,0.3498,0.3145,0.6317,0.3172,A
190,0.50002,0.1,2,0.37502,0.32501,0.89171,190,2.75012,0.31,0.15834,0.65836,5,2D1U,2.0,True,0.242,23,False,right,0.08334,1.8102,2.3359,0.5257,0.4687,0.7852,0.3165,A
191,0.50002,0.1,1,0.28335,0.41669,0.46669,191,2.29178,0.256,0.12501,0.62503,5,2D1U,1.0,True,2.93,24,True,left,-0.25001,0.4141,0.7724,0.3582,1.4974,1.4811,-0.0163,A
192,0.50002,1.2,1,0.22501,0.31668,0.56669,192,1.96675,-0.28,-0.14167,0.35835,5,2U1D,2.0,True,0.272,15,False,right,0.08334,0.1877,0.6127,0.425,1.1042,1.7543,0.6501,A
193,0.50002,1.2,1,0.39168,0.22501,0.61669,193,2.09175,-0.28,-0.14167,0.35835,5,2U1D,1.0,False,0.5,15,False,left,-0.25001,0.361,0.7867,0.4257,1.4951,1.8117,0.3166,A
194,0.50002,0.1,2,0.35002,0.26668,0.57503,194,2.0251,-0.334,-0.16667,0.33335,5,2U1D,1.0,True,0.193,15,False,left,0.08334,1.4648,1.6649,0.2001,0.4391,0.7564,0.3173,A
195,0.50002,0.1,1,0.37502,0.25001,0.50002,195,2.2501,0.256,0.12501,0.62503,5,2D1U,2.0,False,0.346,24,True,right,-0.25001,0.504,0.8619,0.3579,1.6205,1.6041,-0.0164,A
196,0.50002,1.2,1,0.20834,0.20834,0.48335,196,1.7334,-0.334,-0.16667,0.33335,5,2U1D,2.0,True,0.203,15,False,right,0.08334,0.1776,0.5779,0.4003,0.9862,1.6362,0.65,A
197,0.50002,1.2,2,0.41669,0.20001,0.45002,197,1.92509,-0.28,-0.14167,0.35835,5,2U1D,1.0,True,0.31,16,True,left,-0.25001,1.3113,1.6359,0.3246,0.511,0.8281,0.3171,A
198,0.50002,0.1,2,0.34168,0.36668,0.55836,198,2.4251,0.31,0.15834,0.65836,5,2D1U,1.0,False,0.418,25,True,left,0.08334,1.4401,1.9659,0.5258,0.4321,0.7494,0.3173,A
199,0.50002,0.1,1,0.41669,0.31668,0.50836,199,2.42511,0.364,0.18334,0.68336,5,2D1U,1.0,True,0.492,25,False,left,-0.25001,0.5476,0.9644,0.4169,1.7311,1.7147,-0.0164,A
200,0.50002,1.2,2,0.44169,0.35835,0.65836,200,2.31677,-0.28,-0.14167,0.35835,5,2U1D,1.0,True,1.328,16,True,left,0.08334,1.7063,2.0312,0.3249,0.3649,1.0147,0.6498,A
201,0.50002,1.2,2,0.38335,0.40835,0.90004,201,2.87512,0.364,0.18334,0.68336,5,2D1U,2.0,True,0.357,25,False,right,-0.25001,1.7227,2.3724,0.6497,0.4723,0.789,0.3167,A
202,0.50002,0.1,1,0.41669,0.42502,0.44169,202,2.44178,0.31,0.15834,0.65836,5,2D1U,1.0,True,0.77,26,True,left,0.08334,0.5467,0.9382,0.3915,1.4715,1.7883,0.3168,A
203,0.50002,0.1,2,0.36668,0.31668,0.7667,203,2.33343,-0.226,-0.11667,0.38335,5,2U1D,1.0,True,0.318,16,False,left,-0.25001,1.5063,1.7561,0.2498,0.6222,0.6058,-0.0164,A
204,0.50002,1.2,2,0.28335,0.20001,0.41669,204,1.78342,-0.226,-0.11667,0.38335,5,2U1D,2.0,False,0.742,16,False,right,0.08334,1.3053,1.6555,0.3502,0.2063,0.8559,0.6496,A
205,0.50002,1.2,2,0.27501,0.29168,0.7667,205,2.49177,0.31,0.15834,0.65836,5,2D1U,2.0,True,0.207,26,True,right,-0.25001,1.4817,2.106,0.6243,0.3647,0.682,0.3174,A
206,0.50002,0.1,1,0.40835,0.35835,0.52502,206,2.41677,0.256,0.12501,0.62503,5,2D1U,1.0,True,0.497,26,False,left,0.08334,0.5391,0.8974,0.3583,1.5139,1.8304,0.3166,A
207,0.50002,0.1,2,0.42502,0.43335,0.89171,207,2.60845,-0.28,-0.14167,0.35835,5,2U1D,1.0,True,0.45,17,True,left,-0.25001,1.6869,1.9123,0.2254,0.6792,0.6622,-0.017,A
208,0.50002,1.2,2,0.36668,0.34168,0.88337,208,2.71678,0.256,0.12501,0.62503,5,2D1U,2.0,True,0.213,26,False,right,0.08334,1.8615,2.4524,0.591,0.2948,0.9444,0.6496,A
209,0.50002,1.2,1,0.32501,0.23334,0.6917,209,2.10842,-0.28,-0.14167,0.35835,5,2U1D,2.0,True,0.258,17,True,right,-0.25001,0.2887,0.7143,0.4256,1.4974,1.8143,0.3169,A
210,0.50002,0.1,1,0.35835,0.28335,0.58336,210,2.32511,0.202,0.1,0.60003,5,2D1U,1.0,True,0.477,26,False,left,0.08334,0.4904,0.8238,0.3334,1.4993,1.8158,0.3165,A
211,0.50002,0.1,2,0.26668,0.31668,0.60003,211,2.06676,-0.226,-0.11667,0.38335,5,2U1D,2.0,False,0.693,18,True,right,-0.25001,1.2401,1.4893,0.2492,0.523,0.5061,-0.0169,A
212,0.50002,1.2,1,0.20001,0.36668,0.63336,212,2.3001,0.202,0.1,0.60003,5,2D1U,2.0,False,0.238,26,False,right,0.08334,0.1652,0.8318,0.6666,1.39,2.0403,0.6503,A
213,0.50002,1.2,1,0.25001,0.42502,0.73337,213,2.26677,-0.28,-0.14167,0.35835,5,2U1D,1.0,False,0.17,19,True,left,-0.25001,0.2155,0.6407,0.4252,1.4657,1.7827,0.317,A
214,0.50002,0.1,2,0.25834,0.35835,0.46669,214,2.20843,0.256,0.12501,0.62503,5,2D1U,2.0,True,0.113,27,True,right,0.08334,1.2695,1.7613,0.4918,0.3534,0.67,0.3166,A
215,0.50002,0.1,1,0.29168,0.30835,0.75003,215,2.47511,0.256,0.12501,0.62503,5,2D1U,1.0,True,0.281,27,True,left,-0.25001,0.4212,0.7791,0.3579,1.7876,1.7712,-0.0164,A
216,0.50002,1.2,1,0.26668,0.40835,0.87504,216,2.65012,0.202,0.1,0.60003,5,2D1U,2.0,False,0.565,28,True,right,0.08334,0.2316,0.8992,0.6676,1.6984,2.3483,0.6499,A
217,0.50002,1.2,2,0.37502,0.29168,0.75837,217,2.25844,-0.334,-0.16667,0.33335,5,2U1D,2.0,False,0.338,19,False,right,-0.25001,1.5781,1.8783,0.3002,0.4699,0.7866,0.3168,A
218,0.50002,0.1,1,0.30835,0.38335,0.60003,218,2.1001,-0.388,-0.19168,0.30835,5,2U1D,2.0,True,0.108,19,False,right,0.08334,0.4426,0.4837,0.0411,1.1755,1.492,0.3164,A
219,0.50002,0.1,1,0.29168,0.32501,0.65836,219,2.4001,0.256,0.12501,0.62503,5,2D1U,2.0,False,0.267,29,True,right,-0.25001,0.4209,0.7792,0.3583,1.6961,1.6795,-0.0166,A
220,0.50002,1.2,1,0.30835,0.25001,0.87504,220,2.24177,-0.388,-0.19168,0.30835,5,2U1D,2.0,True,0.296,19,False,right,0.08334,0.2736,0.6483,0.3747,1.4484,2.0986,0.6502,A
221,0.50002,1.2,1,0.32501,0.20834,0.55836,221,1.92508,-0.334,-0.16667,0.33335,5,2U1D,1.0,False,0.472,20,True,left,-0.25001,0.2891,0.6886,0.3994,1.3391,1.6556,0.3165,A
222,0.50002,0.1,1,0.20001,0.36668,0.65836,222,2.38343,0.31,0.15834,0.65836,5,2D1U,1.0,True,0.531,29,False,left,0.08334,0.3306,0.7223,0.3917,1.4714,1.7885,0.3171,A
223,0.50002,0.1,1,0.20834,0.44169,0.44169,223,1.90009,-0.388,-0.19168,0.30835,5,2U1D,2.0,True,0.112,21,True,right,-0.25001,0.341,0.3824,0.0413,1.082,1.0655,-0.0165,A
224,0.50002,1.2,2,0.26668,0.30001,0.41669,224,1.79175,-0.388,-0.19168,0.30835,5,2U1D,1.0,True,0.264,21,True,left,0.08334,1.2877,1.563,0.2754,0.1873,0.8377,0.6504,A
225,0.50002,1.2,1,0.35002,0.39168,0.70003,225,2.60011,0.31,0.15834,0.65836,5,2D1U,1.0,True,0.5,29,False,left,-0.25001,0.313,1.0383,0.7254,1.8294,2.146,0.3167,A
226,0.50002,0.1,1,0.44169,0.30835,0.89171,226,2.47512,-0.334,-0.16667,0.33335,5,2U1D,2.0,True,0.15,22,True,right,0.08334,0.5724,0.6394,0.067,1.6221,1.9383,0.3162,A
227,0.50002,0.1,1,0.34168,0.21668,0.89171,227,2.28344,-0.334,-0.16667,0.33335,5,2U1D,2.0,True,0.239,22,True,right,-0.25001,0.4773,0.5434,0.0661,1.6935,1.6771,-0.0164,A
228,0.50002,1.2,1,0.24168,0.37502,0.65003,228,2.39178,0.256,0.12501,0.62503,5,2D1U,2.0,False,0.825,30,True,right,0.08334,0.2107,0.9026,0.6919,1.4778,2.1277,0.6498,A
229,0.50002,1.2,2,0.38335,0.40002,0.52502,229,2.46677,0.31,0.15834,0.65836,5,2D1U,1.0,False,0.112,31,True,left,-0.25001,1.346,1.9713,0.6253,0.4705,0.7876,0.317,A
230,0.50002,0.1,2,0.26668,0.41669,0.77503,230,2.31677,-0.28,-0.14167,0.35835,5,2U1D,1.0,True,0.214,22,False,left,0.08334,1.5789,1.8044,0.2254,0.3538,0.6704,0.3165,A
231,0.50002,0.1,1,0.38335,0.22501,0.67503,231,2.14176,-0.28,-0.14167,0.35835,5,2U1D,2.0,True,0.295,22,False,right,-0.25001,0.5124,0.6038,0.0915,1.537,1.5199,-0.0171,A
232,0.50002,1.2,2,0.25001,0.20834,0.50836,232,2.15009,0.364,0.18334,0.68336,5,2D1U,2.0,True,0.229,31,False,right,0.08334,1.3649,2.0141,0.6491,0.1724,0.8231,0.6506,A
233,0.50002,1.2,1,0.41669,0.34168,0.8667,233,2.50844,-0.226,-0.11667,0.38335,5,2U1D,2.0,True,0.106,22,False,right,-0.25001,0.3776,0.8277,0.4501,1.786,2.1028,0.3167,A
234,0.50002,0.1,2,0.20834,0.28335,0.64169,234,2.31676,0.364,0.18334,0.68336,5,2D1U,2.0,True,0.232,31,False,right,0.08334,1.3928,1.9429,0.5501,0.3016,0.6179,0.3163,A
235,0.50002,0.1,1,0.27501,0.41669,0.57503,235,2.42511,0.31,0.15834,0.65836,5,2D1U,1.0,True,0.209,32,True,left,-0.25001,0.4101,0.802,0.3919,1.635,1.6184,-0.0166,A
236,0.50002,1.2,1,0.22501,0.37502,0.80837,236,2.29177,-0.226,-0.11667,0.38335,5,2U1D,2.0,True,0.112,22,False,right,0.08334,0.1892,0.6393,0.45,1.3726,2.0226,0.65,A
237,0.50002,1.2,1,0.36668,0.28335,0.82504,237,2.63345,0.31,0.15834,0.65836,5,2D1U,2.0,False,0.162,32,True,right,-0.25001,0.3293,1.0539,0.7246,1.9699,2.2873,0.3174,A
238,0.50002,0.1,2,0.22501,0.32501,0.83337,238,2.3001,-0.172,-0.08334,0.41669,5,2U1D,1.0,True,0.379,22,False,left,0.08334,1.5994,1.883,0.2836,0.3161,0.6323,0.3162,A
239,0.50002,0.1,1,0.43335,0.26668,0.8417,239,2.45844,-0.172,-0.08334,0.41669,5,2U1D,2.0,True,0.236,22,False,right,-0.25001,0.5655,0.7157,0.1502,1.8074,1.7908,-0.0166,A
240,0.50002,1.2,1,0.22501,0.30001,0.7417,240,2.4501,0.364,0.18334,0.68336,5,2D1U,1.0,True,0.141,33,True,left,0.08334,0.1933,0.9428,0.7495,1.6096,2.26,0.6504,A
241,0.50002,1.2,1,0.40002,0.44169,0.53336,241,2.31678,-0.118,-0.05834,0.44169,5,2U1D,2.0,True,0.178,22,False,right,-0.25001,0.3641,0.8723,0.5082,1.4971,1.8141,0.3169,A
242,0.50002,0.1,1,0.40002,0.31668,0.70836,242,2.36677,-0.118,-0.05834,0.44169,5,2U1D,2.0,True,0.262,22,False,right,0.08334,0.5304,0.7059,0.1754,1.5058,1.8221,0.3163,A
243,0.50002,0.1,2,0.30001,0.24168,0.80837,243,2.53344,0.364,0.18334,0.68336,5,2D1U,2.0,True,0.345,33,True,right,-0.25001,1.48,2.0299,0.5499,0.5547,0.5383,-0.0163,A
244,0.50002,1.2,1,0.28335,0.20834,0.43335,244,1.89175,-0.064,-0.03333,0.46669,5,2U1D,1.0,False,0.175,22,False,left,0.08334,0.2474,0.7812,0.5338,1.1389,1.789,0.6501,A
245,0.50002,1.2,1,0.22501,0.41669,0.68336,245,2.48344,0.31,0.15834,0.65836,5,2D1U,1.0,True,0.126,34,True,left,-0.25001,0.1878,0.9134,0.7256,1.6886,2.0051,0.3166,A
246,0.50002,0.1,1,0.28335,0.40002,0.51669,246,2.14177,-0.118,-0.05834,0.44169,5,2U1D,2.0,True,0.472,23,True,right,0.08334,0.4133,0.5883,0.1749,1.1968,1.5133,0.3165,A
247,0.50002,0.1,2,0.41669,0.30835,0.54169,247,2.42511,0.31,0.15834,0.65836,5,2D1U,2.0,True,0.214,34,True,right,-0.25001,1.3294,1.8543,0.5249,0.6711,0.6545,-0.0166,A
248,0.50002,1.2,2,0.23334,0.22501,0.60003,248,2.00009,-0.118,-0.05834,0.44169,5,2U1D,1.0,True,0.333,23,True,left,0.08334,1.4396,1.8469,0.4073,0.1562,0.806,0.6497,A
249,0.50002,1.2,2,0.26668,0.40835,0.50002,249,2.3001,0.256,0.12501,0.62503,5,2D1U,2.0,True,0.403,34,False,right,-0.25001,1.2082,1.8001,0.5919,0.3587,0.6752,0.3165,A
250,0.50002,0.1,1,0.40002,0.42502,0.75837,250,2.70846,0.256,0.12501,0.62503,5,2D1U,1.0,True,0.156,34,False,left,0.08334,0.5313,0.89,0.3588,1.7396,2.0565,0.3169,A
251,0.50002,0.1,2,0.27501,0.33335,0.46669,251,2.04176,-0.064,-0.03333,0.46669,5,2U1D,1.0,True,0.35,24,True,left,-0.25001,1.1192,1.4528,0.3336,0.5361,0.5198,-0.0163,A
252,0.50002,1.2,2,0.25834,0.43335,0.65003,252,2.44177,0.202,0.1,0.60003,5,2D1U,2.0,True,0.108,34,False,right,0.08334,1.5116,2.0784,0.5667,0.178,0.8283,0.6503,A
253,0.50002,1.2,1,0.31668,0.43335,0.65003,253,2.36677,-0.064,-0.03333,0.46669,5,2U1D,2.0,True,0.567,24,True,right,-0.25001,0.2844,0.8186,0.5341,1.5599,1.8766,0.3167,A
254,0.50002,0.1,2,0.29168,0.42502,0.52502,254,2.23343,-0.01,-0.00833,0.49169,5,2U1D,1.0,True,0.215,24,False,left,0.08334,1.3566,1.7152,0.3586,0.3816,0.6984,0.3167,A
255,0.50002,0.1,2,0.43335,0.31668,0.47502,255,2.3251,0.202,0.1,0.60003,5,2D1U,2.0,True,0.918,34,False,right,-0.25001,1.2821,1.7488,0.4666,0.6903,0.6737,-0.0166,A
256,0.50002,1.2,2,0.31668,0.25001,0.52502,256,2.08342,-0.01,-0.00833,0.49169,5,2U1D,2.0,False,0.342,24,False,right,0.08334,1.4487,1.9071,0.4584,0.2397,0.8903,0.6507,A
257,0.50002,1.2,1,0.42502,0.40002,0.46669,257,2.36678,0.148,0.075,0.57503,5,2D1U,2.0,False,1.41,34,False,right,-0.25001,0.391,1.0322,0.6412,1.591,1.9077,0.3166,A
258,0.50002,0.1,1,0.21668,0.34168,0.67503,258,2.2001,-0.064,-0.03333,0.46669,5,2U1D,1.0,False,1.222,25,True,left,0.08334,0.3479,0.5482,0.2003,1.3148,1.6308,0.316,A
259,0.50002,0.1,1,0.24168,0.40002,0.80837,259,2.39178,-0.118,-0.05834,0.44169,5,2U1D,2.0,True,0.3,25,False,right,-0.25001,0.3777,0.5529,0.1752,1.6194,1.6037,-0.0157,A
260,0.50002,1.2,1,0.44169,0.42502,0.55002,260,2.51678,0.202,0.1,0.60003,5,2D1U,2.0,False,0.109,35,True,right,0.08334,0.405,1.0709,0.6659,1.5465,2.196,0.6494,A
261,0.50002,1.2,1,0.40835,0.30835,0.90004,261,2.74179,0.256,0.12501,0.62503,5,2D1U,1.0,True,0.32,35,False,left,-0.25001,0.3705,1.0626,0.692,2.0542,2.3706,0.3165,A
262,0.50002,0.1,1,0.38335,0.33335,0.78337,262,2.44178,-0.118,-0.05834,0.44169,5,2U1D,2.0,True,0.226,25,False,right,0.08334,0.5129,0.6875,0.1746,1.5628,1.8797,0.3169,A
263,0.50002,0.1,1,0.43335,0.37502,0.75003,263,2.68345,0.256,0.12501,0.62503,5,2D1U,2.0,False,0.225,35,False,right,-0.25001,0.5618,0.9202,0.3584,1.9282,1.9119,-0.0163,A
264,0.50002,1.2,2,0.20001,0.36668,0.55836,264,2.09176,-0.064,-0.03333,0.46669,5,2U1D,2.0,False,0.154,26,True,right,0.08334,1.362,1.7955,0.4335,0.1201,0.7707,0.6506,A
265,0.50002,1.2,2,0.40835,0.44169,0.68336,265,2.69178,0.31,0.15834,0.65836,5,2D1U,2.0,True,0.46,35,False,right,-0.25001,1.5301,2.1556,0.6256,0.4974,0.8142,0.3168,A
266,0.50002,0.1,2,0.38335,0.25001,0.85837,266,2.65011,0.31,0.15834,0.65836,5,2D1U,2.0,True,0.397,35,False,right,0.08334,1.7848,2.3097,0.5249,0.4768,0.7928,0.316,A
267,0.50002,0.1,1,0.45002,0.22501,0.44169,267,2.24177,0.256,0.12501,0.62503,5,2D1U,1.0,True,0.474,36,True,left,-0.25001,0.5798,0.938,0.3582,1.6379,1.6216,-0.0163,A
268,0.50002,1.2,2,0.42502,0.35002,0.82504,268,2.54179,-0.118,-0.05834,0.44169,5,2U1D,2.0,False,0.232,27,True,right,0.08334,1.8594,2.2675,0.4081,0.3508,1.0011,0.6503,A
269,0.50002,1.2,2,0.44169,0.38335,0.75837,269,2.50012,-0.172,-0.08334,0.41669,5,2U1D,2.0,False,0.191,27,False,right,-0.25001,1.6434,2.0262,0.3828,0.534,0.8505,0.3165,A
270,0.50002,0.1,1,0.20834,0.29168,0.83337,270,2.21676,-0.226,-0.11667,0.38335,5,2U1D,2.0,True,0.305,27,False,right,0.08334,0.3391,0.4561,0.117,1.3801,1.6972,0.3171,A
271,0.50002,0.1,1,0.29168,0.32501,0.40835,271,2.15009,0.256,0.12501,0.62503,5,2D1U,1.0,True,0.314,36,True,left,-0.25001,0.4243,0.7825,0.3583,1.4491,1.4323,-0.0169,A
272,0.50002,1.2,1,0.45002,0.32501,0.88337,272,2.75845,0.202,0.1,0.60003,5,2D1U,2.0,False,0.163,36,False,right,0.08334,0.4127,1.079,0.6663,1.8872,2.5373,0.6501,A
273,0.50002,1.2,2,0.30835,0.21668,0.53336,273,1.94176,-0.226,-0.11667,0.38335,5,2U1D,1.0,True,0.428,27,False,left,-0.25001,1.286,1.6358,0.3498,0.4032,0.7195,0.3163,A
274,0.50002,0.1,1,0.25834,0.21668,0.65003,274,2.04176,-0.172,-0.08334,0.41669,5,2U1D,2.0,True,0.153,28,True,right,0.08334,0.394,0.5446,0.1506,1.2863,1.602,0.3158,A
275,0.50002,0.1,1,0.30835,0.43335,0.51669,275,2.1751,-0.172,-0.08334,0.41669,5,2U1D,2.0,True,0.117,28,True,right,-0.25001,0.4419,0.5925,0.1506,1.367,1.3508,-0.0162,A
276,0.50002,1.2,1,0.21668,0.25001,0.61669,276,2.20843,0.256,0.12501,0.62503,5,2D1U,2.0,False,0.247,37,True,right,0.08334,0.1826,0.874,0.6914,1.4159,2.0655,0.6497,A
277,0.50002,1.2,1,0.27501,0.29168,0.56669,277,2.07509,-0.118,-0.05834,0.44169,5,2U1D,2.0,True,0.126,28,False,right,-0.25001,0.2362,0.7448,0.5086,1.4032,1.7194,0.3162,A
278,0.50002,0.1,1,0.40002,0.34168,0.8667,278,2.76678,0.31,0.15834,0.65836,5,2D1U,1.0,True,0.112,37,False,left,0.08334,0.5295,0.9208,0.3914,1.8795,2.1957,0.3163,A
279,0.50002,0.1,2,0.24168,0.35835,0.58336,279,2.1251,-0.118,-0.05834,0.44169,5,2U1D,1.0,True,0.492,28,False,left,-0.25001,1.1993,1.5077,0.3084,0.499,0.483,-0.016,A
280,0.50002,1.2,1,0.36668,0.35002,0.50002,280,2.18343,-0.064,-0.03333,0.46669,5,2U1D,2.0,True,0.175,28,False,right,0.08334,0.3302,0.8641,0.5338,1.2884,1.9382,0.6499,A
281,0.50002,1.2,2,0.23334,0.40002,0.55002,281,2.34176,0.31,0.15834,0.65836,5,2D1U,1.0,False,0.683,37,False,left,-0.25001,1.2222,1.8469,0.6246,0.3222,0.6393,0.3171,A
282,0.50002,0.1,1,0.28335,0.31668,0.8667,282,2.43344,-0.064,-0.03333,0.46669,5,2U1D,2.0,True,0.242,28,False,right,0.08334,0.4155,0.6157,0.2002,1.5738,1.8905,0.3167,A
283,0.50002,0.1,2,0.23334,0.41669,0.70003,283,2.34177,-0.01,-0.00833,0.49169,5,2U1D,2.0,False,1.873,28,False,right,-0.25001,1.3041,1.6628,0.3587,0.4873,0.4712,-0.016,A
284,0.50002,1.2,1,0.42502,0.21668,0.70836,284,2.53344,0.364,0.18334,0.68336,5,2D1U,1.0,True,0.251,37,False,left,0.08334,0.3936,1.1443,0.7507,1.7776,2.4268,0.6492,A
285,0.50002,1.2,1,0.38335,0.25834,0.50002,285,2.10842,-0.064,-0.03333,0.46669,5,2U1D,1.0,False,0.929,29,True,left,-0.25001,0.3504,0.8838,0.5334,1.4754,1.7924,0.317,A
286,0.50002,0.1,2,0.25834,0.31668,0.63336,286,2.39176,0.364,0.18334,0.68336,5,2D1U,2.0,True,0.267,37,False,right,0.08334,1.436,1.9865,0.5504,0.3534,0.6695,0.3161,A
287,0.50002,0.1,2,0.26668,0.39168,0.7667,287,2.36677,-0.118,-0.05834,0.44169,5,2U1D,1.0,True,0.173,29,False,left,-0.25001,1.4103,1.7186,0.3083,0.5263,0.5101,-0.0161,A
288,0.50002,1.2,2,0.25834,0.36668,0.6917,288,2.25843,-0.118,-0.05834,0.44169,5,2U1D,2.0,False,0.144,29,False,right,0.08334,1.5555,1.9638,0.4083,0.181,0.8315,0.6505,A
289,0.50002,1.2,2,0.26668,0.22501,0.40835,289,2.05842,0.31,0.15834,0.65836,5,2D1U,2.0,True,0.201,38,True,right,-0.25001,1.1184,1.7433,0.6249,0.3601,0.6768,0.3167,A
290,0.50002,0.1,2,0.45002,0.38335,0.43335,290,2.18343,-0.172,-0.08334,0.41669,5,2U1D,1.0,True,0.161,29,False,left,0.08334,1.4235,1.7076,0.284,0.5404,0.8567,0.3164,A
291,0.50002,0.1,1,0.28335,0.43335,0.64169,291,2.51677,0.31,0.15834,0.65836,5,2D1U,1.0,True,0.352,38,True,left,-0.25001,0.4186,0.8102,0.3916,1.7101,1.693,-0.0171,A
292,0.50002,1.2,1,0.42502,0.42502,0.43335,292,2.2001,-0.172,-0.08334,0.41669,5,2U1D,1.0,False,0.395,29,False,left,0.08334,0.3913,0.8747,0.4834,1.2334,1.8837,0.6502,A
293,0.50002,1.2,1,0.35002,0.25001,0.51669,293,2.24177,0.256,0.12501,0.62503,5,2D1U,1.0,True,0.21,38,False,left,-0.25001,0.3123,1.0039,0.6915,1.6127,1.9287,0.3161,A
294,0.50002,0.1,2,0.21668,0.29168,0.43335,294,2.06676,0.256,0.12501,0.62503,5,2D1U,2.0,True,0.242,38,False,right,0.08334,1.1884,1.6803,0.4919,0.3053,0.6226,0.3173,A
295,0.50002,0.1,2,0.40835,0.40002,0.45835,295,2.15009,-0.226,-0.11667,0.38335,5,2U1D,1.0,True,0.111,29,False,left,-0.25001,1.2382,1.4882,0.25,0.6629,0.6468,-0.0162,A
296,0.50002,1.2,1,0.38335,0.20834,0.78337,296,2.25843,-0.226,-0.11667,0.38335,5,2U1D,2.0,True,0.178,29,False,right,0.08334,0.3483,0.7987,0.4504,1.5067,2.1567,0.6499,A
297,0.50002,1.2,2,0.42502,0.40835,0.82504,297,2.75846,0.202,0.1,0.60003,5,2D1U,2.0,True,0.426,38,False,right,-0.25001,1.6931,2.2594,0.5664,0.517,0.8342,0.3172,A
298,0.50002,0.1,2,0.30835,0.32501,0.50002,298,2.23343,0.202,0.1,0.60003,5,2D1U,1.0,False,0.25,38,False,left,0.08334,1.3515,1.818,0.4665,0.4013,0.7178,0.3165,A
299,0.50002,0.1,1,0.44169,0.20834,0.64169,299,2.41677,0.256,0.12501,0.62503,5,2D1U,2.0,False,0.326,39,True,right,-0.25001,0.5726,0.9312,0.3586,1.8311,1.8144,-0.0167,A
300,0.50002,1.2,2,0.44169,0.42502,0.6667,300,2.45012,-0.172,-0.08334,0.41669,5,2U1D,1.0,True,0.134,30,True,left,0.08334,1.7158,2.099,0.3831,0.3662,1.0161,0.6499,A
301,0.50002,1.2,1,0.26668,0.29168,0.70836,301,2.4251,0.31,0.15834,0.65836,5,2D1U,2.0,False,0.18,39,False,right,-0.25001,0.2293,0.954,0.7247,1.7544,2.0707,0.3163,A
302,0.50002,0.1,2,0.34168,0.34168,0.43335,302,2.03342,-0.172,-0.08334,0.41669,5,2U1D,1.0,True,0.237,30,True,left,0.08334,1.3184,1.6021,0.2837,0.4358,0.7523,0.3165,A
303,0.50002,0.1,2,0.22501,0.44169,0.6667,303,2.27511,-0.118,-0.05834,0.44169,5,2U1D,1.0,True,0.431,30,False,left,-0.25001,1.2622,1.5704,0.3082,0.479,0.4621,-0.0169,A
304,0.50002,1.2,1,0.45002,0.35835,0.55002,304,2.54177,0.364,0.18334,0.68336,5,2D1U,2.0,False,0.197,39,False,right,0.08334,0.4195,1.1696,0.75,1.6447,2.2941,0.6494,A
305,0.50002,1.2,1,0.21668,0.31668,0.75837,305,2.50011,0.418,0.20834,0.70836,5,2D1U,2.0,False,0.163,39,False,right,-0.25001,0.1841,0.9585,0.7743,1.8087,2.1254,0.3167,A
306,0.50002,0.1,2,0.21668,0.23334,0.41669,306,2.1001,0.472,0.23334,0.73337,5,2D1U,2.0,True,0.28,39,False,right,0.08334,1.1779,1.7777,0.5998,0.3105,0.6273,0.3168,A
307,0.50002,0.1,2,0.41669,0.34168,0.51669,307,2.21677,-0.118,-0.05834,0.44169,5,2U1D,1.0,True,0.4,30,False,left,-0.25001,1.3068,1.6146,0.3078,0.6724,0.656,-0.0164,A
308,0.50002,1.2,2,0.32501,0.43335,0.42502,308,2.15009,-0.064,-0.03333,0.46669,5,2U1D,2.0,False,0.461,30,False,right,0.08334,1.3564,1.7901,0.4337,0.2483,0.8986,0.6503,A
309,0.50002,1.2,2,0.26668,0.23334,0.51669,309,2.2501,0.472,0.23334,0.73337,5,2D1U,2.0,True,0.129,39,False,right,-0.25001,1.2199,1.9204,0.7006,0.3532,0.6705,0.3173,A
310,0.50002,0.1,1,0.36668,0.21668,0.57503,310,2.1001,-0.118,-0.05834,0.44169,5,2U1D,2.0,True,0.383,31,True,right,0.08334,0.5017,0.6769,0.1752,1.3434,1.6599,0.3165,A
311,0.50002,0.1,1,0.26668,0.42502,0.56669,311,2.46677,0.418,0.20834,0.70836,5,2D1U,1.0,True,2.198,40,True,left,-0.25001,0.3996,0.842,0.4425,1.6665,1.6497,-0.0168,A
312,0.50002,1.2,1,0.34168,0.33335,0.77503,312,2.39177,-0.118,-0.05834,0.44169,5,2U1D,2.0,True,0.217,31,True,right,0.08334,0.3069,0.8147,0.5078,1.515,2.1653,0.6503,A
313,0.50002,1.2,2,0.23334,0.35002,0.65003,313,2.44177,0.418,0.20834,0.70836,5,2D1U,2.0,True,0.208,40,True,right,-0.25001,1.3231,1.9984,0.6753,0.3228,0.6396,0.3168,A
314,0.50002,0.1,1,0.22501,0.31668,0.65836,314,2.38343,0.364,0.18334,0.68336,5,2D1U,1.0,True,0.356,40,False,left,0.08334,0.3564,0.7735,0.4171,1.5232,1.8396,0.3164,A
315,0.50002,0.1,1,0.30001,0.42502,0.85837,315,2.76678,0.364,0.18334,0.68336,5,2D1U,1.0,True,0.264,40,False,left,-0.25001,0.4309,0.8478,0.417,1.9637,1.9468,-0.017,A
316,0.50002,1.2,2,0.31668,0.22501,0.73337,316,2.24177,-0.064,-0.03333,0.46669,5,2U1D,2.0,False,0.608,32,True,right,0.08334,1.6559,2.0889,0.433,0.2386,0.8892,0.6506,A
317,0.50002,1.2,2,0.41669,0.31668,0.41669,317,2.09177,-0.118,-0.05834,0.44169,5,2U1D,1.0,True,0.381,33,True,left,-0.25001,1.2744,1.6827,0.4083,0.5072,0.8243,0.317,A
318,0.50002,0.1,2,0.23334,0.25834,0.55002,318,2.20008,0.31,0.15834,0.65836,5,2D1U,2.0,True,0.2,40,False,right,0.08334,1.3203,1.8459,0.5256,0.3201,0.6365,0.3164,A
319,0.50002,0.1,1,0.31668,0.25001,0.54169,319,2.05009,-0.118,-0.05834,0.44169,5,2U1D,2.0,True,0.118,33,True,right,-0.25001,0.4528,0.6277,0.1749,1.4272,1.4101,-0.0171,A
320,0.50002,1.2,2,0.42502,0.27501,0.61669,320,2.28343,-0.064,-0.03333,0.46669,5,2U1D,2.0,False,0.173,34,True,right,0.08334,1.6527,2.0861,0.4334,0.353,1.0029,0.6499,A
321,0.50002,1.2,2,0.20001,0.24168,0.60836,321,2.20843,0.31,0.15834,0.65836,5,2D1U,2.0,True,0.215,40,False,right,-0.25001,1.2516,1.8766,0.6251,0.2929,0.6095,0.3167,A
322,0.50002,0.1,1,0.27501,0.20834,0.61669,322,2.04175,-0.118,-0.05834,0.44169,5,2U1D,1.0,False,0.537,35,True,left,0.08334,0.4036,0.579,0.1755,1.2862,1.6032,0.3171,A
323,0.50002,0.1,1,0.26668,0.31668,0.50836,323,2.00843,-0.172,-0.08334,0.41669,5,2U1D,2.0,True,0.218,35,False,right,-0.25001,0.4034,0.5527,0.1493,1.3197,1.3032,-0.0166,A
324,0.50002,1.2,1,0.24168,0.44169,0.78337,324,2.38345,-0.172,-0.08334,0.41669,5,2U1D,2.0,True,0.406,35,False,right,0.08334,0.2103,0.6937,0.4834,1.4018,2.052,0.6501,A
325,0.50002,1.2,1,0.26668,0.40002,0.60003,325,2.39178,0.256,0.12501,0.62503,5,2D1U,2.0,False,0.181,40,False,right,-0.25001,0.2364,0.928,0.6916,1.6204,1.9364,0.316,A
326,0.50002,0.1,1,0.40835,0.34168,0.45002,326,2.14176,-0.118,-0.05834,0.44169,5,2U1D,2.0,True,0.109,36,True,right,0.08334,0.5366,0.7129,0.1763,1.2534,1.5706,0.3172,A
327,0.50002,0.1,1,0.30001,0.29168,0.7667,327,2.51677,0.31,0.15834,0.65836,5,2D1U,2.0,False,0.246,41,True,right,-0.25001,0.4367,0.8283,0.3916,1.8532,1.8366,-0.0166,A
328,0.50002,1.2,1,0.23334,0.37502,0.50836,328,2.3001,0.364,0.18334,0.68336,5,2D1U,2.0,False,0.107,41,False,right,0.08334,0.2003,0.9506,0.7503,1.3838,2.0339,0.6501,A
329,0.50002,1.2,2,0.20834,0.44169,0.61669,329,2.20843,-0.118,-0.05834,0.44169,5,2U1D,2.0,False,0.25,36,True,right,-0.25001,1.27,1.6782,0.4082,0.3028,0.6206,0.3178,A
330,0.50002,0.1,1,0.37502,0.35002,0.78337,330,2.71679,0.418,0.20834,0.70836,5,2D1U,2.0,False,0.191,41,False,right,0.08334,0.5065,0.9482,0.4417,1.8234,2.1399,0.3165,A
331,0.50002,0.1,2,0.27501,0.42502,0.49169,331,2.10843,-0.172,-0.08334,0.41669,5,2U1D,1.0,True,0.359,37,True,left,-0.25001,1.1382,1.4205,0.2824,0.5294,0.5126,-0.0168,A
332,0.50002,1.2,1,0.24168,0.29168,0.42502,332,1.87509,-0.172,-0.08334,0.41669,5,2U1D,2.0,True,0.229,37,True,right,0.08334,0.2042,0.6879,0.4836,1.0379,1.6877,0.6498,A
333,0.50002,1.2,2,0.40002,0.33335,0.85837,333,2.82513,0.472,0.23334,0.73337,5,2D1U,2.0,True,0.111,41,False,right,-0.25001,1.703,2.4029,0.6999,0.4949,0.8113,0.3163,A
334,0.50002,0.1,2,0.30835,0.25001,0.77503,334,2.56678,0.472,0.23334,0.73337,5,2D1U,2.0,True,0.338,41,False,right,0.08334,1.6214,2.2217,0.6003,0.3958,0.7127,0.3168,A
335,0.50002,0.1,1,0.40002,0.42502,0.8667,335,2.90012,0.418,0.20834,0.70836,5,2D1U,1.0,True,0.647,42,True,left,-0.25001,0.536,0.977,0.4409,2.1016,2.0857,-0.0159,A
336,0.50002,1.2,2,0.22501,0.41669,0.67503,336,2.25844,-0.118,-0.05834,0.44169,5,2U1D,2.0,False,0.278,38,True,right,0.08334,1.5045,1.9126,0.4081,0.1455,0.7962,0.6507,A
337,0.50002,1.2,2,0.40002,0.25001,0.70836,337,2.2751,-0.172,-0.08334,0.41669,5,2U1D,2.0,False,0.235,39,True,right,-0.25001,1.5467,1.9302,0.3835,0.4882,0.8051,0.3168,A
338,0.50002,0.1,1,0.27501,0.31668,0.80837,338,2.28343,-0.226,-0.11667,0.38335,5,2U1D,2.0,True,0.313,39,False,right,0.08334,0.4068,0.5224,0.1156,1.4227,1.7393,0.3165,A
339,0.50002,0.1,1,0.30001,0.33335,0.88337,339,2.72511,0.418,0.20834,0.70836,5,2D1U,2.0,False,0.245,42,True,right,-0.25001,0.4341,0.876,0.4419,2.0172,2.0011,-0.0161,A
340,0.50002,1.2,1,0.35835,0.20834,0.49169,340,2.29177,0.472,0.23334,0.73337,5,2D1U,2.0,False,0.242,43,True,right,0.08334,0.322,1.1217,0.7997,1.5389,2.1886,0.6497,A
341,0.50002,1.2,2,0.26668,0.34168,0.46669,341,1.95842,-0.226,-0.11667,0.38335,5,2U1D,1.0,True,0.731,39,False,left,-0.25001,1.1755,1.5248,0.3493,0.3585,0.6759,0.3174,A
342,0.50002,0.1,1,0.24168,0.26668,0.45002,342,1.87509,-0.172,-0.08334,0.41669,5,2U1D,2.0,True,0.132,40,True,right,0.08334,0.3745,0.5244,0.1499,1.0658,1.3823,0.3165,A
343,0.50002,0.1,2,0.40835,0.28335,0.48335,343,2.44177,0.526,0.26668,0.7667,5,2D1U,2.0,True,0.167,43,False,right,-0.25001,1.2663,1.8993,0.633,0.6661,0.6495,-0.0166,A
344,0.50002,1.2,1,0.36668,0.25001,0.67503,344,2.55844,0.526,0.26668,0.7667,5,2D1U,2.0,False,0.163,43,False,right,0.08334,0.3338,1.1677,0.8338,1.7676,2.4168,0.6493,A
345,0.50002,1.2,2,0.23334,0.29168,0.40835,345,1.85008,-0.172,-0.08334,0.41669,5,2U1D,1.0,True,0.417,40,True,left,-0.25001,1.0849,1.4678,0.383,0.3269,0.6432,0.3163,A
346,0.50002,0.1,1,0.21668,0.25834,0.7917,346,2.20843,-0.118,-0.05834,0.44169,5,2U1D,2.0,True,0.188,40,False,right,0.08334,0.3522,0.5273,0.1751,1.4106,1.7274,0.3168,A
347,0.50002,0.1,2,0.40835,0.30835,0.82504,347,2.83346,0.58,0.29168,0.7917,5,2D1U,2.0,True,0.194,43,False,right,-0.25001,1.6052,2.2637,0.6585,0.6638,0.6472,-0.0166,A
348,0.50002,1.2,1,0.24168,0.27501,0.48335,348,2.29176,0.58,0.29168,0.7917,5,2D1U,2.0,False,0.184,43,False,right,0.08334,0.2058,1.0645,0.8587,1.4726,2.1225,0.6498,A
349,0.50002,1.2,2,0.38335,0.42502,0.82504,349,2.57512,-0.118,-0.05834,0.44169,5,2U1D,1.0,True,0.292,40,False,left,-0.25001,1.6474,2.0549,0.4076,0.4722,0.7891,0.317,A
350,0.50002,0.1,1,0.27501,0.22501,0.65836,350,2.4751,0.634,0.31668,0.8167,5,2D1U,1.0,True,0.705,43,False,left,0.08334,0.4045,0.9536,0.5491,1.7039,2.0206,0.3167,A
351,0.50002,0.1,1,0.43335,0.21668,0.8417,351,2.80845,0.634,0.31668,0.8167,5,2D1U,1.0,True,0.286,43,False,left,-0.25001,0.5696,1.1202,0.5506,2.2205,2.2039,-0.0166,A
352,0.50002,1.2,1,0.30001,0.43335,0.60836,352,2.30843,-0.064,-0.03333,0.46669,5,2U1D,2.0,True,1.434,40,False,right,0.08334,0.2653,0.7984,0.5331,1.3319,1.9809,0.649,A
353,0.50002,1.2,1,0.23334,0.30835,0.41669,353,2.2501,0.58,0.29168,0.7917,5,2D1U,1.0,True,0.63,44,True,left,-0.25001,0.2031,1.0614,0.8583,1.5699,1.886,0.3161,A
354,0.50002,0.1,2,0.34168,0.25001,0.62503,354,2.50844,0.58,0.29168,0.7917,5,2D1U,2.0,True,0.155,44,True,right,0.08334,1.5118,2.1701,0.6583,0.4369,0.7527,0.3157,A
355,0.50002,0.1,1,0.20001,0.33335,0.75837,355,2.25844,-0.064,-0.03333,0.46669,5,2U1D,2.0,True,0.283,40,False,right,-0.25001,0.3362,0.536,0.1999,1.553,1.536,-0.0169,A
356,0.50002,1.2,1,0.34168,0.26668,0.42502,356,2.02509,-0.01,-0.00833,0.49169,5,2U1D,2.0,True,0.111,40,False,right,0.08334,0.3064,0.8645,0.5581,1.215,1.864,0.649,A
357,0.50002,1.2,2,0.35002,0.21668,0.70003,357,2.53345,0.526,0.26668,0.7667,5,2D1U,1.0,False,0.561,44,False,left,-0.25001,1.4946,2.2277,0.7331,0.4438,0.7613,0.3174,A
358,0.50002,0.1,2,0.23334,0.20834,0.60003,358,2.03342,-0.01,-0.00833,0.49169,5,2U1D,2.0,False,0.375,40,False,right,0.08334,1.3719,1.7299,0.358,0.3218,0.6381,0.3163,A
359,0.50002,0.1,2,0.40835,0.25834,0.59169,359,2.22509,-0.064,-0.03333,0.46669,5,2U1D,1.0,True,0.677,41,True,left,-0.25001,1.3787,1.712,0.3333,0.6699,0.6536,-0.0163,A
360,0.50002,1.2,2,0.42502,0.25834,0.72503,360,2.70011,0.58,0.29168,0.7917,5,2D1U,2.0,True,0.174,45,True,right,0.08334,1.7607,2.5192,0.7586,0.3527,1.0027,0.65,A
361,0.50002,1.2,1,0.45002,0.36668,0.65003,361,2.43344,-0.064,-0.03333,0.46669,5,2U1D,1.0,False,0.421,41,True,left,-0.25001,0.4188,0.9518,0.5331,1.6938,2.0101,0.3163,A
362,0.50002,0.1,1,0.42502,0.30001,0.80004,362,2.46678,-0.118,-0.05834,0.44169,5,2U1D,2.0,True,0.549,41,False,right,0.08334,0.5537,0.7285,0.1748,1.6207,1.9366,0.3158,A
363,0.50002,0.1,1,0.23334,0.22501,0.45002,363,2.20009,0.58,0.29168,0.7917,5,2D1U,1.0,True,0.762,45,True,left,-0.25001,0.3703,0.8951,0.5248,1.6029,1.5866,-0.0162,A
364,0.50002,1.2,2,0.26668,0.20001,0.89171,364,2.62512,0.526,0.26668,0.7667,5,2D1U,2.0,True,0.3,46,True,right,0.08334,1.763,2.4962,0.7332,0.1878,0.8382,0.6503,A
365,0.50002,1.2,2,0.42502,0.21668,0.78337,365,2.36678,-0.118,-0.05834,0.44169,5,2U1D,2.0,False,0.314,41,False,right,-0.25001,1.6486,2.0563,0.4078,0.515,0.8319,0.317,A
366,0.50002,0.1,1,0.40002,0.22501,0.82504,366,2.71679,0.526,0.26668,0.7667,5,2D1U,1.0,True,0.229,46,True,left,0.08334,0.5312,1.031,0.4998,1.9481,2.265,0.3169,A
367,0.50002,0.1,1,0.42502,0.33335,0.43335,367,2.10843,-0.172,-0.08334,0.41669,5,2U1D,2.0,True,0.515,41,False,right,-0.25001,0.5609,0.7112,0.1503,1.403,1.3864,-0.0166,A
368,0.50002,1.2,2,0.38335,0.40835,0.67503,368,2.38344,-0.172,-0.08334,0.41669,5,2U1D,2.0,False,0.272,41,False,right,0.08334,1.6653,2.0487,0.3833,0.3071,0.9577,0.6507,A
369,0.50002,1.2,2,0.20834,0.36668,0.77503,369,2.58344,0.472,0.23334,0.73337,5,2D1U,2.0,True,0.183,46,False,right,-0.25001,1.4227,2.1221,0.6994,0.2969,0.6136,0.3168,A
370,0.50002,0.1,2,0.23334,0.28335,0.44169,370,1.84175,-0.226,-0.11667,0.38335,5,2U1D,1.0,True,0.363,41,False,left,0.08334,1.2164,1.4664,0.25,0.3237,0.6414,0.3177,A
371,0.50002,0.1,2,0.35835,0.40835,0.72503,371,2.72512,0.472,0.23334,0.73337,5,2D1U,1.0,False,1.003,46,False,left,-0.25001,1.4577,2.0571,0.5995,0.6156,0.5989,-0.0166,A
372,0.50002,1.2,2,0.35002,0.35002,0.61669,372,2.2001,-0.226,-0.11667,0.38335,5,2U1D,1.0,True,0.491,41,False,left,0.08334,1.577,1.9269,0.3498,0.2767,0.927,0.6504,A
373,0.50002,1.2,2,0.40835,0.21668,0.75837,373,2.65012,0.526,0.26668,0.7667,5,2D1U,2.0,True,0.291,47,True,right,-0.25001,1.6045,2.3376,0.7331,0.4962,0.8136,0.3174,A
374,0.50002,0.1,1,0.42502,0.40835,0.82504,374,2.57512,-0.172,-0.08334,0.41669,5,2U1D,2.0,True,0.611,42,True,right,0.08334,0.5558,0.7061,0.1503,1.6227,1.9387,0.316,A
375,0.50002,0.1,1,0.38335,0.43335,0.70003,375,2.78345,0.526,0.26668,0.7667,5,2D1U,2.0,False,0.412,47,True,right,-0.25001,0.5173,1.0175,0.5002,1.976,1.9598,-0.0162,A
376,0.50002,1.2,2,0.45002,0.38335,0.55002,376,2.3001,-0.172,-0.08334,0.41669,5,2U1D,1.0,True,0.23,42,True,left,0.08334,1.6053,1.9887,0.3835,0.3717,1.0213,0.6496,A
377,0.50002,1.2,2,0.22501,0.27501,0.60836,377,2.05009,-0.118,-0.05834,0.44169,5,2U1D,2.0,False,0.381,42,False,right,-0.25001,1.277,1.685,0.408,0.3191,0.6349,0.3158,A
378,0.50002,0.1,2,0.41669,0.38335,0.59169,378,2.30844,-0.172,-0.08334,0.41669,5,2U1D,2.0,False,0.776,43,True,right,0.08334,1.5483,1.8317,0.2834,0.5065,0.8229,0.3165,A
379,0.50002,0.1,1,0.24168,0.43335,0.85004,379,2.81679,0.58,0.29168,0.7917,5,2D1U,1.0,True,0.304,47,False,left,-0.25001,0.3756,0.9004,0.5248,2.0086,1.9926,-0.016,A
380,0.50002,1.2,1,0.30835,0.30001,0.63336,380,2.12509,-0.226,-0.11667,0.38335,5,2U1D,2.0,True,0.217,43,False,right,0.08334,0.273,0.7227,0.4497,1.2816,1.9314,0.6498,A
381,0.50002,1.2,2,0.35835,0.23334,0.8167,381,2.29176,-0.226,-0.11667,0.38335,5,2U1D,2.0,False,0.665,43,False,right,-0.25001,1.6156,1.9658,0.3502,0.4491,0.7651,0.316,A
382,0.50002,0.1,2,0.36668,0.41669,0.68336,382,2.75845,0.58,0.29168,0.7917,5,2D1U,2.0,True,0.229,47,False,right,0.08334,1.5871,2.2454,0.6584,0.4537,0.7705,0.3168,A
383,0.50002,0.1,1,0.35002,0.44169,0.55836,383,2.61679,0.526,0.26668,0.7667,5,2D1U,1.0,True,0.293,48,True,left,-0.25001,0.4855,0.9856,0.5001,1.8019,1.7853,-0.0166,A
384,0.50002,1.2,1,0.39168,0.20001,0.68336,384,2.13342,-0.28,-0.14167,0.35835,5,2U1D,2.0,True,0.391,43,False,right,0.08334,0.3552,0.7802,0.425,1.3879,2.038,0.6501,A
385,0.50002,1.2,2,0.31668,0.24168,0.46669,385,1.88342,-0.28,-0.14167,0.35835,5,2U1D,2.0,False,0.558,43,False,right,-0.25001,1.2278,1.5527,0.3249,0.4112,0.7276,0.3164,A
386,0.50002,0.1,2,0.40002,0.21668,0.75003,386,2.2001,-0.334,-0.16667,0.33335,5,2U1D,1.0,True,0.679,43,False,left,0.08334,1.6891,1.8889,0.1998,0.4893,0.806,0.3167,A
387,0.50002,0.1,1,0.36668,0.23334,0.61669,387,2.48343,0.526,0.26668,0.7667,5,2D1U,2.0,False,0.255,48,True,right,-0.25001,0.4952,0.9956,0.5004,1.8695,1.853,-0.0165,A
388,0.50002,1.2,1,0.22501,0.35002,0.58336,388,1.99176,-0.334,-0.16667,0.33335,5,2U1D,1.0,False,0.358,43,False,left,0.08334,0.1898,0.5903,0.4005,1.0985,1.7485,0.65,A
389,0.50002,1.2,1,0.43335,0.29168,0.65003,389,2.18343,-0.388,-0.19168,0.30835,5,2U1D,2.0,True,0.109,43,False,right,-0.25001,0.3951,0.7707,0.3755,1.5125,1.8289,0.3163,A
390,0.50002,0.1,1,0.28335,0.31668,0.87504,390,2.76679,0.58,0.29168,0.7917,5,2D1U,1.0,True,0.317,49,True,left,0.08334,0.4158,0.941,0.5253,1.9076,2.2249,0.3173,A
391,0.50002,0.1,1,0.35835,0.34168,0.45002,391,2.44177,0.58,0.29168,0.7917,5,2D1U,2.0,False,0.15,49,True,right,-0.25001,0.4882,1.0136,0.5254,1.7221,1.705,-0.017,A
392,0.50002,1.2,2,0.32501,0.22501,0.6667,392,2.02509,-0.388,-0.19168,0.30835,5,2U1D,2.0,False,0.326,43,False,right,0.08334,1.5995,1.8742,0.2747,0.25,0.8997,0.6497,A
393,0.50002,1.2,2,0.35002,0.39168,0.7917,393,2.85012,0.634,0.31668,0.8167,5,2D1U,2.0,True,0.274,49,False,right,-0.25001,1.5851,2.368,0.7829,0.443,0.7603,0.3173,A
394,0.50002,0.1,2,0.29168,0.30835,0.65003,394,2.56678,0.634,0.31668,0.8167,5,2D1U,2.0,True,20.632,49,False,right,0.08334,1.4803,2.1635,0.6832,0.3806,0.6971,0.3165,A
395,0.50002,0.1,1,0.38335,0.31668,0.75003,395,2.22509,-0.442,-0.22501,0.27501,5,2U1D,2.0,True,0.347,43,False,right,-0.25001,0.5195,0.5272,0.0077,1.5359,1.5195,-0.0164,A
396,0.50002,1.2,1,0.38335,0.27501,0.85837,396,2.80845,0.58,0.29168,0.7917,5,2D1U,2.0,False,0.275,50,True,right,0.08334,0.3479,1.2066,0.8588,1.9895,2.6395,0.6501,A
397,0.50002,1.2,2,0.24168,0.20834,0.68336,397,2.4501,0.634,0.31668,0.8167,5,2D1U,2.0,True,0.333,51,True,right,-0.25001,1.3648,2.1482,0.7834,0.3316,0.6478,0.3162,A
398,0.50002,0.1,1,0.36668,0.32501,0.67503,398,2.68344,0.634,0.31668,0.8167,5,2D1U,1.0,True,0.346,51,True,left,0.08334,0.5,1.0505,0.5505,1.8168,2.1334,0.3166,A
399,0.50002,0.1,2,0.32501,0.25834,0.59169,399,1.95007,-0.442,-0.22501,0.27501,5,2U1D,1.0,True,0.345,43,False,left,-0.25001,1.2883,1.4303,0.142,0.5796,0.5632,-0.0164,A
400,0.50002,1.2,2,0.21668,0.44169,0.70003,400,2.65012,0.58,0.29168,0.7917,5,2D1U,2.0,True,0.224,52,True,right,0.08334,1.5242,2.283,0.7588,0.1415,0.7911,0.6496,A
401,0.50002,1.2,1,0.23334,0.41669,0.40002,401,2.34177,0.58,0.29168,0.7917,5,2D1U,1.0,True,0.268,52,True,left,-0.25001,0.2028,1.0615,0.8587,1.5528,1.8692,0.3163,A
402,0.50002,0.1,1,0.44169,0.25834,0.58336,402,2.09176,-0.388,-0.19168,0.30835,5,2U1D,2.0,True,0.111,44,True,right,0.08334,0.5739,0.6152,0.0413,1.2907,1.6071,0.3164,A
403,0.50002,0.1,2,0.34168,0.30001,0.42502,403,2.33343,0.526,0.26668,0.7667,5,2D1U,2.0,True,0.241,52,False,right,-0.25001,1.1408,1.774,0.6332,0.5988,0.5825,-0.0163,A
404,0.50002,1.2,2,0.32501,0.40835,0.47502,404,2.01675,-0.388,-0.19168,0.30835,5,2U1D,1.0,True,0.266,44,True,left,0.08334,1.4195,1.6945,0.275,0.2529,0.9031,0.6502,A
405,0.50002,1.2,2,0.29168,0.37502,0.55002,405,2.48344,0.526,0.26668,0.7667,5,2D1U,2.0,True,0.248,52,False,right,-0.25001,1.2866,2.0197,0.7332,0.3865,0.7029,0.3164,A
406,0.50002,0.1,2,0.21668,0.25834,0.8417,406,2.15009,-0.334,-0.16667,0.33335,5,2U1D,1.0,True,0.317,44,False,left,0.08334,1.5984,1.7982,0.1998,0.3067,0.623,0.3163,A
407,0.50002,0.1,1,0.26668,0.35835,0.83337,407,2.69179,0.472,0.23334,0.73337,5,2D1U,2.0,False,0.35,52,False,right,-0.25001,0.3979,0.864,0.4661,1.9555,1.9387,-0.0168,A
408,0.50002,1.2,1,0.40002,0.25001,0.67503,408,2.15843,-0.334,-0.16667,0.33335,5,2U1D,2.0,True,0.335,44,False,right,0.08334,0.3655,0.7653,0.3998,1.3656,2.0157,0.6501,A
409,0.50002,1.2,1,0.37502,0.32501,0.64169,409,2.60844,0.526,0.26668,0.7667,5,2D1U,2.0,False,0.176,53,True,right,-0.25001,0.3371,1.1707,0.8336,1.904,2.2203,0.3163,A
410,0.50002,0.1,2,0.37502,0.35835,0.44169,410,2.46678,0.58,0.29168,0.7917,5,2D1U,2.0,True,0.188,53,False,right,0.08334,1.3554,2.0139,0.6585,0.4639,0.7804,0.3166,A
411,0.50002,0.1,1,0.35835,0.25001,0.70836,411,2.17509,-0.28,-0.14167,0.35835,5,2U1D,2.0,True,0.337,44,False,right,-0.25001,0.4882,0.5794,0.0912,1.546,1.5297,-0.0163,A
412,0.50002,1.2,1,0.35835,0.23334,0.46669,412,1.91675,-0.28,-0.14167,0.35835,5,2U1D,2.0,True,0.108,44,False,right,0.08334,0.3261,0.751,0.4248,1.1428,1.7926,0.6498,A
413,0.50002,1.2,1,0.42502,0.32501,0.41669,413,2.45844,0.58,0.29168,0.7917,5,2D1U,2.0,False,0.114,53,False,right,-0.25001,0.3898,1.2488,0.859,1.7569,2.0741,0.3172,A
414,0.50002,0.1,2,0.40002,0.35002,0.7417,414,2.37511,-0.226,-0.11667,0.38335,5,2U1D,1.0,True,0.313,44,False,left,0.08334,1.6799,1.9297,0.2498,0.4879,0.8045,0.3166,A
415,0.50002,0.1,1,0.40002,0.34168,0.42502,415,2.48344,0.634,0.31668,0.8167,5,2D1U,1.0,True,0.395,53,False,left,-0.25001,0.5319,1.0817,0.5498,1.765,1.7483,-0.0167,A
416,0.50002,1.2,2,0.27501,0.23334,0.70836,416,2.53343,0.634,0.31668,0.8167,5,2D1U,2.0,True,0.141,53,False,right,0.08334,1.587,2.3708,0.7838,0.1955,0.8457,0.6501,A
417,0.50002,1.2,1,0.29168,0.36668,0.54169,417,2.08342,-0.226,-0.11667,0.38335,5,2U1D,1.0,False,0.3,44,False,left,-0.25001,0.2601,0.7097,0.4497,1.3438,1.6607,0.3169,A
418,0.50002,0.1,1,0.22501,0.23334,0.7667,418,2.08342,-0.28,-0.14167,0.35835,5,2U1D,2.0,True,0.188,45,True,right,0.08334,0.3614,0.4528,0.0914,1.3113,1.6279,0.3166,A
419,0.50002,0.1,2,0.25834,0.20001,0.42502,419,1.74174,-0.28,-0.14167,0.35835,5,2U1D,1.0,True,0.409,45,True,left,-0.25001,1.0601,1.285,0.225,0.5181,0.502,-0.0161,A
420,0.50002,1.2,1,0.20834,0.31668,0.53336,420,2.3501,0.58,0.29168,0.7917,5,2D1U,2.0,False,0.112,54,True,right,0.08334,0.1744,1.0329,0.8584,1.4908,2.1414,0.6506,A
421,0.50002,1.2,1,0.38335,0.22501,0.75837,421,2.68345,0.634,0.31668,0.8167,5,2D1U,2.0,False,0.212,55,True,right,-0.25001,0.3466,1.2297,0.8831,2.0792,2.3961,0.3169,A
422,0.50002,0.1,2,0.22501,0.42502,0.59169,422,2.58344,0.688,0.34168,0.8417,5,2D1U,2.0,True,0.184,55,False,right,0.08334,1.3566,2.0645,0.708,0.3144,0.6313,0.3168,A
423,0.50002,0.1,2,0.33335,0.44169,0.77503,423,2.43344,-0.226,-0.11667,0.38335,5,2U1D,1.0,True,0.186,46,True,left,-0.25001,1.4823,1.7323,0.2499,0.5896,0.5738,-0.0158,A
424,0.50002,1.2,2,0.44169,0.38335,0.45835,424,2.62511,0.688,0.34168,0.8417,5,2D1U,2.0,True,0.189,55,False,right,0.08334,1.5041,2.3124,0.8083,0.3623,1.0125,0.6502,A
425,0.50002,1.2,1,0.45002,0.42502,0.51669,425,2.2751,-0.226,-0.11667,0.38335,5,2U1D,1.0,False,0.239,46,True,left,-0.25001,0.4156,0.8652,0.4495,1.4739,1.7904,0.3165,A
426,0.50002,0.1,2,0.44169,0.44169,0.51669,426,2.71679,0.634,0.31668,0.8167,5,2D1U,2.0,True,0.132,56,True,right,0.08334,1.4984,2.1825,0.6841,0.5325,0.849,0.3165,A
427,0.50002,0.1,1,0.31668,0.36668,0.70003,427,2.24176,-0.28,-0.14167,0.35835,5,2U1D,2.0,True,0.19,47,True,right,-0.25001,0.4527,0.5447,0.0921,1.5032,1.4864,-0.0168,A
428,0.50002,1.2,1,0.44169,0.34168,0.63336,428,2.2751,-0.28,-0.14167,0.35835,5,2U1D,2.0,True,0.178,47,True,right,0.08334,0.4078,0.8325,0.4247,1.3912,2.041,0.6498,A
429,0.50002,1.2,1,0.29168,0.24168,0.51669,429,2.36677,0.634,0.31668,0.8167,5,2D1U,1.0,True,0.339,56,True,left,-0.25001,0.2542,1.1381,0.8839,1.7462,2.0625,0.3163,A
430,0.50002,0.1,1,0.40002,0.25001,0.51669,430,2.05009,-0.226,-0.11667,0.38335,5,2U1D,2.0,True,0.109,48,True,right,0.08334,0.5314,0.6484,0.117,1.2567,1.5734,0.3167,A
431,0.50002,0.1,2,0.41669,0.23334,0.63336,431,2.57511,0.58,0.29168,0.7917,5,2D1U,2.0,True,0.126,56,False,right,-0.25001,1.424,2.0822,0.6582,0.6739,0.6574,-0.0165,A
432,0.50002,1.2,1,0.28335,0.42502,0.73337,432,2.32511,-0.226,-0.11667,0.38335,5,2U1D,2.0,True,0.734,48,True,right,0.08334,0.2457,0.6956,0.4499,1.3539,2.0039,0.65,A
433,0.50002,1.2,1,0.38335,0.33335,0.48335,433,2.49177,0.58,0.29168,0.7917,5,2D1U,2.0,False,0.293,56,False,right,-0.25001,0.3519,1.2098,0.8579,1.7852,2.1018,0.3167,A
434,0.50002,0.1,2,0.25834,0.25001,0.51669,434,1.94175,-0.172,-0.08334,0.41669,5,2U1D,2.0,False,0.547,48,False,right,0.08334,1.3115,1.5958,0.2843,0.3459,0.6623,0.3164,A
435,0.50002,0.1,2,0.37502,0.42502,0.85837,435,2.97513,0.634,0.31668,0.8167,5,2D1U,2.0,True,0.212,57,True,right,-0.25001,1.6068,2.29,0.6832,0.631,0.6143,-0.0167,A
436,0.50002,1.2,1,0.39168,0.42502,0.78337,436,2.91679,0.634,0.31668,0.8167,5,2D1U,2.0,False,0.151,57,True,right,0.08334,0.3563,1.2408,0.8846,1.9489,2.5984,0.6496,A
437,0.50002,1.2,2,0.37502,0.35002,0.46669,437,2.53345,0.688,0.34168,0.8417,5,2D1U,2.0,True,0.7,57,False,right,-0.25001,1.2821,2.0907,0.8087,0.4658,0.7817,0.3159,A
438,0.50002,0.1,2,0.27501,0.26668,0.47502,438,2.35843,0.688,0.34168,0.8417,5,2D1U,2.0,True,0.479,57,False,right,0.08334,1.292,2.0008,0.7089,0.3665,0.6839,0.3174,A
439,0.50002,0.1,1,0.40835,0.30835,0.70836,439,2.30843,-0.226,-0.11667,0.38335,5,2U1D,2.0,True,0.251,49,True,right,-0.25001,0.5448,0.6612,0.1164,1.6279,1.6108,-0.0171,A
440,0.50002,1.2,1,0.30001,0.25001,0.50836,440,1.94175,-0.226,-0.11667,0.38335,5,2U1D,1.0,False,0.4,49,True,left,0.08334,0.268,0.7188,0.4508,1.1523,1.8021,0.6498,A
441,0.50002,1.2,2,0.24168,0.24168,0.41669,441,2.21677,0.634,0.31668,0.8167,5,2D1U,2.0,True,0.237,58,True,right,-0.25001,1.0986,1.8823,0.7837,0.3318,0.6486,0.3168,A
442,0.50002,0.1,2,0.43335,0.24168,0.7917,442,2.3251,-0.28,-0.14167,0.35835,5,2U1D,1.0,True,0.337,49,False,left,0.08334,1.7657,1.9896,0.2239,0.5225,0.8394,0.317,A
443,0.50002,0.1,2,0.34168,0.23334,0.55002,443,1.98341,-0.28,-0.14167,0.35835,5,2U1D,1.0,True,0.29,49,False,left,-0.25001,1.263,1.4878,0.2248,0.5963,0.5797,-0.0165,A
444,0.50002,1.2,2,0.35002,0.20834,0.70836,444,2.15009,-0.226,-0.11667,0.38335,5,2U1D,1.0,True,0.671,50,True,left,0.08334,1.6655,2.0158,0.3503,0.2739,0.9241,0.6502,A
445,0.50002,1.2,2,0.20834,0.40002,0.8667,445,2.79178,0.634,0.31668,0.8167,5,2D1U,2.0,True,0.676,58,True,right,-0.25001,1.5202,2.3034,0.7832,0.3035,0.6195,0.316,A
446,0.50002,0.1,2,0.37502,0.42502,0.75837,446,2.44178,-0.226,-0.11667,0.38335,5,2U1D,2.0,False,0.601,50,True,right,0.08334,1.6716,1.9215,0.2499,0.4628,0.7797,0.3169,A
447,0.50002,0.1,2,0.42502,0.40002,0.53336,447,2.65012,0.58,0.29168,0.7917,5,2D1U,2.0,True,0.292,58,False,right,-0.25001,1.3316,1.9898,0.6582,0.6808,0.6643,-0.0165,A
448,0.50002,1.2,2,0.44169,0.37502,0.42502,448,2.1001,-0.28,-0.14167,0.35835,5,2U1D,1.0,True,0.223,51,True,left,0.08334,1.4735,1.7993,0.3257,0.3657,1.0156,0.65,A
449,0.50002,1.2,2,0.28335,0.31668,0.75003,449,2.64178,0.58,0.29168,0.7917,5,2D1U,2.0,True,0.109,58,False,right,-0.25001,1.4705,2.2288,0.7583,0.3703,0.6876,0.3173,A
450,0.50002,0.1,2,0.43335,0.28335,0.8667,450,2.44177,-0.28,-0.14167,0.35835,5,2U1D,1.0,True,0.318,51,True,left,0.08334,1.8379,2.0636,0.2257,0.5218,0.8385,0.3167,A
451,0.50002,0.1,1,0.43335,0.39168,0.85837,451,2.95012,0.526,0.26668,0.7667,5,2D1U,1.0,True,0.314,58,False,left,-0.25001,0.5647,1.0649,0.5002,2.1818,2.1651,-0.0167,A
452,0.50002,1.2,1,0.34168,0.21668,0.45002,452,1.89175,-0.226,-0.11667,0.38335,5,2U1D,2.0,True,0.283,52,True,right,0.08334,0.3111,0.7612,0.4501,1.1361,1.7857,0.6496,A
453,0.50002,1.2,2,0.30835,0.20001,0.64169,453,2.41677,0.526,0.26668,0.7667,5,2D1U,1.0,False,0.407,58,False,left,-0.25001,1.3903,2.1237,0.7335,0.3993,0.7158,0.3164,A
454,0.50002,0.1,1,0.21668,0.33335,0.73337,454,2.57512,0.58,0.29168,0.7917,5,2D1U,1.0,True,0.236,59,True,left,0.08334,0.3503,0.8757,0.5254,1.7009,2.0175,0.3167,A
455,0.50002,0.1,1,0.44169,0.22501,0.64169,455,2.19176,-0.226,-0.11667,0.38335,5,2U1D,2.0,True,0.255,52,True,right,-0.25001,0.5724,0.6886,0.1162,1.5891,1.5724,-0.0168,A
456,0.50002,1.2,1,0.30001,0.33335,0.65003,456,2.2001,-0.172,-0.08334,0.41669,5,2U1D,2.0,True,1.225,52,False,right,0.08334,0.2676,0.7514,0.4839,1.3258,1.976,0.6503,A
457,0.50002,1.2,2,0.22501,0.35002,0.85004,457,2.71679,0.58,0.29168,0.7917,5,2D1U,2.0,True,0.218,59,True,right,-0.25001,1.5187,2.2772,0.7586,0.319,0.6351,0.3161,A
458,0.50002,0.1,2,0.35835,0.22501,0.60836,458,2.45844,0.526,0.26668,0.7667,5,2D1U,2.0,True,0.35,60,True,right,0.08334,1.5104,2.1434,0.6331,0.4521,0.7694,0.3173,A
459,0.50002,0.1,2,0.25001,0.37502,0.75003,459,2.64178,0.526,0.26668,0.7667,5,2D1U,2.0,True,0.261,60,True,right,-0.25001,1.3739,2.0074,0.6334,0.5068,0.4903,-0.0165,A
460,0.50002,1.2,2,0.28335,0.26668,0.61669,460,2.08343,-0.172,-0.08334,0.41669,5,2U1D,2.0,False,0.288,52,False,right,0.08334,1.5057,1.8887,0.3829,0.2055,0.8557,0.6502,A
461,0.50002,1.2,2,0.26668,0.44169,0.68336,461,2.2751,-0.226,-0.11667,0.38335,5,2U1D,1.0,True,0.462,53,True,left,-0.25001,1.3923,1.7424,0.3501,0.3597,0.6768,0.3171,A
462,0.50002,0.1,2,0.25001,0.45002,0.49169,462,2.42511,0.472,0.23334,0.73337,5,2D1U,2.0,True,0.136,60,False,right,0.08334,1.2824,1.8822,0.5999,0.3401,0.6566,0.3165,A
463,0.50002,0.1,1,0.37502,0.43335,0.50002,463,2.54178,0.472,0.23334,0.73337,5,2D1U,1.0,True,0.323,60,False,left,-0.25001,0.5062,0.9725,0.4663,1.7307,1.7138,-0.0169,A
464,0.50002,1.2,2,0.35002,0.45002,0.85837,464,2.86679,0.418,0.20834,0.70836,5,2D1U,2.0,True,0.136,60,False,right,0.08334,1.8133,2.4881,0.6748,0.2713,0.9214,0.6501,A
465,0.50002,1.2,2,0.21668,0.33335,0.67503,465,2.43344,0.418,0.20834,0.70836,5,2D1U,2.0,True,0.296,60,False,right,-0.25001,1.3369,2.0113,0.6744,0.3117,0.6282,0.3165,A
466,0.50002,0.1,2,0.29168,0.22501,0.77503,466,2.17509,-0.226,-0.11667,0.38335,5,2U1D,1.0,True,0.683,53,True,left,0.08334,1.6067,1.8568,0.2501,0.3813,0.6989,0.3175,A
467,0.50002,0.1,2,0.34168,0.21668,0.45002,467,2.19176,0.364,0.18334,0.68336,5,2D1U,2.0,True,0.316,60,False,right,-0.25001,1.1647,1.7153,0.5506,0.5986,0.5811,-0.0175,A
468,0.50002,1.2,1,0.35002,0.31668,0.50836,468,2.09177,-0.172,-0.08334,0.41669,5,2U1D,2.0,True,0.235,54,True,right,0.08334,0.3126,0.7962,0.4836,1.2299,1.8793,0.6494,A
469,0.50002,1.2,1,0.20834,0.37502,0.59169,469,2.35843,0.364,0.18334,0.68336,5,2D1U,1.0,True,0.227,60,False,left,-0.25001,0.174,0.9241,0.7502,1.6074,1.9246,0.3172,A
470,0.50002,0.1,1,0.23334,0.25001,0.8417,470,2.24176,-0.172,-0.08334,0.41669,5,2U1D,2.0,True,0.136,54,True,right,0.08334,0.3659,0.516,0.1501,1.4495,1.7661,0.3167,A
471,0.50002,0.1,2,0.20001,0.42502,0.75837,471,2.54178,0.31,0.15834,0.65836,5,2D1U,2.0,True,0.11,60,False,right,-0.25001,1.3318,1.8569,0.525,0.4574,0.4411,-0.0163,A
472,0.50002,1.2,2,0.44169,0.30001,0.59169,472,2.2751,-0.118,-0.05834,0.44169,5,2U1D,2.0,False,0.155,54,False,right,0.08334,1.6369,2.0446,0.4078,0.3617,1.0113,0.6496,A
473,0.50002,1.2,1,0.32501,0.34168,0.48335,473,2.30842,0.31,0.15834,0.65836,5,2D1U,2.0,False,0.537,60,False,right,-0.25001,0.2903,1.0158,0.7255,1.59,1.9069,0.3169,A
474,0.50002,0.1,2,0.27501,0.30001,0.85837,474,2.61677,0.364,0.18334,0.68336,5,2D1U,2.0,True,0.997,61,True,right,0.08334,1.6758,2.2259,0.5501,0.3669,0.684,0.3171,A
475,0.50002,0.1,2,0.41669,0.41669,0.88337,475,2.63346,-0.172,-0.08334,0.41669,5,2U1D,1.0,True,0.274,55,True,left,-0.25001,1.6723,1.9555,0.2832,0.6722,0.6555,-0.0167,A
476,0.50002,1.2,1,0.42502,0.40835,0.70836,476,2.72511,0.364,0.18334,0.68336,5,2D1U,1.0,True,0.195,61,True,left,0.08334,0.395,1.1449,0.7499,1.7783,2.4282,0.6499,A
477,0.50002,1.2,2,0.40002,0.34168,0.44169,477,2.1001,-0.172,-0.08334,0.41669,5,2U1D,1.0,True,0.274,55,True,left,-0.25001,1.2816,1.6654,0.3838,0.4911,0.807,0.316,A
478,0.50002,0.1,2,0.38335,0.35835,0.7417,478,2.64178,0.31,0.15834,0.65836,5,2D1U,2.0,True,0.24,62,True,right,0.08334,1.6652,2.1896,0.5244,0.4728,0.7898,0.317,A
479,0.50002,0.1,2,0.25834,0.37502,0.75837,479,2.55011,0.31,0.15834,0.65836,5,2D1U,2.0,True,0.109,62,True,right,-0.25001,1.3902,1.9156,0.5254,0.5146,0.4979,-0.0167,A
480,0.50002,1.2,2,0.38335,0.33335,0.77503,480,2.61678,0.256,0.12501,0.62503,5,2D1U,2.0,True,0.22,62,False,right,0.08334,1.7618,2.3536,0.5919,0.3038,0.953,0.6492,A
481,0.50002,1.2,2,0.35002,0.30001,0.63336,481,2.2251,-0.118,-0.05834,0.44169,5,2U1D,2.0,False,0.526,56,True,right,-0.25001,1.4248,1.8335,0.4088,0.4411,0.7579,0.3167,A
482,0.50002,0.1,2,0.36668,0.30001,0.75837,482,2.34177,-0.172,-0.08334,0.41669,5,2U1D,2.0,False,0.48,57,True,right,0.08334,1.6699,1.9533,0.2835,0.4623,0.7782,0.316,A
483,0.50002,0.1,2,0.36668,0.25001,0.7667,483,2.50844,0.256,0.12501,0.62503,5,2D1U,1.0,False,0.67,62,False,left,-0.25001,1.5049,1.9959,0.4911,0.6209,0.6045,-0.0164,A
484,0.50002,1.2,2,0.35835,0.34168,0.77503,484,2.63344,0.31,0.15834,0.65836,5,2D1U,2.0,True,0.268,63,True,right,0.08334,1.7382,2.3624,0.6242,0.2794,0.9294,0.6501,A
485,0.50002,1.2,1,0.28335,0.25001,0.70836,485,2.4001,0.31,0.15834,0.65836,5,2D1U,2.0,False,1.709,63,True,right,-0.25001,0.2532,0.9781,0.7249,1.778,2.0945,0.3164,A
486,0.50002,0.1,2,0.44169,0.20834,0.57503,486,2.10843,-0.226,-0.11667,0.38335,5,2U1D,1.0,True,0.421,57,False,left,0.08334,1.5542,1.805,0.2508,0.5292,0.8471,0.3178,A
487,0.50002,0.1,1,0.34168,0.29168,0.48335,487,2.30009,0.364,0.18334,0.68336,5,2D1U,1.0,True,0.398,63,False,left,-0.25001,0.4706,0.8871,0.4165,1.6282,1.6115,-0.0166,A
488,0.50002,1.2,1,0.30835,0.35002,0.59169,488,2.13343,-0.226,-0.11667,0.38335,5,2U1D,2.0,True,0.168,57,False,right,0.08334,0.2721,0.7214,0.4493,1.2382,1.8876,0.6495,A
489,0.50002,1.2,1,0.44169,0.21668,0.50836,489,2.35011,0.364,0.18334,0.68336,5,2D1U,2.0,False,0.265,63,False,right,-0.25001,0.4029,1.1533,0.7503,1.7531,2.07,0.3169,A
490,0.50002,0.1,1,0.37502,0.33335,0.7417,490,2.65845,0.418,0.20834,0.70836,5,2D1U,1.0,True,0.638,63,False,left,0.08334,0.5037,0.9455,0.4418,1.7781,2.0951,0.317,A
491,0.50002,0.1,2,0.32501,0.31668,0.60836,491,2.45843,0.418,0.20834,0.70836,5,2D1U,2.0,True,0.146,63,False,right,-0.25001,1.304,1.878,0.574,0.579,0.5618,-0.0172,A
492,0.50002,1.2,2,0.29168,0.41669,0.80837,492,2.43345,-0.172,-0.08334,0.41669,5,2U1D,1.0,True,0.292,58,True,left,0.08334,1.7028,2.0859,0.3831,0.2115,0.8614,0.65,A
493,0.50002,1.2,1,0.25834,0.28335,0.8417,493,2.3001,-0.172,-0.08334,0.41669,5,2U1D,1.0,False,0.341,58,True,left,-0.25001,0.2282,0.7111,0.4829,1.6449,1.9607,0.3159,A
494,0.50002,0.1,1,0.32501,0.33335,0.7667,494,2.60844,0.364,0.18334,0.68336,5,2D1U,1.0,True,0.646,64,True,left,0.08334,0.4592,0.8758,0.4167,1.7347,2.0514,0.3167,A
495,0.50002,0.1,1,0.42502,0.41669,0.77503,495,2.80012,0.364,0.18334,0.68336,5,2D1U,2.0,False,0.233,64,True,right,-0.25001,0.5596,0.9758,0.4162,2.0095,1.9934,-0.016,A
496,0.50002,1.2,2,0.30001,0.27501,0.65003,496,2.10842,-0.226,-0.11667,0.38335,5,2U1D,2.0,False,1.076,59,True,right,0.08334,1.5609,1.9104,0.3495,0.2276,0.8776,0.6499,A
497,0.50002,1.2,1,0.32501,0.31668,0.47502,497,2.32509,0.418,0.20834,0.70836,5,2D1U,2.0,False,0.176,65,True,right,-0.25001,0.2889,1.0638,0.7749,1.631,1.9476,0.3167,A
498,0.50002,0.1,2,0.42502,0.35835,0.6667,498,2.68346,0.472,0.23334,0.73337,5,2D1U,2.0,True,0.249,65,False,right,0.08334,1.63,2.2293,0.5993,0.5135,0.8299,0.3163,A
499,0.50002,0.1,2,0.30001,0.27501,0.80837,499,2.24176,-0.28,-0.14167,0.35835,5,2U1D,1.0,True,0.308,59,False,left,-0.25001,1.4854,1.7106,0.2253,0.5605,0.5439,-0.0166,A
500,0.50002,1.2,1,0.33335,0.44169,0.45002,500,2.45845,0.472,0.23334,0.73337,5,2D1U,2.0,False,0.495,65,False,right,0.08334,0.2976,1.0969,0.7993,1.4715,2.1214,0.6499,A
501,0.50002,1.2,1,0.25834,0.29168,0.7667,501,2.17509,-0.28,-0.14167,0.35835,5,2U1D,1.0,False,0.483,59,False,left,-0.25001,0.2277,0.6523,0.4246,1.5101,1.827,0.3169,A
502,0.50002,0.1,1,0.25834,0.40835,0.75837,502,2.69178,0.526,0.26668,0.7667,5,2D1U,1.0,True,0.24,65,False,left,0.08334,0.387,0.8871,0.5001,1.7371,2.0535,0.3164,A
503,0.50002,0.1,1,0.33335,0.25834,0.52502,503,1.95008,-0.334,-0.16667,0.33335,5,2U1D,2.0,True,0.249,59,False,right,-0.25001,0.4652,0.5319,0.0666,1.3153,1.2985,-0.0169,A
504,0.50002,1.2,1,0.42502,0.45002,0.85837,504,3.00013,0.526,0.26668,0.7667,5,2D1U,1.0,True,0.189,65,False,left,0.08334,0.3926,1.2265,0.8339,2.0097,2.6601,0.6504,A
505,0.50002,1.2,2,0.30001,0.31668,0.64169,505,2.49177,0.472,0.23334,0.73337,5,2D1U,2.0,True,0.24,66,True,right,-0.25001,1.379,2.0788,0.6998,0.3868,0.7035,0.3167,A
506,0.50002,0.1,1,0.41669,0.44169,0.62503,506,2.31678,-0.334,-0.16667,0.33335,5,2U1D,2.0,True,0.45,59,False,right,0.08334,0.5481,0.6148,0.0668,1.3318,1.6482,0.3164,A
507,0.50002,0.1,1,0.40835,0.33335,0.77503,507,2.3751,-0.28,-0.14167,0.35835,5,2U1D,2.0,True,0.342,60,True,right,-0.25001,0.5443,0.6354,0.0911,1.6688,1.6522,-0.0166,A
508,0.50002,1.2,2,0.35002,0.40002,0.65836,508,2.64179,0.472,0.23334,0.73337,5,2D1U,2.0,True,2.299,66,True,right,0.08334,1.6195,2.3188,0.6993,0.2771,0.9275,0.6504,A
509,0.50002,1.2,1,0.25834,0.25834,0.90004,509,2.6251,0.418,0.20834,0.70836,5,2D1U,1.0,True,0.25,66,False,left,-0.25001,0.2263,1.0007,0.7743,1.992,2.3101,0.3181,A
510,0.50002,0.1,2,0.20834,0.20001,0.68336,510,2.30009,0.418,0.20834,0.70836,5,2D1U,2.0,True,0.308,66,False,right,0.08334,1.4323,2.0067,0.5744,0.2989,0.6155,0.3166,A
511,0.50002,0.1,2,0.39168,0.34168,0.82504,511,2.41677,-0.28,-0.14167,0.35835,5,2U1D,1.0,True,0.541,60,True,left,-0.25001,1.5952,1.8198,0.2245,0.6535,0.6368,-0.0167,A
512,0.50002,1.2,2,0.44169,0.36668,0.64169,512,2.33343,-0.226,-0.11667,0.38335,5,2U1D,2.0,False,0.979,60,False,right,0.08334,1.6871,2.0369,0.3499,0.3615,1.0119,0.6504,A
513,0.50002,1.2,2,0.30001,0.21668,0.64169,513,2.34176,0.364,0.18334,0.68336,5,2D1U,2.0,True,0.251,66,False,right,-0.25001,1.3786,2.0279,0.6493,0.387,0.7035,0.3165,A
514,0.50002,0.1,1,0.37502,0.24168,0.75003,514,2.55011,0.364,0.18334,0.68336,5,2D1U,2.0,False,0.347,66,False,right,0.08334,0.5059,0.9229,0.417,1.7647,2.0804,0.3157,A
515,0.50002,0.1,2,0.21668,0.40002,0.7667,515,2.59178,0.418,0.20834,0.70836,5,2D1U,2.0,True,0.303,67,True,right,-0.25001,1.3565,1.9318,0.5753,0.4738,0.4569,-0.0169,A
516,0.50002,1.2,2,0.35002,0.34168,0.60003,516,2.50011,0.418,0.20834,0.70836,5,2D1U,2.0,True,0.399,67,True,right,0.08334,1.5568,2.2323,0.6755,0.2738,0.9241,0.6503,A
517,0.50002,1.2,2,0.31668,0.23334,0.89171,517,2.3001,-0.28,-0.14167,0.35835,5,2U1D,1.0,True,0.32,61,True,left,-0.25001,1.6488,1.9741,0.3253,0.4077,0.7251,0.3174,A
518,0.50002,0.1,1,0.43335,0.40002,0.65003,518,2.34177,-0.28,-0.14167,0.35835,5,2U1D,2.0,True,0.202,61,True,right,0.08334,0.5677,0.6593,0.0916,1.4015,1.718,0.3165,A
519,0.50002,0.1,2,0.24168,0.41669,0.48335,519,2.3251,0.364,0.18334,0.68336,5,2D1U,2.0,True,0.217,68,True,right,-0.25001,1.0977,1.6484,0.5507,0.4985,0.4823,-0.0162,A
520,0.50002,1.2,1,0.25001,0.26668,0.7167,520,2.11676,-0.226,-0.11667,0.38335,5,2U1D,2.0,True,1.632,62,True,right,0.08334,0.2153,0.6663,0.451,1.3074,1.9576,0.6502,A
521,0.50002,1.2,1,0.40002,0.40835,0.48335,521,2.4751,0.364,0.18334,0.68336,5,2D1U,1.0,True,0.298,68,True,left,-0.25001,0.3635,1.1143,0.7508,1.6895,2.0053,0.3158,A
522,0.50002,0.1,1,0.39168,0.22501,0.75003,522,2.25009,-0.226,-0.11667,0.38335,5,2U1D,2.0,True,0.16,62,True,right,0.08334,0.5233,0.6404,0.1171,1.4822,1.7983,0.3161,A
523,0.50002,0.1,2,0.29168,0.26668,0.56669,523,2.04176,-0.172,-0.08334,0.41669,5,2U1D,1.0,True,0.468,62,False,left,-0.25001,1.2297,1.5136,0.2839,0.5463,0.5299,-0.0164,A
524,0.50002,1.2,1,0.34168,0.25001,0.6917,524,2.2001,-0.172,-0.08334,0.41669,5,2U1D,2.0,True,0.111,62,False,right,0.08334,0.3072,0.791,0.4838,1.4077,2.0576,0.6499,A
525,0.50002,1.2,2,0.42502,0.27501,0.47502,525,2.33343,0.31,0.15834,0.65836,5,2D1U,2.0,True,1.02,68,False,right,-0.25001,1.3388,1.9639,0.6251,0.5128,0.8301,0.3173,A
526,0.50002,0.1,2,0.37502,0.37502,0.63336,526,2.54178,0.31,0.15834,0.65836,5,2D1U,2.0,True,1.09,68,False,right,0.08334,1.5468,2.0709,0.5241,0.4627,0.7792,0.3165,A
527,0.50002,0.1,1,0.25001,0.25001,0.64169,527,2.08342,-0.118,-0.05834,0.44169,5,2U1D,2.0,True,0.213,62,False,right,-0.25001,0.3804,0.5557,0.1753,1.4562,1.4389,-0.0172,A
528,0.50002,1.2,2,0.38335,0.30001,0.65003,528,2.2751,-0.118,-0.05834,0.44169,5,2U1D,1.0,True,0.395,62,False,left,0.08334,1.6443,2.0533,0.409,0.3111,0.9619,0.6509,A
529,0.50002,1.2,1,0.39168,0.38335,0.45002,529,2.3501,0.256,0.12501,0.62503,5,2D1U,1.0,True,0.696,68,False,left,-0.25001,0.3524,1.0448,0.6925,1.586,1.9027,0.3168,A
530,0.50002,0.1,1,0.31668,0.37502,0.42502,530,2.08343,-0.064,-0.03333,0.46669,5,2U1D,2.0,True,0.326,62,False,right,0.08334,0.4479,0.6473,0.1994,1.1642,1.4808,0.3166,A
531,0.50002,0.1,1,0.21668,0.44169,0.8417,531,2.62512,0.256,0.12501,0.62503,5,2D1U,1.0,True,0.269,68,False,left,-0.25001,0.3518,0.7106,0.3588,1.8104,1.794,-0.0164,A
532,0.50002,1.2,1,0.35835,0.41669,0.68336,532,2.55845,0.202,0.1,0.60003,5,2D1U,2.0,False,0.65,68,False,right,0.08334,0.3233,0.9892,0.6659,1.5985,2.2483,0.6498,A
533,0.50002,1.2,1,0.20001,0.27501,0.75003,533,2.3501,0.256,0.12501,0.62503,5,2D1U,1.0,True,0.274,69,True,left,-0.25001,0.1623,0.8545,0.6923,1.6956,2.0131,0.3176,A
534,0.50002,0.1,2,0.36668,0.34168,0.60836,534,2.28343,-0.064,-0.03333,0.46669,5,2U1D,1.0,True,0.294,62,False,left,0.08334,1.5135,1.8469,0.3334,0.4559,0.7722,0.3163,A
535,0.50002,0.1,1,0.23334,0.22501,0.6667,535,2.11676,-0.01,-0.00833,0.49169,5,2U1D,2.0,True,0.247,62,False,right,-0.25001,0.3697,0.5943,0.2246,1.5195,1.5025,-0.0169,A
536,0.50002,1.2,2,0.30835,0.40002,0.85837,536,2.69179,0.256,0.12501,0.62503,5,2D1U,2.0,True,0.225,69,True,right,0.08334,1.7747,2.3655,0.5908,0.232,0.8825,0.6505,A
537,0.50002,1.2,2,0.31668,0.22501,0.62503,537,2.15843,-0.01,-0.00833,0.49169,5,2U1D,2.0,False,0.113,62,False,right,-0.25001,1.3808,1.8396,0.4588,0.4065,0.7226,0.3161,A
538,0.50002,0.1,1,0.32501,0.35002,0.51669,538,2.15843,-0.064,-0.03333,0.46669,5,2U1D,1.0,False,0.255,63,True,left,0.08334,0.454,0.6546,0.2005,1.2628,1.5798,0.317,A
539,0.50002,0.1,2,0.32501,0.42502,0.60836,539,2.3001,-0.118,-0.05834,0.44169,5,2U1D,1.0,True,0.28,63,False,left,-0.25001,1.3099,1.618,0.3081,0.5851,0.5685,-0.0166,A
540,0.50002,1.2,2,0.29168,0.43335,0.49169,540,2.31677,0.202,0.1,0.60003,5,2D1U,2.0,True,0.801,70,True,right,0.08334,1.3881,1.9554,0.5673,0.2142,0.8641,0.6499,A
541,0.50002,1.2,2,0.43335,0.43335,0.49169,541,2.3001,-0.118,-0.05834,0.44169,5,2U1D,1.0,True,0.176,63,False,left,-0.25001,1.364,1.7726,0.4086,0.5219,0.8396,0.3177,A
542,0.50002,0.1,1,0.27501,0.31668,0.54169,542,2.23343,0.202,0.1,0.60003,5,2D1U,1.0,True,0.237,70,True,left,0.08334,0.4051,0.7375,0.3324,1.3714,1.6873,0.3159,A
543,0.50002,0.1,1,0.32501,0.34168,0.7667,543,2.50844,0.148,0.075,0.57503,5,2D1U,1.0,True,0.299,70,False,left,-0.25001,0.4562,0.7638,0.3076,1.7889,1.7719,-0.0171,A
544,0.50002,1.2,2,0.34168,0.41669,0.55002,544,2.2751,-0.064,-0.03333,0.46669,5,2U1D,2.0,False,1.034,64,True,right,0.08334,1.4962,1.9301,0.4339,0.2631,0.9132,0.6501,A
545,0.50002,1.2,1,0.43335,0.25834,0.7167,545,2.3501,-0.118,-0.05834,0.44169,5,2U1D,2.0,True,0.707,65,True,right,-0.25001,0.3968,0.9054,0.5086,1.7133,2.0303,0.3171,A
546,0.50002,0.1,2,0.39168,0.24168,0.7667,546,2.47511,0.148,0.075,0.57503,5,2D1U,2.0,True,1.349,70,False,right,0.08334,1.6955,2.1374,0.4419,0.4792,0.7956,0.3165,A
547,0.50002,0.1,2,0.37502,0.20001,0.7917,547,2.30844,-0.118,-0.05834,0.44169,5,2U1D,1.0,True,0.566,65,True,left,-0.25001,1.5442,1.8529,0.3087,0.6358,0.6197,-0.0161,A
548,0.50002,1.2,1,0.33335,0.32501,0.44169,548,2.15009,0.094,0.05,0.55002,5,2D1U,2.0,False,0.242,70,False,right,0.08334,0.2954,0.9125,0.6171,1.2791,1.9291,0.65,A
549,0.50002,1.2,1,0.35002,0.40835,0.51669,549,2.35011,0.148,0.075,0.57503,5,2D1U,1.0,True,0.113,71,True,left,-0.25001,0.3194,0.96,0.6407,1.5684,1.8852,0.3168,A
550,0.50002,0.1,1,0.28335,0.25834,0.55002,550,2.05842,-0.064,-0.03333,0.46669,5,2U1D,1.0,False,0.245,66,True,left,0.08334,0.4155,0.6154,0.1998,1.2572,1.5734,0.3162,A
551,0.50002,0.1,1,0.34168,0.37502,0.85004,551,2.50845,-0.118,-0.05834,0.44169,5,2U1D,1.0,False,0.554,67,True,left,-0.25001,0.4783,0.6537,0.1754,1.761,1.7449,-0.0161,A
552,0.50002,1.2,1,0.25001,0.24168,0.75837,552,2.16677,-0.172,-0.08334,0.41669,5,2U1D,2.0,True,0.23,67,False,right,0.08334,0.2186,0.702,0.4834,1.3864,2.0358,0.6494,A
553,0.50002,1.2,1,0.26668,0.35002,0.7417,553,2.43345,0.148,0.075,0.57503,5,2D1U,2.0,False,0.258,71,True,right,-0.25001,0.232,0.873,0.6411,1.7071,2.0235,0.3164,A
554,0.50002,0.1,2,0.25834,0.34168,0.89171,554,2.40844,-0.172,-0.08334,0.41669,5,2U1D,1.0,True,0.399,67,False,left,0.08334,1.693,1.9771,0.2841,0.3512,0.668,0.3168,A
555,0.50002,0.1,2,0.43335,0.24168,0.80004,555,2.41678,-0.118,-0.05834,0.44169,5,2U1D,1.0,True,0.475,68,True,left,-0.25001,1.6057,1.9143,0.3086,0.6888,0.6728,-0.016,A
556,0.50002,1.2,2,0.20001,0.23334,0.61669,556,2.15009,0.202,0.1,0.60003,5,2D1U,2.0,True,0.11,71,False,right,0.08334,1.4251,1.9918,0.5666,0.1242,0.7755,0.6513,A
557,0.50002,1.2,1,0.25001,0.23334,0.7167,557,2.3001,0.202,0.1,0.60003,5,2D1U,1.0,True,0.302,71,False,left,-0.25001,0.2171,0.884,0.6669,1.6923,2.0087,0.3165,A
558,0.50002,0.1,1,0.43335,0.20834,0.53336,558,2.2501,0.148,0.075,0.57503,5,2D1U,2.0,False,0.212,72,True,right,0.08334,0.5645,0.873,0.3085,1.4982,1.8148,0.3166,A
559,0.50002,0.1,2,0.26668,0.38335,0.78337,559,2.37511,-0.118,-0.05834,0.44169,5,2U1D,1.0,True,0.224,68,True,left,-0.25001,1.4213,1.7301,0.3087,0.5213,0.5046,-0.0167,A
560,0.50002,1.2,1,0.39168,0.33335,0.46669,560,2.29177,0.202,0.1,0.60003,5,2D1U,1.0,True,0.198,73,True,left,0.08334,0.3568,1.0241,0.6673,1.415,2.0658,0.6508,A
561,0.50002,1.2,2,0.44169,0.35002,0.48335,561,2.24177,-0.064,-0.03333,0.46669,5,2U1D,2.0,False,0.107,68,False,right,-0.25001,1.3623,1.7957,0.4334,0.529,0.8463,0.3173,A
562,0.50002,0.1,1,0.35002,0.30001,0.80837,562,2.55845,0.202,0.1,0.60003,5,2D1U,1.0,True,0.334,73,True,left,0.08334,0.4804,0.8127,0.3322,1.7128,2.0307,0.3179,A
563,0.50002,0.1,1,0.25001,0.38335,0.56669,563,2.2751,0.148,0.075,0.57503,5,2D1U,2.0,False,0.216,74,True,right,-0.25001,0.3798,0.6893,0.3095,1.5142,1.4973,-0.0169,A
564,0.50002,1.2,1,0.40002,0.20834,0.72503,564,2.43344,0.202,0.1,0.60003,5,2D1U,2.0,False,0.442,75,True,right,0.08334,0.3671,1.0346,0.6675,1.6845,2.3337,0.6492,A
565,0.50002,1.2,2,0.25834,0.35835,0.53336,565,2.09176,-0.118,-0.05834,0.44169,5,2U1D,1.0,True,0.234,69,True,left,-0.25001,1.2364,1.6451,0.4087,0.3527,0.6697,0.317,A
566,0.50002,0.1,1,0.24168,0.20834,0.48335,566,1.87508,-0.118,-0.05834,0.44169,5,2U1D,2.0,True,0.359,69,True,right,0.08334,0.3772,0.552,0.1748,1.127,1.4439,0.3169,A
567,0.50002,0.1,1,0.27501,0.37502,0.44169,567,2.21677,0.256,0.12501,0.62503,5,2D1U,1.0,True,0.328,75,False,left,-0.25001,0.4048,0.7628,0.358,1.4627,1.4462,-0.0165,A
568,0.50002,1.2,1,0.20001,0.38335,0.50836,568,2.05843,-0.064,-0.03333,0.46669,5,2U1D,2.0,True,0.296,70,True,right,0.08334,0.1678,0.701,0.5332,1.1351,1.7849,0.6498,A
569,0.50002,1.2,1,0.28335,0.33335,0.77503,569,2.35844,-0.064,-0.03333,0.46669,5,2U1D,1.0,False,0.291,70,True,left,-0.25001,0.2482,0.7819,0.5337,1.6484,1.9651,0.3166,A
570,0.50002,0.1,1,0.27501,0.40835,0.7667,570,2.39177,-0.118,-0.05834,0.44169,5,2U1D,2.0,True,0.427,71,True,right,0.08334,0.4074,0.5826,0.1752,1.4413,1.7574,0.316,A
571,0.50002,0.1,1,0.30001,0.39168,0.42502,571,2.24176,0.256,0.12501,0.62503,5,2D1U,2.0,False,0.571,75,False,right,-0.25001,0.4348,0.7925,0.3577,1.4766,1.4597,-0.0168,A
572,0.50002,1.2,1,0.35002,0.40002,0.70836,572,2.61678,0.31,0.15834,0.65836,5,2D1U,2.0,False,0.228,75,False,right,0.08334,0.3158,1.0414,0.7256,1.6742,2.3243,0.6501,A
573,0.50002,1.2,1,0.20834,0.31668,0.43335,573,1.90008,-0.118,-0.05834,0.44169,5,2U1D,1.0,False,0.226,71,True,left,-0.25001,0.1738,0.6822,0.5084,1.2073,1.5237,0.3164,A
574,0.50002,0.1,1,0.35002,0.20001,0.52502,574,1.99176,-0.172,-0.08334,0.41669,5,2U1D,2.0,True,0.268,71,False,right,0.08334,0.4809,0.6307,0.1498,1.2472,1.5637,0.3165,A
575,0.50002,0.1,1,0.32501,0.25834,0.40835,575,1.90841,-0.172,-0.08334,0.41669,5,2U1D,2.0,True,0.457,71,False,right,-0.25001,0.4536,0.6041,0.1505,1.2702,1.2533,-0.0169,A
576,0.50002,1.2,2,0.27501,0.21668,0.75837,576,2.43344,0.364,0.18334,0.68336,5,2D1U,1.0,False,0.979,75,False,left,0.08334,1.6365,2.2868,0.6503,0.1949,0.8458,0.6509,A
577,0.50002,1.2,1,0.23334,0.32501,0.61669,577,2.38342,0.418,0.20834,0.70836,5,2D1U,1.0,True,0.121,75,False,left,-0.25001,0.1968,0.9717,0.7749,1.6807,1.9967,0.316,A
578,0.50002,0.1,1,0.24168,0.24168,0.61669,578,2.30843,0.418,0.20834,0.70836,5,2D1U,2.0,False,0.15,75,False,right,0.08334,0.3704,0.8126,0.4422,1.5214,1.8378,0.3163,A
579,0.50002,0.1,1,0.36668,0.27501,0.85837,579,2.44177,-0.118,-0.05834,0.44169,5,2U1D,2.0,True,0.332,72,True,right,-0.25001,0.4952,0.6703,0.1751,1.7877,1.7707,-0.017,A
580,0.50002,1.2,2,0.21668,0.22501,0.58336,580,1.96676,-0.118,-0.05834,0.44169,5,2U1D,1.0,True,0.155,72,True,left,0.08334,1.4087,1.817,0.4082,0.1415,0.792,0.6505,A
581,0.50002,1.2,1,0.40835,0.20834,0.68336,581,2.53344,0.472,0.23334,0.73337,5,2D1U,2.0,False,0.171,75,False,right,-0.25001,0.371,1.1703,0.7993,1.9457,2.2622,0.3164,A
582,0.50002,0.1,1,0.27501,0.32501,0.8417,582,2.40843,-0.064,-0.03333,0.46669,5,2U1D,1.0,False,0.156,72,False,left,0.08334,0.4039,0.6038,0.1999,1.5371,1.8548,0.3177,A
583,0.50002,0.1,1,0.40002,0.25001,0.51669,583,2.43344,0.526,0.26668,0.7667,5,2D1U,1.0,True,0.536,75,False,left,-0.25001,0.529,1.0295,0.5005,1.804,1.7873,-0.0167,A
584,0.50002,1.2,2,0.41669,0.36668,0.45002,584,2.1751,-0.118,-0.05834,0.44169,5,2U1D,1.0,True,0.632,73,True,left,0.08334,1.4705,1.8789,0.4084,0.3371,0.9872,0.65,A
585,0.50002,1.2,1,0.36668,0.32501,0.7417,585,2.70011,0.526,0.26668,0.7667,5,2D1U,2.0,False,0.112,75,False,right,-0.25001,0.3357,1.1691,0.8334,2.0032,2.3193,0.3161,A
586,0.50002,0.1,2,0.42502,0.44169,0.63336,586,2.44178,-0.118,-0.05834,0.44169,5,2U1D,1.0,True,0.28,73,True,left,0.08334,1.5996,1.908,0.3083,0.5153,0.8327,0.3174,A
587,0.50002,0.1,1,0.31668,0.30001,0.59169,587,2.17509,-0.064,-0.03333,0.46669,5,2U1D,2.0,True,0.211,74,True,right,-0.25001,0.4513,0.6518,0.2006,1.501,1.4847,-0.0163,A
588,0.50002,1.2,2,0.38335,0.27501,0.65003,588,2.60011,0.58,0.29168,0.7917,5,2D1U,2.0,True,0.108,75,False,right,0.08334,1.6418,2.3997,0.758,0.3085,0.9584,0.6499,A
589,0.50002,1.2,2,0.27501,0.21668,0.63336,589,2.41677,0.58,0.29168,0.7917,5,2D1U,2.0,True,0.694,75,False,right,-0.25001,1.3523,2.1116,0.7593,0.3694,0.6862,0.3168,A
590,0.50002,0.1,1,0.23334,0.33335,0.45002,590,2.28343,0.526,0.26668,0.7667,5,2D1U,1.0,True,0.596,76,True,left,0.08334,0.3654,0.8655,0.5,1.4068,1.7232,0.3163,A
591,0.50002,0.1,2,0.35002,0.25001,0.68336,591,2.55011,0.526,0.26668,0.7667,5,2D1U,2.0,True,0.328,76,True,right,-0.25001,1.407,2.041,0.6339,0.6074,0.5909,-0.0164,A
592,0.50002,1.2,1,0.27501,0.27501,0.8667,592,2.38343,-0.064,-0.03333,0.46669,5,2U1D,2.0,True,0.112,74,True,right,0.08334,0.2386,0.7726,0.534,1.5647,2.2139,0.6492,A
593,0.50002,1.2,1,0.21668,0.28335,0.51669,593,2.00843,-0.01,-0.00833,0.49169,5,2U1D,2.0,True,0.228,74,False,right,-0.25001,0.1812,0.7398,0.5586,1.3489,1.6651,0.3162,A
594,0.50002,0.1,2,0.21668,0.40002,0.45835,594,2.30844,0.472,0.23334,0.73337,5,2D1U,2.0,True,0.179,76,False,right,0.08334,1.2193,1.82,0.6006,0.3111,0.6282,0.3172,A
595,0.50002,0.1,2,0.41669,0.35002,0.54169,595,2.30011,-0.01,-0.00833,0.49169,5,2U1D,1.0,True,0.664,74,False,left,-0.25001,1.3322,1.6906,0.3584,0.6732,0.6569,-0.0163,A
596,0.50002,1.2,2,0.24168,0.21668,0.54169,596,2.23344,0.472,0.23334,0.73337,5,2D1U,2.0,True,0.15,76,False,right,0.08334,1.3906,2.0903,0.6997,0.1646,0.8153,0.6507,A
597,0.50002,1.2,2,0.43335,0.40002,0.80837,597,2.66678,0.044,0.025,0.52502,5,2U1D,1.0,False,0.762,74,False,left,-0.25001,1.6823,2.1742,0.4918,0.5241,0.8412,0.3172,A
598,0.50002,0.1,2,0.21668,0.20001,0.49169,598,1.95842,0.098,0.05,0.55002,5,2U1D,2.0,True,0.266,75,True,right,0.08334,1.248,1.6652,0.4171,0.3064,0.6236,0.3172,A
599,0.50002,0.1,2,0.28335,0.22501,0.8167,599,2.3751,0.098,0.05,0.55002,5,2U1D,1.0,False,0.425,75,True,left,-0.25001,1.4727,1.8899,0.4172,0.5395,0.5227,-0.0168,A
600,0.50002,1.2,2,0.36668,0.24168,0.83337,600,2.65011,0.418,0.20834,0.70836,5,2D1U,2.0,True,0.237,76,False,right,0.08334,1.8106,2.4853,0.6747,0.2934,0.944,0.6506,A
601,0.50002,1.2,2,0.38335,0.24168,0.56669,601,2.26677,0.152,0.075,0.57503,5,2U1D,2.0,True,0.129,75,False,right,-0.25001,1.3939,1.9352,0.5413,0.4768,0.7942,0.3174,A
602,0.50002,0.1,1,0.40835,0.25001,0.88337,602,2.61678,0.152,0.075,0.57503,5,2U1D,1.0,True,0.234,75,False,left,0.08334,0.5436,0.8523,0.3087,1.8279,2.144,0.3161,A
603,0.50002,0.1,1,0.34168,0.39168,0.88337,603,2.82511,0.418,0.20834,0.70836,5,2D1U,1.0,True,0.222,76,False,left,-0.25001,0.4765,0.9172,0.4408,2.0591,2.0421,-0.017,A
604,0.50002,1.2,2,0.40002,0.20834,0.52502,604,2.31676,0.364,0.18334,0.68336,5,2D1U,2.0,True,0.215,76,False,right,0.08334,1.5332,2.1828,0.6496,0.3245,0.9748,0.6503,A
605,0.50002,1.2,2,0.30001,0.30835,0.77503,605,2.43343,0.098,0.05,0.55002,5,2U1D,2.0,True,0.433,76,True,right,-0.25001,1.5175,2.0339,0.5164,0.3919,0.7091,0.3173,A
