,standardDur,audNoise,order,preDur,postDur,isiDur,trial_num,totalDur,delta_dur_percents,deltaDurS,testDurS,intensities,current_stair,responses,is_correct,response_rts,stair_num_reversal,stair_is_reversal,response_keys,conflictDur,recordedOnsetVisualTest,recordedOffsetVisualTest,recordedDurVisualTest,recordedOnsetVisualStandard,recordedOffsetVisualStandard,recordedDurVisualStandard,modalityCue
0,0.49721,1.2,1,0.20717,0.28175,0.46406,0,2.25401,0.6,0.29832,0.80382,5,2D1U,1.0,True,0.26,0,False,left,0.2486,0.1703,1.0452,0.8749,1.3543,2.1703,0.8161,A
1,0.49721,1.2,2,0.28175,0.36462,0.48063,1,1.82309,-0.6,-0.29832,0.19888,5,2U1D,1.0,True,0.32,0,False,left,0.0,1.3315,1.4982,0.1667,0.2484,0.8153,0.5669,A
2,0.49721,1.2,2,0.3149,0.4392,0.69609,2,2.85066,0.8,0.39776,0.90326,5,lapse_rate,2.0,True,0.225,0,False,right,-0.16574,1.5012,2.3761,0.8749,0.3681,0.7674,0.3994,A
3,0.49721,1.2,2,0.21546,0.27346,0.77896,3,2.56891,0.6,0.29832,0.80382,5,2D1U,2.0,True,0.226,0,False,right,0.2486,1.6947,2.4706,0.7759,0.0614,0.8781,0.8166,A
4,0.49721,0.1,2,0.40605,0.34804,0.89497,4,2.34515,-0.6,-0.29832,0.19888,5,2U1D,1.0,True,0.325,0,False,left,0.0,1.7951,1.8545,0.0594,0.5366,0.7622,0.2256,A
5,0.49721,0.1,1,0.39776,0.4392,0.45577,5,2.0634,-0.45,-0.22374,0.27346,5,2U1D,2.0,True,0.114,0,False,right,-0.16574,0.5366,0.5366,0.0,1.2116,1.2699,0.0583,A
6,0.49721,0.1,2,0.2486,0.22374,0.41434,6,2.10484,0.45,0.22374,0.72095,5,2D1U,2.0,True,0.11,0,False,right,0.2486,1.2822,1.8654,0.5832,0.2572,0.7321,0.4749,A
7,0.49721,1.2,1,0.41434,0.29832,0.47235,7,1.78166,-0.8,-0.39776,0.09944,5,lapse_rate,2.0,True,0.14,0,False,right,0.0,0.382,0.548,0.166,0.9886,1.556,0.5674,A
8,0.49721,0.1,2,0.32318,0.28175,0.6878,8,1.88938,-0.8,-0.39776,0.09944,5,lapse_rate,1.0,True,0.266,0,False,left,-0.16574,1.4204,1.3789,-0.0415,0.5379,0.596,0.0581,A
9,0.49721,1.2,2,0.24032,0.43091,0.85354,9,2.74293,0.45,0.22374,0.72095,5,2D1U,2.0,True,0.112,0,False,right,0.2486,1.7927,2.485,0.6923,0.0845,0.9019,0.8174,A
10,0.49721,1.2,2,0.32318,0.23203,0.82039,10,2.14627,-0.45,-0.22374,0.27346,5,2U1D,1.0,True,0.183,0,False,left,0.0,1.7181,1.9596,0.2414,0.2935,0.859,0.5655,A
11,0.49721,1.2,1,0.22374,0.22374,0.83696,11,2.68491,0.8,0.39776,0.90326,5,lapse_rate,1.0,True,0.266,0,False,left,-0.16574,0.1873,1.1622,0.9748,2.0537,2.4536,0.3999,A
12,0.49721,1.2,2,0.41434,0.38119,0.60493,12,2.54404,0.3,0.14916,0.64637,5,2D1U,2.0,True,0.393,0,False,right,0.2486,1.7148,2.3315,0.6167,0.2557,1.0729,0.8172,A
13,0.49721,0.1,2,0.24032,0.29004,0.61322,13,1.98883,-0.3,-0.14916,0.34804,5,2U1D,2.0,False,1.1,0,False,right,0.0,1.3518,1.5604,0.2086,0.377,0.6017,0.2248,A
14,0.49721,1.2,2,0.21546,0.3729,0.78724,14,1.97225,-0.8,-0.39776,0.09944,5,lapse_rate,1.0,True,0.426,0,False,left,-0.16574,1.4929,1.5595,0.0666,0.2675,0.668,0.4005,A
15,0.49721,0.1,1,0.33976,0.33147,0.77067,15,2.58548,0.3,0.14916,0.64637,5,2D1U,2.0,False,0.267,0,False,right,0.2486,0.4771,0.8526,0.3756,1.6362,2.1111,0.4748,A
16,0.49721,0.1,1,0.20717,0.28175,0.61322,16,1.90596,-0.39,-0.19888,0.30661,5,2U1D,2.0,True,0.221,1,True,right,0.0,0.3402,0.3734,0.0332,1.1247,1.3485,0.2238,A
17,0.49721,0.1,1,0.27346,0.28175,0.80382,17,2.7595,0.8,0.39776,0.90326,5,lapse_rate,1.0,True,0.113,0,False,left,-0.16574,0.4097,1.0425,0.6328,2.0675,2.126,0.0585,A
18,0.49721,1.2,2,0.3729,0.3729,0.72923,18,2.66833,0.39,0.19888,0.69609,5,2D1U,2.0,True,0.208,1,True,right,0.2486,1.7958,2.4627,0.6669,0.2127,1.0289,0.8161,A
19,0.49721,1.2,1,0.25689,0.27346,0.66294,19,1.99711,-0.39,-0.19888,0.30661,5,2U1D,1.0,False,0.325,1,True,left,0.0,0.2263,0.6015,0.3752,1.2349,1.8014,0.5665,A
20,0.49721,1.2,2,0.41434,0.24032,0.45577,20,2.30373,0.39,0.19888,0.69609,5,2D1U,2.0,True,0.11,1,True,right,-0.16574,1.3602,2.0267,0.6665,0.468,0.8678,0.3998,A
21,0.49721,0.1,2,0.42262,0.24032,0.6878,21,2.75121,0.8,0.39776,0.90326,5,lapse_rate,2.0,True,0.291,0,False,right,0.2486,1.7352,2.5027,0.7676,0.4358,0.9101,0.4743,A
22,0.49721,0.1,2,0.34804,0.41434,0.43091,22,1.94739,-0.48,-0.24032,0.25689,5,2U1D,1.0,True,0.225,1,False,left,0.0,1.2721,1.3888,0.1167,0.4801,0.7045,0.2243,A
23,0.49721,1.2,1,0.28175,0.23203,0.87011,23,2.78436,0.8,0.39776,0.90326,5,lapse_rate,2.0,False,0.734,0,False,right,-0.16574,0.2528,1.2279,0.9751,2.1532,2.5534,0.4002,A
24,0.49721,0.1,1,0.29004,0.21546,0.52207,24,1.78167,-0.48,-0.24032,0.25689,5,2U1D,1.0,False,0.772,1,False,left,0.2486,0.422,0.4054,-0.0166,0.9398,1.4148,0.475,A
25,0.49721,0.1,2,0.27346,0.20717,0.82868,25,2.47775,0.336,0.16574,0.67123,5,2D1U,2.0,True,0.3,2,True,right,0.0,1.5966,2.1303,0.5336,0.4052,0.63,0.2248,A
26,0.49721,1.2,2,0.38948,0.20717,0.50549,26,1.81481,-0.57,-0.28175,0.21546,5,2U1D,1.0,True,0.413,1,False,left,-0.16574,1.3809,1.5642,0.1834,0.4383,0.8382,0.3999,A
27,0.49721,1.2,1,0.4392,0.30661,0.61322,27,2.52747,0.336,0.16574,0.67123,5,2D1U,2.0,False,0.184,2,True,right,0.2486,0.4089,1.1513,0.7424,1.6096,2.4254,0.8157,A
28,0.49721,1.2,1,0.3729,0.42262,0.4392,28,2.63519,0.8,0.39776,0.90326,5,lapse_rate,2.0,False,0.114,0,False,right,0.0,0.3382,1.3121,0.974,1.7213,2.2874,0.5661,A
29,0.49721,1.2,1,0.41434,0.43091,0.67951,29,2.71806,0.39,0.19888,0.69609,5,2D1U,2.0,False,1.538,3,True,right,-0.16574,0.3785,1.1458,0.7673,1.8788,2.2789,0.4,A
30,0.49721,0.1,1,0.24032,0.33976,0.58007,30,1.87282,-0.57,-0.28175,0.21546,5,2U1D,2.0,True,0.291,1,False,right,0.2486,0.3703,0.312,-0.0583,0.9039,1.3781,0.4742,A
31,0.49721,0.1,1,0.21546,0.34804,0.48063,31,2.4446,0.8,0.39776,0.90326,5,lapse_rate,1.0,True,0.344,0,False,left,0.0,0.3469,0.9794,0.6325,1.5972,1.8218,0.2246,A
32,0.49721,0.1,1,0.41434,0.26518,0.43091,32,1.84796,-0.516,-0.25689,0.24032,5,2U1D,2.0,True,0.667,2,True,right,-0.16574,0.5461,0.5132,-0.0328,1.1623,1.2211,0.0589,A
33,0.49721,0.1,2,0.32318,0.38119,0.40605,33,2.32858,0.444,0.22374,0.72095,5,2D1U,2.0,True,1.017,3,False,right,0.2486,1.3476,1.9309,0.5833,0.3304,0.8054,0.475,A
34,0.49721,0.1,2,0.33976,0.24032,0.84525,34,2.02198,-0.8,-0.39776,0.09944,5,lapse_rate,1.0,True,0.333,0,False,left,0.0,1.6781,1.6377,-0.0404,0.4709,0.6956,0.2248,A
35,0.49721,1.2,1,0.34804,0.27346,0.82039,35,2.17942,-0.516,-0.25689,0.24032,5,2U1D,2.0,True,0.209,2,True,right,-0.16574,0.3148,0.6231,0.3083,1.498,1.8981,0.4001,A
36,0.49721,1.2,1,0.28175,0.33147,0.45577,36,2.28715,0.444,0.22374,0.72095,5,2D1U,1.0,True,0.257,3,False,left,0.2486,0.248,1.0393,0.7914,1.3396,2.1562,0.8166,A
37,0.49721,0.1,1,0.36462,0.41434,0.80382,37,2.17943,-0.8,-0.39776,0.09944,5,lapse_rate,2.0,True,0.267,0,False,right,0.0,0.5017,0.3278,-0.1738,1.2692,1.4932,0.224,A
38,0.49721,0.1,2,0.20717,0.32318,0.67951,38,1.80651,-0.8,-0.39776,0.09944,5,lapse_rate,1.0,True,1.306,0,False,left,-0.16574,1.2968,1.2548,-0.042,0.4216,0.481,0.0594,A
39,0.49721,1.2,1,0.29832,0.44749,0.73752,39,2.24572,-0.462,-0.23203,0.26518,5,2U1D,2.0,True,0.221,2,False,right,0.2486,0.2637,0.5973,0.3335,1.1806,1.9971,0.8165,A
40,0.49721,0.1,2,0.3149,0.21546,0.65465,40,2.37831,0.39,0.19888,0.69609,5,2D1U,2.0,True,0.283,4,True,right,0.0,1.4648,2.0232,0.5583,0.4488,0.6736,0.2248,A
41,0.49721,0.1,1,0.39776,0.19888,0.7541,41,2.11313,-0.462,-0.23203,0.26518,5,2U1D,2.0,True,0.27,2,False,right,-0.16574,0.5283,0.5206,-0.0077,1.4951,1.554,0.0589,A
42,0.49721,0.1,2,0.3149,0.4392,0.52207,42,2.46947,0.39,0.19888,0.69609,5,2D1U,2.0,True,0.111,4,True,right,0.2486,1.4591,2.0176,0.5585,0.3262,0.8013,0.4751,A
43,0.49721,0.1,2,0.36462,0.38119,0.82039,43,2.96667,0.8,0.39776,0.90326,5,lapse_rate,2.0,True,0.133,0,False,right,0.0,1.6786,2.4453,0.7667,0.4956,0.7205,0.225,A
44,0.49721,1.2,2,0.42262,0.32318,0.58007,44,2.49431,0.336,0.16574,0.67123,5,2D1U,2.0,True,0.358,4,False,right,-0.16574,1.4874,2.13,0.6426,0.4707,0.8715,0.4007,A
45,0.49721,1.2,1,0.44749,0.28175,0.47235,45,1.79824,-0.8,-0.39776,0.09944,5,lapse_rate,1.0,False,0.413,0,False,left,0.2486,0.4145,0.5814,0.1669,0.8981,1.7146,0.8165,A
46,0.49721,1.2,1,0.20717,0.2486,0.57179,46,1.82309,-0.408,-0.20717,0.29832,5,2U1D,2.0,True,0.517,2,False,right,0.0,0.1712,0.5381,0.367,1.0793,1.6464,0.5671,A
47,0.49721,1.2,2,0.3729,0.21546,0.72095,47,2.10484,-0.408,-0.20717,0.29832,5,2U1D,1.0,True,0.65,2,False,left,-0.16574,1.5821,1.8493,0.2672,0.4237,0.8241,0.4003,A
48,0.49721,0.1,1,0.32318,0.29004,0.54693,48,2.56062,0.8,0.39776,0.90326,5,lapse_rate,1.0,True,0.434,0,False,left,0.2486,0.458,1.0908,0.6328,1.6489,2.1239,0.475,A
49,0.49721,0.1,2,0.42262,0.32318,0.72923,49,2.64347,0.336,0.16574,0.67123,5,2D1U,2.0,True,0.276,4,False,right,0.0,1.6523,2.184,0.5316,0.5592,0.7848,0.2256,A
50,0.49721,0.1,2,0.40605,0.23203,0.82868,50,2.60205,0.282,0.14087,0.63808,5,2D1U,2.0,True,0.407,4,False,right,-0.16574,1.6527,2.1527,0.5,0.6274,0.6857,0.0583,A
51,0.49721,0.1,1,0.20717,0.44749,0.89497,51,2.37002,-0.354,-0.17402,0.32318,5,2U1D,2.0,True,0.258,2,False,right,0.2486,0.3391,0.389,0.0499,1.2976,1.7723,0.4747,A
52,0.49721,1.2,1,0.21546,0.43091,0.8784,52,2.12142,-0.8,-0.39776,0.09944,5,lapse_rate,2.0,True,0.19,0,False,right,0.0,0.1805,0.3476,0.1672,1.1977,1.7638,0.5661,A
53,0.49721,1.2,2,0.29832,0.3729,0.70437,53,2.19598,-0.354,-0.17402,0.32318,5,2U1D,2.0,False,0.157,2,False,right,-0.16574,1.4892,1.7805,0.2913,0.3475,0.7481,0.4005,A
54,0.49721,1.2,2,0.20717,0.42262,0.66294,54,2.42802,0.282,0.14087,0.63808,5,2D1U,2.0,True,0.174,4,False,right,0.2486,1.5668,2.1741,0.6073,0.0492,0.866,0.8168,A
55,0.49721,1.2,1,0.2486,0.29832,0.72095,55,2.66834,0.8,0.39776,0.90326,5,lapse_rate,1.0,True,0.359,0,False,left,0.0,0.2133,1.1885,0.9753,1.8796,2.4459,0.5662,A
56,0.49721,1.2,1,0.22374,0.2486,0.76238,56,2.34515,0.228,0.11601,0.61322,5,2D1U,1.0,True,0.592,4,False,left,-0.16574,0.1903,0.8747,0.6845,1.6908,2.0903,0.3995,A
57,0.49721,0.1,2,0.38119,0.39776,0.89497,57,2.46945,-0.408,-0.20717,0.29832,5,2U1D,1.0,True,0.424,3,True,left,0.2486,1.8967,2.055,0.1584,0.3885,0.8638,0.4752,A
58,0.49721,0.1,1,0.2486,0.29832,0.50549,58,1.64906,-0.8,-0.39776,0.09944,5,lapse_rate,2.0,True,0.625,0,False,right,0.0,0.3859,0.2117,-0.1742,0.8526,1.0773,0.2247,A
59,0.49721,0.1,2,0.29832,0.42262,0.7541,59,2.27057,-0.408,-0.20717,0.29832,5,2U1D,1.0,True,1.501,3,True,left,-0.16574,1.466,1.6249,0.1589,0.5159,0.5743,0.0584,A
60,0.49721,0.1,2,0.4392,0.24032,0.78724,60,2.57719,0.228,0.11601,0.61322,5,2D1U,1.0,False,0.459,4,False,left,0.2486,1.8525,2.3288,0.4762,0.4534,0.9286,0.4753,A
61,0.49721,0.1,1,0.21546,0.41434,0.62151,61,2.65178,0.8,0.39776,0.90326,5,lapse_rate,1.0,True,0.263,0,False,left,0.0,0.3457,0.9795,0.6338,1.7371,1.9629,0.2257,A
62,0.49721,1.2,1,0.33147,0.3149,0.67951,62,2.14627,-0.354,-0.17402,0.32318,5,2U1D,1.0,False,1.981,4,True,left,-0.16574,0.2969,0.6882,0.3914,1.4224,1.8225,0.4001,A
63,0.49721,0.1,2,0.33976,0.33976,0.6878,63,1.96397,-0.8,-0.39776,0.09944,5,lapse_rate,1.0,True,0.399,0,False,left,0.2486,1.6483,1.6065,-0.0417,0.3487,0.8232,0.4745,A
64,0.49721,1.2,2,0.29832,0.28175,0.50549,64,2.22085,0.282,0.14087,0.63808,5,2D1U,2.0,True,0.249,5,True,right,0.0,1.3753,1.9844,0.6091,0.2675,0.8342,0.5667,A
65,0.49721,1.2,1,0.27346,0.3729,0.71266,65,2.49431,0.282,0.14087,0.63808,5,2D1U,1.0,True,0.232,5,True,left,-0.16574,0.2379,0.9464,0.7086,1.7129,2.1131,0.4003,A
66,0.49721,0.1,2,0.2486,0.38119,0.87011,66,2.29543,-0.408,-0.20717,0.29832,5,2U1D,1.0,True,0.947,5,True,left,0.2486,1.7385,1.8966,0.1581,0.2547,0.73,0.4753,A
67,0.49721,0.1,2,0.3729,0.24032,0.64637,67,1.85624,-0.8,-0.39776,0.09944,5,lapse_rate,1.0,True,0.358,0,False,left,0.0,1.5186,1.4781,-0.0405,0.5106,0.7362,0.2257,A
68,0.49721,0.1,1,0.3729,0.38119,0.59665,68,2.46117,0.228,0.11601,0.61322,5,2D1U,1.0,True,2.113,6,True,left,-0.16574,0.5062,0.8478,0.3417,1.664,1.723,0.059,A
69,0.49721,1.2,2,0.3149,0.3729,0.61322,69,1.89767,-0.8,-0.39776,0.09944,5,lapse_rate,1.0,True,0.342,0,False,left,0.2486,1.6241,1.691,0.0669,0.1579,0.9747,0.8168,A
70,0.49721,0.1,2,0.29832,0.33976,0.88668,70,2.32029,-0.408,-0.20717,0.29832,5,2U1D,1.0,True,0.883,5,True,left,0.0,1.6812,1.8404,0.1593,0.4318,0.6568,0.225,A
71,0.49721,1.2,1,0.39776,0.40605,0.72095,71,2.34515,-0.354,-0.17402,0.32318,5,2U1D,2.0,True,0.159,6,True,right,-0.16574,0.3614,0.7532,0.3918,1.5289,1.928,0.3991,A
72,0.49721,1.2,2,0.27346,0.22374,0.47235,72,1.5662,-0.8,-0.39776,0.09944,5,lapse_rate,1.0,True,0.459,0,False,left,0.2486,1.4404,1.5072,0.0668,0.1148,0.932,0.8172,A
73,0.49721,1.2,1,0.40605,0.24032,0.66294,73,2.41974,0.228,0.11601,0.61322,5,2D1U,1.0,True,0.809,6,True,left,0.0,0.3772,1.0595,0.6823,1.6936,2.2603,0.5666,A
74,0.49721,1.2,1,0.32318,0.25689,0.79553,74,2.46117,0.174,0.08287,0.58836,5,2D1U,2.0,False,3.366,6,False,right,-0.16574,0.2904,0.9488,0.6584,1.7991,2.1984,0.3993,A
75,0.49721,0.1,1,0.20717,0.39776,0.69609,75,1.89767,-0.8,-0.39776,0.09944,5,lapse_rate,1.0,False,1.716,0,False,left,0.2486,0.3432,0.168,-0.1753,0.8758,1.3514,0.4756,A
76,0.49721,0.1,2,0.40605,0.39776,0.39776,76,2.02196,-0.354,-0.17402,0.32318,5,2U1D,1.0,True,0.501,6,True,left,0.0,1.2977,1.4812,0.1835,0.5398,0.7644,0.2246,A
77,0.49721,0.1,2,0.3149,0.42262,0.59665,77,2.73464,0.8,0.39776,0.90326,5,lapse_rate,2.0,True,0.285,0,False,right,-0.16574,1.3218,2.0887,0.7669,0.5307,0.5888,0.058,A
78,0.49721,0.1,1,0.39776,0.25689,0.77067,78,2.27057,-0.3,-0.14916,0.34804,5,2U1D,2.0,True,0.316,6,False,right,0.2486,0.5286,0.604,0.0754,1.387,1.8623,0.4754,A
79,0.49721,0.1,2,0.20717,0.35633,0.53035,79,2.20428,0.228,0.11601,0.61322,5,2D1U,2.0,True,0.266,7,True,right,0.0,1.2329,1.7073,0.4745,0.3406,0.5661,0.2255,A
80,0.49721,1.2,2,0.33147,0.38119,0.8121,80,2.63519,0.228,0.11601,0.61322,5,2D1U,2.0,True,1.392,7,True,right,-0.16574,1.6295,2.2126,0.5831,0.3801,0.7788,0.3987,A
81,0.49721,0.1,1,0.42262,0.44749,0.55521,81,2.02197,-0.8,-0.39776,0.09944,5,lapse_rate,1.0,False,0.959,0,False,left,0.2486,0.5558,0.3814,-0.1744,0.9484,1.4229,0.4745,A
82,0.49721,1.2,2,0.19888,0.41434,0.49721,82,1.95568,-0.3,-0.14916,0.34804,5,2U1D,1.0,True,1.315,6,False,left,0.0,1.2654,1.5819,0.3165,0.1655,0.732,0.5665,A
83,0.49721,1.2,1,0.43091,0.35633,0.63808,83,2.82579,0.8,0.39776,0.90326,5,lapse_rate,1.0,True,0.25,0,False,left,-0.16574,0.3991,1.3734,0.9743,2.0651,2.4659,0.4008,A
84,0.49721,1.2,1,0.20717,0.27346,0.60493,84,2.17113,0.174,0.08287,0.58836,5,2D1U,2.0,False,0.649,8,True,right,0.2486,0.1776,0.8359,0.6583,1.2867,2.1034,0.8167,A
85,0.49721,0.1,1,0.4392,0.29832,0.77067,85,2.3783,-0.246,-0.1243,0.3729,5,2U1D,2.0,True,0.94,6,False,right,0.0,0.5723,0.6722,0.0999,1.5803,1.8045,0.2242,A
86,0.49721,0.1,1,0.42262,0.25689,0.50549,86,2.29543,0.228,0.11601,0.61322,5,2D1U,1.0,True,0.483,9,True,left,-0.16574,0.559,0.9008,0.3418,1.6251,1.684,0.0589,A
87,0.49721,1.2,1,0.28175,0.3729,0.89497,87,2.14627,-0.8,-0.39776,0.09944,5,lapse_rate,2.0,True,0.321,0,False,right,0.2486,0.2479,0.4139,0.166,1.1565,1.9729,0.8164,A
88,0.49721,0.1,2,0.39776,0.28175,0.54693,88,2.09655,-0.246,-0.1243,0.3729,5,2U1D,1.0,True,0.559,6,False,left,0.0,1.4449,1.678,0.2331,0.5364,0.7606,0.2242,A
89,0.49721,1.2,2,0.33976,0.42262,0.89497,89,2.76778,0.228,0.11601,0.61322,5,2D1U,2.0,True,0.324,9,True,right,-0.16574,1.7249,2.3086,0.5837,0.3919,0.792,0.4001,A
90,0.49721,0.1,1,0.44749,0.4392,0.4392,90,1.92254,-0.8,-0.39776,0.09944,5,lapse_rate,2.0,True,0.288,0,False,right,0.2486,0.5806,0.4056,-0.175,0.8555,1.3302,0.4747,A
91,0.49721,1.2,2,0.22374,0.33976,0.50549,91,1.97225,-0.192,-0.09944,0.40605,5,2U1D,1.0,True,0.314,6,False,left,0.0,1.299,1.6736,0.3746,0.1895,0.7566,0.5671,A
92,0.49721,1.2,1,0.3149,0.42262,0.49721,92,2.3203,0.174,0.08287,0.58836,5,2D1U,1.0,True,0.334,10,True,left,-0.16574,0.2854,0.9425,0.6571,1.4932,1.8928,0.3996,A
93,0.49721,1.2,2,0.34804,0.22374,0.74581,93,2.71806,0.8,0.39776,0.90326,5,lapse_rate,2.0,True,0.234,0,False,right,0.2486,1.7888,2.6645,0.8757,0.1884,1.0056,0.8172,A
94,0.49721,0.1,2,0.35633,0.33147,0.48892,94,2.07998,-0.192,-0.09944,0.40605,5,2U1D,1.0,True,0.726,6,False,left,0.0,1.3387,1.6053,0.2666,0.4883,0.7137,0.2254,A
95,0.49721,1.2,1,0.28175,0.3149,0.85354,95,2.85066,0.8,0.39776,0.90326,5,lapse_rate,1.0,True,0.717,0,False,left,-0.16574,0.2483,1.2232,0.9749,2.1311,2.5318,0.4007,A
96,0.49721,0.1,1,0.39776,0.23203,0.79553,96,2.51089,0.174,0.08287,0.58836,5,2D1U,2.0,False,0.309,10,True,right,0.2486,0.5324,0.8489,0.3165,1.657,2.1318,0.4747,A
97,0.49721,0.1,1,0.3729,0.3729,0.77896,97,2.45288,-0.138,-0.06629,0.43091,5,2U1D,2.0,True,0.417,6,False,right,0.0,0.5107,0.6699,0.1592,1.5864,1.8118,0.2254,A
98,0.49721,1.2,2,0.29832,0.24032,0.80382,98,2.27058,-0.138,-0.06629,0.43091,5,2U1D,1.0,True,0.509,6,False,left,-0.16574,1.5902,1.99,0.3998,0.3478,0.7487,0.4009,A
99,0.49721,1.2,1,0.38119,0.33147,0.70437,99,2.52746,0.228,0.11601,0.61322,5,2D1U,2.0,False,0.251,11,True,right,0.2486,0.3469,1.0301,0.6832,1.5801,2.3969,0.8168,A
100,0.49721,1.2,2,0.41434,0.39776,0.8121,100,2.22085,-0.8,-0.39776,0.09944,5,lapse_rate,2.0,False,0.45,0,False,right,0.0,1.7989,1.866,0.0671,0.3831,0.9499,0.5667,A
101,0.49721,1.2,1,0.39776,0.30661,0.67123,101,2.51089,0.282,0.14087,0.63808,5,2D1U,1.0,True,0.625,11,False,left,-0.16574,0.369,1.0772,0.7083,1.8025,2.2023,0.3998,A
102,0.49721,0.1,1,0.30661,0.40605,0.77896,102,2.4446,-0.084,-0.04143,0.45577,5,2U1D,2.0,True,0.276,6,False,right,0.2486,0.4414,0.6256,0.1841,1.4167,1.8922,0.4755,A
103,0.49721,0.1,2,0.38948,0.29832,0.67951,103,1.96396,-0.8,-0.39776,0.09944,5,lapse_rate,1.0,True,0.515,0,False,left,0.0,1.5679,1.5263,-0.0416,0.5263,0.7517,0.2254,A
104,0.49721,0.1,1,0.40605,0.28175,0.61322,104,2.254,-0.084,-0.04143,0.45577,5,2U1D,2.0,True,0.4,6,False,right,-0.16574,0.5446,0.7275,0.1829,1.5613,1.6189,0.0576,A
105,0.49721,1.2,1,0.29004,0.21546,0.77067,105,2.67664,0.8,0.39776,0.90326,5,lapse_rate,2.0,False,0.541,0,False,right,0.2486,0.2583,1.233,0.9746,1.8497,2.6671,0.8174,A
106,0.49721,0.1,1,0.21546,0.42262,0.48063,106,2.254,0.282,0.14087,0.63808,5,2D1U,1.0,True,0.458,11,False,left,0.0,0.3481,0.7151,0.367,1.3317,1.5564,0.2247,A
107,0.49721,1.2,2,0.3149,0.33147,0.55521,107,2.18771,-0.03,-0.01657,0.48892,5,2U1D,1.0,True,0.353,6,False,left,-0.16574,1.3535,1.8119,0.4584,0.3623,0.7613,0.399,A
108,0.49721,1.2,1,0.40605,0.22374,0.48892,108,2.51918,0.8,0.39776,0.90326,5,lapse_rate,1.0,True,1.092,0,False,left,0.2486,0.3758,1.3507,0.9749,1.6836,2.5002,0.8166,A
109,0.49721,1.2,2,0.21546,0.26518,0.48892,109,2.07999,0.228,0.11601,0.61322,5,2D1U,2.0,True,0.333,12,True,right,0.0,1.2755,1.8595,0.584,0.1845,0.7512,0.5666,A
110,0.49721,1.2,2,0.27346,0.38948,0.89497,110,2.66834,0.228,0.11601,0.61322,5,2D1U,2.0,True,1.701,12,True,right,-0.16574,1.6568,2.2406,0.5838,0.324,0.7233,0.3993,A
111,0.49721,0.1,1,0.42262,0.34804,0.45577,111,1.82308,-0.8,-0.39776,0.09944,5,lapse_rate,2.0,True,0.316,0,False,right,0.2486,0.5551,0.3798,-0.1752,0.8471,1.3222,0.4751,A
112,0.49721,0.1,2,0.43091,0.44749,0.85354,112,2.71807,-0.03,-0.01657,0.48892,5,2U1D,2.0,False,0.392,6,False,right,0.0,1.7808,2.1308,0.35,0.5634,0.7886,0.2252,A
113,0.49721,0.1,2,0.22374,0.21546,0.84525,113,2.37002,0.174,0.08287,0.58836,5,2D1U,2.0,True,0.375,12,False,right,-0.16574,1.4803,1.9307,0.4504,0.4387,0.4967,0.058,A
114,0.49721,0.1,1,0.40605,0.42262,0.47235,114,2.254,-0.084,-0.04143,0.45577,5,2U1D,2.0,True,0.222,7,True,right,0.2486,0.5395,0.7226,0.1831,1.2063,1.681,0.4748,A
115,0.49721,0.1,1,0.21546,0.41434,0.67123,115,2.7015,0.8,0.39776,0.90326,5,lapse_rate,1.0,True,0.535,0,False,left,0.0,0.3524,0.9856,0.6331,1.7942,2.0188,0.2245,A
116,0.49721,1.2,1,0.39776,0.4392,0.77896,116,2.21257,-0.8,-0.39776,0.09944,5,lapse_rate,2.0,True,0.159,0,False,right,-0.16574,0.3684,0.5357,0.1673,1.3688,1.7688,0.4,A
117,0.49721,1.2,2,0.21546,0.33976,0.55521,117,2.196,0.174,0.08287,0.58836,5,2D1U,2.0,True,0.318,12,False,right,0.2486,1.4624,2.0204,0.558,0.0537,0.8701,0.8164,A
118,0.49721,1.2,1,0.29004,0.40605,0.45577,118,2.10484,-0.084,-0.04143,0.45577,5,2U1D,2.0,True,0.191,7,True,right,0.0,0.261,0.7856,0.5246,1.2105,1.7775,0.567,A
119,0.49721,1.2,1,0.32318,0.29832,0.69609,119,2.3783,0.12,0.05801,0.5635,5,2D1U,1.0,True,0.351,12,False,left,-0.16574,0.2883,0.9218,0.6334,1.6716,2.0708,0.3992,A
120,0.49721,0.1,1,0.43091,0.20717,0.46406,120,1.69879,-0.8,-0.39776,0.09944,5,lapse_rate,2.0,True,0.349,0,False,right,0.2486,0.5699,0.395,-0.1749,0.8701,1.3442,0.4741,A
121,0.49721,0.1,1,0.27346,0.30661,0.73752,121,2.30372,-0.03,-0.01657,0.48892,5,2U1D,2.0,True,1.859,8,True,right,0.0,0.4071,0.6237,0.2166,1.499,1.723,0.224,A
122,0.49721,0.1,1,0.36462,0.38119,0.70437,122,2.51089,0.12,0.05801,0.5635,5,2D1U,1.0,True,0.35,12,False,left,-0.16574,0.497,0.789,0.292,1.7147,1.7726,0.0578,A
123,0.49721,0.1,2,0.32318,0.32318,0.76238,123,2.80921,0.8,0.39776,0.90326,5,lapse_rate,2.0,True,0.258,0,False,right,0.2486,1.7052,2.4712,0.766,0.3305,0.8058,0.4753,A
124,0.49721,0.1,1,0.38119,0.40605,0.88668,124,2.66005,-0.03,-0.01657,0.48892,5,2U1D,2.0,True,0.784,8,True,right,0.0,0.5217,0.7387,0.2169,1.7637,1.9884,0.2247,A
125,0.49721,1.2,1,0.30661,0.40605,0.61322,125,1.92253,-0.8,-0.39776,0.09944,5,lapse_rate,2.0,True,3.26,0,False,right,-0.16574,0.2727,0.4395,0.1668,1.1053,1.5067,0.4014,A
126,0.49721,1.2,1,0.29004,0.42262,0.80382,126,2.54404,0.066,0.03315,0.53035,5,2D1U,2.0,False,2.283,12,False,right,0.2486,0.2562,0.8577,0.6015,1.5066,2.3229,0.8163,A
127,0.49721,1.2,2,0.4392,0.32318,0.5635,127,2.33687,0.024,0.00829,0.51378,5,2U1D,1.0,False,0.425,8,False,left,0.0,1.5726,2.0563,0.4837,0.407,0.9734,0.5664,A
128,0.49721,0.1,2,0.19888,0.42262,0.73752,128,2.75949,0.8,0.39776,0.90326,5,lapse_rate,2.0,True,0.292,0,False,right,-0.16574,1.3502,2.1176,0.7674,0.4171,0.4753,0.0582,A
129,0.49721,1.2,1,0.4392,0.25689,0.64637,129,2.37831,0.078,0.04143,0.53864,5,2U1D,1.0,True,3.25,9,True,left,0.2486,0.4071,1.0159,0.6088,1.5077,2.3241,0.8164,A
130,0.49721,0.1,1,0.25689,0.41434,0.73752,130,2.46946,0.12,0.05801,0.5635,5,2D1U,1.0,True,0.501,13,True,left,0.0,0.3903,0.683,0.2927,1.557,1.7823,0.2254,A
131,0.49721,0.1,2,0.3729,0.39776,0.52207,131,2.6932,0.8,0.39776,0.90326,5,lapse_rate,2.0,True,0.3,0,False,right,-0.16574,1.303,2.0703,0.7673,0.5873,0.6453,0.058,A
132,0.49721,0.1,2,0.43091,0.44749,0.74581,132,2.68492,0.12,0.05801,0.5635,5,2D1U,2.0,True,0.293,13,True,right,0.2486,1.7986,2.2235,0.4249,0.4402,0.9153,0.4751,A
133,0.49721,0.1,2,0.23203,0.4392,0.53864,133,2.24572,0.078,0.04143,0.53864,5,2U1D,2.0,True,0.209,9,True,right,0.0,1.2694,1.6684,0.399,0.3696,0.5948,0.2252,A
134,0.49721,1.2,1,0.44749,0.25689,0.84525,134,2.57719,0.066,0.03315,0.53035,5,2D1U,2.0,False,0.741,14,True,right,-0.16574,0.4131,1.0133,0.6001,1.9138,2.3131,0.3993,A
135,0.49721,1.2,1,0.3149,0.41434,0.70437,135,2.4446,0.024,0.00829,0.51378,5,2U1D,2.0,False,0.466,10,True,right,0.2486,0.2808,0.8629,0.5821,1.4138,2.2305,0.8167,A
136,0.49721,1.2,2,0.44749,0.30661,0.65465,136,2.80922,0.8,0.39776,0.90326,5,lapse_rate,2.0,True,1.716,0,False,right,0.0,1.6759,2.5516,0.8757,0.418,0.9852,0.5673,A
137,0.49721,1.2,1,0.32318,0.20717,0.43091,137,1.55791,-0.8,-0.39776,0.09944,5,lapse_rate,2.0,True,0.484,0,False,right,-0.16574,0.2911,0.4575,0.1664,0.9409,1.3407,0.3997,A
138,0.49721,1.2,2,0.44749,0.30661,0.49721,138,2.31202,0.12,0.05801,0.5635,5,2D1U,1.0,False,0.508,15,True,left,0.2486,1.6396,2.1728,0.5332,0.2889,1.1066,0.8177,A
139,0.49721,0.1,1,0.27346,0.19888,0.41434,139,1.92253,0.078,0.04143,0.53864,5,2U1D,2.0,False,0.593,11,True,right,0.0,0.405,0.6701,0.2651,1.2209,1.4464,0.2255,A
140,0.49721,0.1,1,0.34804,0.32318,0.58836,140,2.34515,0.174,0.08287,0.58836,5,2D1U,1.0,True,0.358,15,False,left,-0.16574,0.4824,0.7985,0.3161,1.6069,1.6649,0.058,A
141,0.49721,0.1,2,0.38948,0.41434,0.54693,141,2.41146,0.132,0.06629,0.5635,5,2U1D,2.0,True,1.418,11,False,right,0.2486,1.5596,1.9844,0.4248,0.4005,0.8763,0.4759,A
142,0.49721,1.2,2,0.22374,0.36462,0.64637,142,1.83138,-0.8,-0.39776,0.09944,5,lapse_rate,1.0,True,0.315,0,False,left,0.0,1.4408,1.5083,0.0675,0.1922,0.758,0.5659,A
143,0.49721,1.2,1,0.36462,0.3729,0.46406,143,1.79823,-0.8,-0.39776,0.09944,5,lapse_rate,2.0,True,0.258,0,False,right,-0.16574,0.3363,0.5032,0.1669,1.019,1.42,0.401,A
144,0.49721,1.2,1,0.34804,0.27346,0.62151,144,2.30372,0.132,0.06629,0.5635,5,2U1D,2.0,False,0.292,11,False,right,0.2486,0.3121,0.9286,0.6165,1.3947,2.2115,0.8168,A
145,0.49721,1.2,1,0.29004,0.23203,0.84525,145,2.45289,0.174,0.08287,0.58836,5,2D1U,2.0,False,0.284,15,False,right,0.0,0.2546,0.9122,0.6576,1.7293,2.2953,0.566,A
146,0.49721,1.2,1,0.21546,0.29004,0.67123,146,2.28716,0.228,0.11601,0.61322,5,2D1U,2.0,False,0.242,15,False,right,-0.16574,0.1815,0.8656,0.6841,1.5904,1.9934,0.403,A
147,0.49721,1.2,1,0.26518,0.22374,0.66294,147,2.55233,0.8,0.39776,0.90326,5,lapse_rate,2.0,False,0.284,0,False,right,0.2486,0.234,1.2094,0.9754,1.7179,2.5338,0.8159,A
148,0.49721,0.1,1,0.24032,0.28175,0.6878,148,2.30373,0.186,0.09115,0.59665,5,2U1D,2.0,False,0.376,11,False,right,0.0,0.373,0.6988,0.3258,1.524,1.7488,0.2248,A
149,0.49721,0.1,1,0.23203,0.34804,0.84525,149,2.56061,0.282,0.14087,0.63808,5,2D1U,1.0,True,0.499,15,False,left,-0.16574,0.3634,0.7305,0.367,1.797,1.8552,0.0582,A
150,0.49721,0.1,2,0.44749,0.39776,0.48892,150,2.45289,0.24,0.11601,0.62151,5,2U1D,2.0,True,2.39,11,False,right,0.2486,1.5529,2.0372,0.4843,0.4537,0.9287,0.4751,A
151,0.49721,0.1,1,0.24032,0.30661,0.53864,151,2.48604,0.8,0.39776,0.90326,5,lapse_rate,1.0,True,0.225,0,False,left,0.0,0.3711,1.0043,0.6333,1.6789,1.9051,0.2262,A
152,0.49721,1.2,2,0.34804,0.41434,0.6878,152,2.5689,0.24,0.11601,0.62151,5,2U1D,2.0,True,1.216,11,False,right,-0.16574,1.5234,2.1146,0.5912,0.3986,0.7978,0.3992,A
153,0.49721,1.2,1,0.22374,0.26518,0.77067,153,2.39488,0.282,0.14087,0.63808,5,2D1U,1.0,True,0.308,15,False,left,0.2486,0.1893,0.8976,0.7082,1.5148,2.3315,0.8167,A
154,0.49721,0.1,2,0.25689,0.24032,0.41434,154,2.31202,0.8,0.39776,0.90326,5,lapse_rate,2.0,True,0.185,0,False,right,0.0,1.166,1.9314,0.7654,0.3905,0.6149,0.2245,A
155,0.49721,1.2,1,0.38948,0.41434,0.49721,155,2.7015,0.8,0.39776,0.90326,5,lapse_rate,1.0,True,0.317,0,False,left,-0.16574,0.3606,1.3358,0.9751,1.8859,2.285,0.3992,A
156,0.49721,1.2,1,0.25689,0.24032,0.51378,156,2.10485,0.186,0.09115,0.59665,5,2U1D,2.0,False,0.322,12,True,right,0.2486,0.2219,0.8883,0.6664,1.2475,2.0632,0.8157,A
157,0.49721,0.1,1,0.43091,0.29004,0.72095,157,2.55233,0.228,0.11601,0.61322,5,2D1U,2.0,False,1.284,16,True,right,0.0,0.5702,0.9108,0.3407,1.7698,1.9944,0.2247,A
158,0.49721,0.1,2,0.36462,0.24032,0.67951,158,2.40317,0.24,0.11601,0.62151,5,2U1D,2.0,True,0.304,13,True,right,-0.16574,1.4531,1.9367,0.4836,0.5788,0.6368,0.058,A
159,0.49721,1.2,2,0.29004,0.38119,0.61322,159,1.8811,-0.8,-0.39776,0.09944,5,lapse_rate,1.0,True,0.406,0,False,left,0.2486,1.6021,1.6686,0.0666,0.135,0.9523,0.8173,A
160,0.49721,0.1,2,0.41434,0.29004,0.64637,160,2.48604,0.282,0.14087,0.63808,5,2D1U,2.0,True,0.266,17,True,right,0.0,1.5553,2.0545,0.4991,0.5466,0.7719,0.2253,A
161,0.49721,1.2,2,0.38948,0.38948,0.4392,161,2.35345,0.282,0.14087,0.63808,5,2D1U,2.0,True,0.15,17,True,right,-0.16574,1.3195,1.9281,0.6086,0.4446,0.8444,0.3998,A
162,0.49721,1.2,1,0.29004,0.40605,0.78724,162,2.60205,0.24,0.11601,0.62151,5,2U1D,1.0,True,0.413,13,True,left,0.2486,0.2551,0.9474,0.6924,1.5807,2.3966,0.8159,A
163,0.49721,1.2,1,0.29004,0.22374,0.62151,163,1.73194,-0.8,-0.39776,0.09944,5,lapse_rate,2.0,True,0.226,0,False,right,0.0,0.2544,0.4209,0.1665,1.0127,1.579,0.5663,A
164,0.49721,1.2,1,0.23203,0.2486,0.82868,164,2.41974,0.228,0.11601,0.61322,5,2D1U,2.0,False,0.267,18,True,right,-0.16574,0.2028,0.8855,0.6827,1.7696,2.1698,0.4001,A
165,0.49721,1.2,2,0.30661,0.2486,0.62979,165,1.78165,-0.8,-0.39776,0.09944,5,lapse_rate,1.0,True,0.508,0,False,left,0.2486,1.6316,1.6991,0.0675,0.1482,0.966,0.8178,A
166,0.49721,0.1,1,0.33976,0.29832,0.82868,166,2.56062,0.186,0.09115,0.59665,5,2U1D,2.0,False,0.368,14,True,right,0.0,0.4718,0.7968,0.325,1.7627,1.9889,0.2262,A
167,0.49721,0.1,1,0.42262,0.33976,0.43091,167,2.32858,0.282,0.14087,0.63808,5,2D1U,1.0,True,0.475,19,True,left,-0.16574,0.5565,0.9242,0.3677,1.5734,1.6313,0.058,A
168,0.49721,0.1,2,0.41434,0.35633,0.54693,168,1.91425,-0.8,-0.39776,0.09944,5,lapse_rate,1.0,True,0.463,0,False,left,0.2486,1.5807,1.5392,-0.0416,0.4223,0.898,0.4757,A
169,0.49721,0.1,2,0.29832,0.38948,0.67951,169,2.48603,0.24,0.11601,0.62151,5,2U1D,2.0,True,0.267,15,True,right,0.0,1.4722,1.9553,0.4831,0.4304,0.6553,0.2249,A
170,0.49721,0.1,2,0.27346,0.2486,0.84525,170,2.76778,0.8,0.39776,0.90326,5,lapse_rate,2.0,True,0.726,0,False,right,-0.16574,1.5326,2.2997,0.7671,0.491,0.5497,0.0586,A
171,0.49721,1.2,2,0.42262,0.42262,0.76238,171,2.74291,0.282,0.14087,0.63808,5,2D1U,2.0,True,0.768,19,True,right,0.2486,1.8792,2.487,0.6078,0.2618,1.079,0.8171,A
172,0.49721,1.2,2,0.29004,0.38119,0.59665,172,2.3866,0.24,0.11601,0.62151,5,2U1D,2.0,True,0.267,15,True,right,0.0,1.4578,2.0488,0.591,0.2576,0.8234,0.5659,A
173,0.49721,1.2,1,0.39776,0.39776,0.85354,173,2.75949,0.228,0.11601,0.61322,5,2D1U,2.0,False,0.111,20,True,right,-0.16574,0.3628,1.0452,0.6824,1.9544,2.3545,0.4,A
174,0.49721,0.1,1,0.44749,0.23203,0.57179,174,2.34517,0.186,0.09115,0.59665,5,2U1D,2.0,False,0.482,16,True,right,0.2486,0.5808,0.9059,0.325,1.4891,1.9647,0.4755,A
175,0.49721,0.1,2,0.20717,0.28175,0.74581,175,2.6352,0.8,0.39776,0.90326,5,lapse_rate,2.0,True,0.517,0,False,right,0.0,1.4448,2.2114,0.7666,0.3378,0.5623,0.2245,A
176,0.49721,0.1,2,0.33976,0.36462,0.82868,176,2.66835,0.282,0.14087,0.63808,5,2D1U,2.0,True,2.426,21,True,right,-0.16574,1.5861,2.0856,0.4995,0.5607,0.6193,0.0586,A
177,0.49721,0.1,1,0.3729,0.23203,0.4392,177,2.4446,0.8,0.39776,0.90326,5,lapse_rate,2.0,False,1.017,0,False,right,0.2486,0.5106,1.1441,0.6335,1.5932,2.0683,0.4751,A
178,0.49721,0.1,1,0.38948,0.35633,0.66294,178,2.52747,0.24,0.11601,0.62151,5,2U1D,2.0,False,3.4,17,True,right,0.0,0.5267,0.8778,0.3511,1.6774,1.9027,0.2254,A
179,0.49721,1.2,2,0.24032,0.34804,0.77896,179,2.50261,0.282,0.14087,0.63808,5,2D1U,2.0,True,3.867,21,True,right,-0.16574,1.5041,2.113,0.6089,0.2875,0.6879,0.4004,A
180,0.49721,1.2,2,0.21546,0.38119,0.57179,180,2.31202,0.294,0.14916,0.64637,5,2U1D,1.0,False,0.338,17,False,left,0.2486,1.4819,2.099,0.617,0.0576,0.8737,0.8161,A
181,0.49721,1.2,2,0.41434,0.3149,0.80382,181,2.93353,0.8,0.39776,0.90326,5,lapse_rate,2.0,True,0.252,0,False,right,0.0,1.7932,2.6677,0.8744,0.3855,0.9518,0.5663,A
182,0.49721,1.2,2,0.3729,0.32318,0.63808,182,2.5026,0.348,0.17402,0.67123,5,2U1D,2.0,True,0.233,17,False,right,-0.16574,1.497,2.1374,0.6404,0.421,0.8213,0.4003,A
183,0.49721,0.1,2,0.40605,0.21546,0.64637,183,2.37831,0.228,0.11601,0.61322,5,2D1U,2.0,True,0.476,22,True,right,0.2486,1.6779,2.1524,0.4746,0.42,0.8948,0.4748,A
184,0.49721,0.1,1,0.21546,0.43091,0.58836,184,2.6352,0.8,0.39776,0.90326,5,lapse_rate,1.0,True,0.284,0,False,left,0.0,0.3481,0.9814,0.6333,1.706,1.9311,0.2251,A
185,0.49721,0.1,1,0.22374,0.21546,0.62151,185,2.22915,0.348,0.17402,0.67123,5,2U1D,1.0,True,0.359,17,False,left,-0.16574,0.358,0.7578,0.3999,1.5992,1.658,0.0588,A
186,0.49721,0.1,1,0.2486,0.28175,0.42262,186,2.0634,0.228,0.11601,0.61322,5,2D1U,2.0,False,0.293,22,True,right,0.2486,0.3838,0.7265,0.3427,1.1596,1.6348,0.4752,A
187,0.49721,1.2,2,0.41434,0.33976,0.8784,187,2.22915,-0.8,-0.39776,0.09944,5,lapse_rate,1.0,True,0.358,0,False,left,0.0,1.8636,1.9304,0.0667,0.3804,0.9465,0.5661,A
188,0.49721,1.2,1,0.28175,0.39776,0.83696,188,2.66005,0.294,0.14916,0.64637,5,2U1D,1.0,True,0.307,18,True,left,-0.16574,0.2469,0.9632,0.7163,1.855,2.2554,0.4005,A
189,0.49721,1.2,2,0.40605,0.32318,0.88668,189,2.7512,0.282,0.14087,0.63808,5,2D1U,2.0,True,0.359,23,True,right,0.2486,1.9933,2.6012,0.6078,0.2514,1.0674,0.8159,A
190,0.49721,1.2,2,0.24032,0.39776,0.83696,190,2.87551,0.8,0.39776,0.90326,5,lapse_rate,2.0,True,0.142,0,False,right,0.0,1.6486,2.5232,0.8746,0.2077,0.7737,0.5659,A
191,0.49721,1.2,1,0.41434,0.20717,0.53864,191,1.7568,-0.8,-0.39776,0.09944,5,lapse_rate,2.0,True,0.32,0,False,right,-0.16574,0.3782,0.546,0.1678,1.1373,1.5374,0.4001,A
192,0.49721,1.2,2,0.4392,0.3729,0.77896,192,2.72635,0.282,0.14087,0.63808,5,2D1U,1.0,False,1.475,23,True,left,0.2486,1.9142,2.5225,0.6082,0.2816,1.0977,0.8161,A
193,0.49721,0.1,1,0.3729,0.24032,0.85354,193,2.61034,0.294,0.14916,0.64637,5,2U1D,1.0,True,0.359,18,True,left,0.0,0.5048,0.8802,0.3754,1.8724,2.097,0.2246,A
194,0.49721,0.1,2,0.40605,0.44749,0.86182,194,2.83408,0.24,0.11601,0.62151,5,2U1D,2.0,True,0.112,18,False,right,-0.16574,1.682,2.1647,0.4827,0.6232,0.6818,0.0586,A
195,0.49721,0.1,2,0.20717,0.34804,0.77896,195,1.93082,-0.8,-0.39776,0.09944,5,lapse_rate,1.0,True,0.525,0,False,left,0.2486,1.6073,1.5655,-0.0418,0.2153,0.6906,0.4753,A
196,0.49721,0.1,1,0.35633,0.27346,0.77896,196,2.57719,0.336,0.16574,0.67123,5,2D1U,2.0,False,0.468,23,False,right,0.0,0.4944,0.8948,0.4004,1.8116,2.0371,0.2255,A
197,0.49721,1.2,2,0.26518,0.26518,0.45577,197,2.10485,0.24,0.11601,0.62151,5,2U1D,2.0,True,0.442,18,False,right,-0.16574,1.2079,1.8001,0.5922,0.3168,0.7169,0.4001,A
198,0.49721,1.2,2,0.3729,0.26518,0.70437,198,2.53575,0.39,0.19888,0.69609,5,2D1U,1.0,False,1.876,23,False,left,0.2486,1.7731,2.4396,0.6664,0.2145,1.0315,0.817,A
199,0.49721,0.1,1,0.22374,0.39776,0.67951,199,2.70148,0.8,0.39776,0.90326,5,lapse_rate,2.0,False,0.132,0,False,right,0.0,0.356,0.989,0.633,1.8062,2.0308,0.2246,A
200,0.49721,1.2,1,0.29004,0.38948,0.67123,200,2.56891,0.444,0.22374,0.72095,5,2D1U,1.0,True,0.308,23,False,left,-0.16574,0.2535,1.045,0.7915,1.7701,2.1697,0.3996,A
201,0.49721,0.1,1,0.38119,0.35633,0.80382,201,2.6352,0.186,0.09115,0.59665,5,2U1D,2.0,False,0.426,18,False,right,0.2486,0.5179,0.842,0.3241,1.6597,2.1342,0.4745,A
202,0.49721,1.2,2,0.33147,0.29004,0.66294,202,2.68492,0.8,0.39776,0.90326,5,lapse_rate,2.0,True,0.26,0,False,right,0.0,1.5697,2.4455,0.8758,0.3034,0.8703,0.5669,A
203,0.49721,1.2,2,0.41434,0.19888,0.50549,203,2.51918,0.8,0.39776,0.90326,5,lapse_rate,1.0,False,0.275,0,False,left,-0.16574,1.4051,2.2808,0.8757,0.4636,0.8642,0.4006,A
204,0.49721,0.1,1,0.29004,0.28175,0.5635,204,2.35345,0.444,0.22374,0.72095,5,2D1U,2.0,False,0.112,23,False,right,0.2486,0.4233,0.8739,0.4506,1.4482,1.9238,0.4756,A
205,0.49721,0.1,1,0.33976,0.22374,0.49721,205,2.17943,0.24,0.11601,0.62151,5,2U1D,1.0,True,0.491,19,True,left,0.0,0.4752,0.8244,0.3492,1.4581,1.6835,0.2255,A
206,0.49721,1.2,2,0.36462,0.42262,0.86182,206,2.89208,0.498,0.2486,0.74581,5,2D1U,2.0,True,0.408,23,False,right,-0.16574,1.7166,2.4336,0.717,0.417,0.8163,0.3993,A
207,0.49721,1.2,1,0.24032,0.24032,0.8784,207,2.47776,0.24,0.11601,0.62151,5,2U1D,1.0,True,0.326,19,True,left,0.2486,0.2098,0.9018,0.6919,1.627,2.4432,0.8163,A
208,0.49721,0.1,2,0.35633,0.42262,0.88668,208,2.26228,-0.8,-0.39776,0.09944,5,lapse_rate,1.0,True,0.359,0,False,left,0.0,1.7373,1.6958,-0.0416,0.4865,0.7113,0.2248,A
209,0.49721,1.2,2,0.38948,0.4392,0.53864,209,1.96397,-0.8,-0.39776,0.09944,5,lapse_rate,1.0,True,0.317,0,False,left,-0.16574,1.4185,1.4854,0.0669,0.4437,0.8428,0.399,A
210,0.49721,1.2,2,0.25689,0.23203,0.64637,210,2.37831,0.498,0.2486,0.74581,5,2D1U,2.0,True,1.833,23,False,right,0.2486,1.603,2.3198,0.7168,0.1033,0.9193,0.816,A
211,0.49721,0.1,2,0.29004,0.3729,0.58836,211,2.34516,0.186,0.09115,0.59665,5,2U1D,2.0,True,0.141,20,True,right,0.0,1.3727,1.8311,0.4585,0.4226,0.6471,0.2245,A
212,0.49721,0.1,1,0.2486,0.4392,0.82868,212,2.11313,-0.8,-0.39776,0.09944,5,lapse_rate,2.0,True,0.225,0,False,right,-0.16574,0.3849,0.2094,-0.1755,1.2601,1.3183,0.0582,A
213,0.49721,0.1,2,0.26518,0.38119,0.58007,213,2.3203,0.186,0.09115,0.59665,5,2U1D,1.0,False,0.409,20,True,left,0.2486,1.462,1.9208,0.4587,0.2705,0.7462,0.4757,A
214,0.49721,0.1,2,0.24032,0.24032,0.59665,214,2.29545,0.444,0.22374,0.72095,5,2D1U,2.0,True,0.167,24,True,right,0.0,1.3288,1.9125,0.5837,0.3705,0.5961,0.2255,A
215,0.49721,1.2,1,0.34804,0.3729,0.40605,215,2.24571,0.24,0.11601,0.62151,5,2U1D,1.0,True,0.385,21,True,left,-0.16574,0.3147,1.0061,0.6914,1.4643,1.8642,0.3999,A
216,0.49721,1.2,2,0.44749,0.26518,0.58836,216,2.7015,0.8,0.39776,0.90326,5,lapse_rate,2.0,True,0.191,0,False,right,0.2486,1.7313,2.6062,0.8749,0.2895,1.1061,0.8166,A
217,0.49721,1.2,1,0.26518,0.3149,0.8784,217,2.67664,0.444,0.22374,0.72095,5,2D1U,1.0,True,0.502,24,True,left,0.0,0.2367,1.0283,0.7916,1.8779,2.4451,0.5672,A
218,0.49721,1.2,1,0.29832,0.23203,0.5635,218,2.21257,0.24,0.11601,0.62151,5,2U1D,1.0,True,0.542,21,True,left,-0.16574,0.265,0.9571,0.6921,1.5742,1.974,0.3999,A
219,0.49721,0.1,2,0.27346,0.28175,0.62979,219,2.3783,0.39,0.19888,0.69609,5,2D1U,2.0,True,0.111,24,False,right,0.2486,1.5273,2.0855,0.5583,0.2863,0.7614,0.4751,A
220,0.49721,1.2,2,0.35633,0.42262,0.84525,220,2.22085,-0.8,-0.39776,0.09944,5,lapse_rate,1.0,True,0.359,0,False,left,0.0,1.7752,1.8421,0.0669,0.3257,0.8925,0.5668,A
221,0.49721,0.1,1,0.38119,0.28175,0.8121,221,2.66834,0.39,0.19888,0.69609,5,2D1U,1.0,True,0.535,24,False,left,-0.16574,0.5147,0.9386,0.4239,1.972,2.0303,0.0583,A
222,0.49721,0.1,2,0.35633,0.41434,0.64637,222,2.01369,-0.8,-0.39776,0.09944,5,lapse_rate,1.0,True,0.291,0,False,left,0.2486,1.6222,1.5806,-0.0416,0.3643,0.8395,0.4752,A
223,0.49721,0.1,2,0.3149,0.20717,0.45577,223,2.0717,0.186,0.09115,0.59665,5,2U1D,2.0,True,0.318,22,True,right,0.0,1.2674,1.7255,0.4581,0.4504,0.675,0.2245,A
224,0.49721,1.2,2,0.40605,0.27346,0.5635,224,2.41145,0.336,0.16574,0.67123,5,2D1U,2.0,True,0.258,24,False,right,-0.16574,1.4569,2.0986,0.6417,0.4566,0.8567,0.4001,A
225,0.49721,1.2,2,0.44749,0.23203,0.53864,225,2.31202,0.186,0.09115,0.59665,5,2U1D,1.0,False,0.525,22,True,left,0.2486,1.6867,2.2528,0.5661,0.2946,1.1115,0.8169,A
226,0.49721,1.2,1,0.4392,0.4392,0.44749,226,2.72636,0.8,0.39776,0.90326,5,lapse_rate,1.0,True,0.234,0,False,left,0.0,0.4059,1.3812,0.9753,1.7981,2.3647,0.5666,A
227,0.49721,1.2,2,0.2486,0.33976,0.74581,227,2.50261,0.336,0.16574,0.67123,5,2D1U,2.0,True,0.159,24,False,right,-0.16574,1.4792,2.1209,0.6417,0.2954,0.6958,0.4004,A
228,0.49721,0.1,1,0.39776,0.2486,0.54693,228,2.31201,0.24,0.11601,0.62151,5,2U1D,2.0,False,0.251,23,True,right,0.2486,0.5316,0.8821,0.3505,1.4401,1.9156,0.4755,A
229,0.49721,1.2,1,0.44749,0.33147,0.72095,229,2.90038,0.8,0.39776,0.90326,5,lapse_rate,2.0,False,0.184,0,False,right,0.0,0.4185,1.3935,0.9749,2.0852,2.6518,0.5666,A
230,0.49721,0.1,1,0.21546,0.22374,0.77067,230,2.35345,0.294,0.14916,0.64637,5,2U1D,1.0,True,1.458,23,False,left,-0.16574,0.3526,0.7284,0.3758,1.7206,1.7779,0.0573,A
231,0.49721,0.1,1,0.24032,0.33976,0.60493,231,1.78166,-0.8,-0.39776,0.09944,5,lapse_rate,2.0,True,0.175,0,False,right,0.2486,0.3752,0.2007,-0.1745,0.8171,1.2922,0.4751,A
232,0.49721,0.1,1,0.40605,0.38119,0.73752,232,2.66005,0.282,0.14087,0.63808,5,2D1U,1.0,True,0.516,24,False,left,0.0,0.5443,0.9106,0.3663,1.7854,2.0108,0.2254,A
233,0.49721,1.2,2,0.33976,0.25689,0.79553,233,2.52747,0.282,0.14087,0.63808,5,2D1U,2.0,True,0.125,24,False,right,-0.16574,1.6228,2.2306,0.6079,0.3893,0.7889,0.3996,A
234,0.49721,1.2,1,0.40605,0.29004,0.4392,234,2.27887,0.294,0.14916,0.64637,5,2U1D,2.0,False,0.233,23,False,right,0.2486,0.3766,1.0931,0.7165,1.3769,2.1932,0.8163,A
235,0.49721,0.1,2,0.29832,0.40605,0.55521,235,1.85623,-0.8,-0.39776,0.09944,5,lapse_rate,1.0,True,0.334,0,False,left,0.0,1.3485,1.3061,-0.0424,0.4306,0.6569,0.2263,A
236,0.49721,1.2,1,0.38948,0.39776,0.45577,236,2.35344,0.228,0.11601,0.61322,5,2D1U,1.0,True,0.349,24,False,left,-0.16574,0.3606,1.0429,0.6823,1.5519,1.9513,0.3994,A
237,0.49721,1.2,2,0.22374,0.38948,0.50549,237,2.51918,0.8,0.39776,0.90326,5,lapse_rate,2.0,True,0.112,0,False,right,0.2486,1.4211,2.2962,0.875,0.0622,0.8796,0.8175,A
238,0.49721,0.1,1,0.29004,0.27346,0.67123,238,2.40317,0.348,0.17402,0.67123,5,2U1D,2.0,False,0.284,23,False,right,0.0,0.4238,0.8234,0.3997,1.6317,1.857,0.2254,A
239,0.49721,0.1,2,0.22374,0.34804,0.62151,239,2.39487,0.402,0.19888,0.70437,5,2U1D,2.0,True,0.166,23,False,right,-0.16574,1.2571,1.8237,0.5666,0.4414,0.4992,0.0579,A
240,0.49721,0.1,1,0.36462,0.35633,0.5635,240,2.39488,0.228,0.11601,0.61322,5,2D1U,2.0,False,0.225,24,False,right,0.2486,0.5016,0.8434,0.3417,1.4185,1.8933,0.4749,A
241,0.49721,0.1,2,0.27346,0.34804,0.43091,241,2.45288,0.8,0.39776,0.90326,5,lapse_rate,2.0,True,0.734,0,False,right,0.0,1.198,1.9642,0.7662,0.4061,0.631,0.2249,A
242,0.49721,1.2,2,0.21546,0.29832,0.76238,242,2.41145,0.282,0.14087,0.63808,5,2D1U,2.0,True,0.163,25,True,right,-0.16574,1.4625,2.0708,0.6083,0.2622,0.6629,0.4007,A
243,0.49721,1.2,1,0.44749,0.23203,0.8784,243,2.7595,0.402,0.19888,0.70437,5,2U1D,1.0,True,0.676,23,False,left,0.2486,0.4146,1.1895,0.7749,1.9143,2.7314,0.8171,A
244,0.49721,0.1,1,0.4392,0.38948,0.53035,244,2.7595,0.8,0.39776,0.90326,5,lapse_rate,1.0,True,0.275,0,False,left,0.0,0.5735,1.2071,0.6336,1.8734,2.0984,0.225,A
245,0.49721,1.2,1,0.35633,0.26518,0.87011,245,2.66006,0.348,0.17402,0.67123,5,2U1D,1.0,True,0.367,24,True,left,-0.16574,0.3279,1.0702,0.7423,1.9947,2.3943,0.3996,A
246,0.49721,0.1,1,0.3149,0.39776,0.51378,246,2.36173,0.282,0.14087,0.63808,5,2D1U,1.0,True,0.309,25,True,left,0.2486,0.4503,0.8171,0.3668,1.3422,1.8168,0.4746,A
247,0.49721,0.1,2,0.21546,0.26518,0.55521,247,2.43632,0.8,0.39776,0.90326,5,lapse_rate,2.0,True,0.141,0,False,right,0.0,1.2641,2.0312,0.7671,0.3475,0.5736,0.2261,A
248,0.49721,0.1,2,0.22374,0.21546,0.52207,248,2.0717,0.228,0.11601,0.61322,5,2D1U,2.0,True,0.182,26,True,right,-0.16574,1.1611,1.6358,0.4747,0.4438,0.5021,0.0583,A
249,0.49721,0.1,1,0.36462,0.38119,0.53864,249,2.45289,0.348,0.17402,0.67123,5,2U1D,1.0,True,0.433,24,True,left,0.2486,0.4957,0.895,0.3993,1.4458,1.92,0.4742,A
250,0.49721,1.2,2,0.3729,0.38119,0.85354,250,2.20428,-0.8,-0.39776,0.09944,5,lapse_rate,1.0,True,0.417,0,False,left,0.0,1.7991,1.8659,0.0668,0.3415,0.908,0.5665,A
251,0.49721,0.1,2,0.23203,0.39776,0.79553,251,2.02197,-0.8,-0.39776,0.09944,5,lapse_rate,1.0,True,0.466,0,False,left,-0.16574,1.4405,1.3982,-0.0424,0.4484,0.507,0.0586,A
252,0.49721,1.2,1,0.3729,0.3729,0.4392,252,2.29543,0.228,0.11601,0.61322,5,2D1U,1.0,True,1.618,26,True,left,0.2486,0.3427,1.0261,0.6834,1.3086,2.1255,0.8168,A
253,0.49721,1.2,2,0.33976,0.44749,0.58007,253,2.5109,0.294,0.14916,0.64637,5,2U1D,2.0,True,0.112,24,False,right,0.0,1.4893,2.1055,0.6162,0.3053,0.8734,0.5681,A
254,0.49721,1.2,1,0.20717,0.32318,0.88668,254,2.56061,0.294,0.14916,0.64637,5,2U1D,2.0,False,0.266,24,False,right,-0.16574,0.1759,0.8928,0.7169,1.8343,2.234,0.3997,A
255,0.49721,0.1,2,0.20717,0.20717,0.62151,255,2.20429,0.348,0.17402,0.67123,5,2U1D,2.0,True,0.368,25,True,right,0.2486,1.4528,1.9863,0.5334,0.2187,0.6945,0.4757,A
256,0.49721,0.1,1,0.4392,0.33976,0.86182,256,2.72635,0.174,0.08287,0.58836,5,2D1U,1.0,True,0.699,26,False,left,0.0,0.5713,0.8889,0.3176,1.8884,2.1134,0.2249,A
257,0.49721,0.1,1,0.25689,0.39776,0.8121,257,2.55232,0.174,0.08287,0.58836,5,2D1U,1.0,True,0.266,26,False,left,-0.16574,0.3945,0.7104,0.3159,1.7437,1.802,0.0584,A
258,0.49721,1.2,2,0.33976,0.28175,0.41434,258,2.20429,0.348,0.17402,0.67123,5,2U1D,2.0,True,0.117,25,True,right,0.2486,1.4532,2.0947,0.6415,0.1866,1.003,0.8164,A
259,0.49721,1.2,1,0.38948,0.23203,0.48063,259,2.24572,0.294,0.14916,0.64637,5,2U1D,1.0,True,0.441,26,True,left,0.0,0.3575,1.0737,0.7163,1.5244,2.0901,0.5657,A
260,0.49721,1.2,1,0.28175,0.39776,0.5635,260,2.30372,0.12,0.05801,0.5635,5,2D1U,2.0,False,0.113,26,False,right,-0.16574,0.2486,0.8825,0.6339,1.4989,1.8993,0.4004,A
261,0.49721,0.1,2,0.24032,0.41434,0.7541,261,2.55234,0.294,0.14916,0.64637,5,2U1D,2.0,True,0.111,26,True,right,0.2486,1.6178,2.1272,0.5094,0.252,0.7262,0.4742,A
262,0.49721,0.1,1,0.39776,0.40605,0.72923,262,2.61861,0.174,0.08287,0.58836,5,2D1U,1.0,True,0.339,27,True,left,0.0,0.5282,0.845,0.3167,1.7116,1.9373,0.2257,A
263,0.49721,0.1,1,0.3149,0.43091,0.40605,263,2.23743,0.174,0.08287,0.58836,5,2D1U,1.0,True,0.233,27,True,left,-0.16574,0.4484,0.7655,0.317,1.39,1.4482,0.0582,A
264,0.49721,1.2,1,0.24032,0.2486,0.82868,264,2.43632,0.24,0.11601,0.62151,5,2U1D,2.0,False,1.009,26,False,right,0.2486,0.21,0.9016,0.6916,1.5766,2.3931,0.8165,A
265,0.49721,1.2,2,0.29832,0.2486,0.41434,265,2.10484,0.294,0.14916,0.64637,5,2U1D,2.0,True,0.718,27,True,right,0.0,1.2808,1.8974,0.6166,0.2644,0.8305,0.5662,A
266,0.49721,1.2,2,0.38119,0.36462,0.53864,266,2.34516,0.12,0.05801,0.5635,5,2D1U,1.0,False,0.424,28,True,left,-0.16574,1.405,1.9386,0.5336,0.4299,0.8302,0.4004,A
267,0.49721,0.1,2,0.33147,0.25689,0.77067,267,2.50261,0.294,0.14916,0.64637,5,2U1D,2.0,True,0.368,27,True,right,0.2486,1.7226,2.2319,0.5092,0.3406,0.8152,0.4746,A
268,0.49721,0.1,2,0.30661,0.24032,0.67951,268,2.31201,0.174,0.08287,0.58836,5,2D1U,2.0,True,0.432,29,True,right,0.0,1.4799,1.93,0.4501,0.4394,0.6634,0.224,A
269,0.49721,0.1,1,0.2486,0.32318,0.62151,269,2.27886,0.174,0.08287,0.58836,5,2D1U,1.0,True,0.542,29,True,left,-0.16574,0.383,0.6999,0.3169,1.5411,1.6001,0.059,A
270,0.49721,1.2,2,0.21546,0.38948,0.6878,270,2.41146,0.24,0.11601,0.62151,5,2U1D,2.0,True,0.842,28,True,right,0.2486,1.5986,2.1902,0.5916,0.0571,0.8735,0.8165,A
271,0.49721,1.2,2,0.44749,0.38119,0.42262,271,2.31201,0.12,0.05801,0.5635,5,2D1U,1.0,False,0.917,30,True,left,0.0,1.4432,1.976,0.5329,0.4188,0.9843,0.5655,A
272,0.49721,1.2,2,0.36462,0.38948,0.65465,272,2.49432,0.174,0.08287,0.58836,5,2D1U,2.0,True,0.112,31,True,right,-0.16574,1.5089,2.0678,0.5588,0.4172,0.818,0.4008,A
273,0.49721,0.1,2,0.2486,0.22374,0.42262,273,1.98053,0.174,0.08287,0.58836,5,2D1U,2.0,True,0.25,31,True,right,0.2486,1.2866,1.7363,0.4497,0.2535,0.7279,0.4744,A
274,0.49721,0.1,2,0.29832,0.39776,0.8784,274,2.6932,0.24,0.11601,0.62151,5,2U1D,2.0,True,0.533,28,True,right,0.0,1.6747,2.1573,0.4827,0.4323,0.6581,0.2258,A
275,0.49721,0.1,1,0.22374,0.38119,0.39776,275,2.09655,0.186,0.09115,0.59665,5,2U1D,1.0,True,0.479,28,False,left,-0.16574,0.3557,0.6804,0.3246,1.2977,1.3558,0.0581,A
276,0.49721,1.2,2,0.38119,0.38119,0.67951,276,2.5026,0.12,0.05801,0.5635,5,2D1U,1.0,False,0.637,32,True,left,0.2486,1.7539,2.2865,0.5326,0.2205,1.0369,0.8163,A
277,0.49721,1.2,1,0.2486,0.43091,0.58836,277,2.36173,0.186,0.09115,0.59665,5,2U1D,2.0,False,0.108,28,False,right,0.0,0.2148,0.88,0.6652,1.4388,2.006,0.5672,A
278,0.49721,1.2,1,0.26518,0.41434,0.74581,278,2.54405,0.24,0.11601,0.62151,5,2U1D,1.0,True,0.374,29,True,left,-0.16574,0.231,0.9219,0.6909,1.7229,2.1219,0.399,A
279,0.49721,0.1,2,0.22374,0.38119,0.50549,279,2.19599,0.174,0.08287,0.58836,5,2D1U,2.0,True,0.508,33,True,right,0.2486,1.3533,1.8024,0.449,0.2365,0.7107,0.4742,A
280,0.49721,0.1,2,0.3729,0.24032,0.77067,280,2.50261,0.24,0.11601,0.62151,5,2U1D,2.0,True,0.417,29,True,right,0.0,1.6441,2.1266,0.4824,0.5106,0.735,0.2244,A
281,0.49721,0.1,1,0.33976,0.33976,0.44749,281,2.22087,0.186,0.09115,0.59665,5,2U1D,1.0,True,0.449,30,True,left,-0.16574,0.477,0.8023,0.3253,1.4688,1.5266,0.0578,A
282,0.49721,1.2,1,0.38119,0.32318,0.67123,282,2.46117,0.174,0.08287,0.58836,5,2D1U,2.0,False,0.187,33,True,right,0.2486,0.3464,1.0036,0.6572,1.5214,2.3375,0.8162,A
283,0.49721,1.2,1,0.26518,0.28175,0.41434,283,2.0717,0.228,0.11601,0.61322,5,2D1U,2.0,False,0.111,33,False,right,0.0,0.2337,0.9169,0.6832,1.301,1.8665,0.5655,A
284,0.49721,1.2,1,0.2486,0.38948,0.48063,284,2.21257,0.186,0.09115,0.59665,5,2U1D,2.0,False,0.568,30,True,right,-0.16574,0.2155,0.8816,0.6661,1.4146,1.8143,0.3998,A
285,0.49721,0.1,1,0.21546,0.21546,0.48063,285,2.04684,0.282,0.14087,0.63808,5,2D1U,2.0,False,0.459,33,False,right,0.2486,0.345,0.7124,0.3674,1.2038,1.6789,0.4751,A
286,0.49721,0.1,2,0.29004,0.3149,0.5635,286,2.28716,0.24,0.11601,0.62151,5,2U1D,1.0,False,0.375,31,True,left,0.0,1.348,1.8305,0.4824,0.4221,0.6471,0.225,A
287,0.49721,0.1,2,0.2486,0.27346,0.54693,287,2.21257,0.294,0.14916,0.64637,5,2U1D,2.0,True,0.267,31,False,right,-0.16574,1.205,1.7123,0.5073,0.4636,0.521,0.0574,A
288,0.49721,1.2,2,0.27346,0.40605,0.67123,288,2.51918,0.336,0.16574,0.67123,5,2D1U,1.0,False,0.443,33,False,left,0.2486,1.6403,2.2816,0.6412,0.1146,0.9316,0.817,A
289,0.49721,1.2,2,0.30661,0.44749,0.53035,289,2.47775,0.39,0.19888,0.69609,5,2D1U,2.0,True,0.359,33,False,right,0.0,1.4037,2.0697,0.666,0.27,0.8362,0.5662,A
290,0.49721,1.2,1,0.44749,0.35633,0.5635,290,2.56062,0.39,0.19888,0.69609,5,2D1U,1.0,True,0.283,33,False,left,-0.16574,0.4133,1.1804,0.7672,1.7967,2.198,0.4013,A
291,0.49721,0.1,2,0.38119,0.41434,0.51378,291,2.45289,0.294,0.14916,0.64637,5,2U1D,2.0,True,0.141,31,False,right,0.2486,1.518,2.0263,0.5083,0.3935,0.8684,0.4749,A
292,0.49721,0.1,2,0.3729,0.24032,0.42262,292,2.15456,0.24,0.11601,0.62151,5,2U1D,2.0,True,0.29,32,True,right,0.0,1.2876,1.7708,0.4832,0.5039,0.7293,0.2254,A
293,0.49721,0.1,2,0.34804,0.33976,0.70437,293,2.51089,0.24,0.11601,0.62151,5,2U1D,2.0,True,0.233,32,True,right,-0.16574,1.4672,1.9503,0.4831,0.5676,0.6255,0.0579,A
294,0.49721,1.2,1,0.3729,0.43091,0.83696,294,2.80921,0.336,0.16574,0.67123,5,2D1U,2.0,False,0.508,34,True,right,0.2486,0.3369,1.0796,0.7427,1.7627,2.5786,0.816,A
295,0.49721,1.2,2,0.39776,0.41434,0.84525,295,2.85065,0.39,0.19888,0.69609,5,2D1U,1.0,False,0.45,35,True,left,0.0,1.8144,2.482,0.6676,0.3656,0.9324,0.5668,A
296,0.49721,1.2,2,0.43091,0.41434,0.4392,296,2.37831,0.186,0.09115,0.59665,5,2U1D,2.0,True,0.111,32,False,right,-0.16574,1.3571,1.9238,0.5667,0.4821,0.882,0.3999,A
297,0.49721,0.1,1,0.22374,0.2486,0.82868,297,2.51918,0.444,0.22374,0.72095,5,2D1U,2.0,False,0.317,35,False,right,0.2486,0.3555,0.8061,0.4506,1.6478,2.123,0.4752,A
298,0.49721,0.1,2,0.20717,0.30661,0.58007,298,2.33687,0.498,0.2486,0.74581,5,2D1U,2.0,True,0.301,35,False,right,0.0,1.2851,1.8944,0.6093,0.3437,0.5689,0.2253,A
299,0.49721,0.1,2,0.33147,0.39776,0.52207,299,2.49432,0.498,0.2486,0.74581,5,2D1U,2.0,True,0.492,35,False,right,-0.16574,1.2645,1.8732,0.6087,0.5478,0.606,0.0581,A
300,0.49721,1.2,2,0.29004,0.22374,0.64637,300,2.25401,0.186,0.09115,0.59665,5,2U1D,1.0,False,1.552,32,False,left,0.2486,1.6333,2.1998,0.5665,0.1326,0.9499,0.8173,A
301,0.49721,1.2,2,0.44749,0.41434,0.70437,301,2.78436,0.444,0.22374,0.72095,5,2D1U,2.0,True,0.175,36,True,right,0.0,1.7277,2.4193,0.6916,0.4201,0.9867,0.5665,A
302,0.49721,1.2,1,0.29004,0.21546,0.89497,302,2.51919,0.24,0.11601,0.62151,5,2U1D,1.0,True,0.385,33,True,left,-0.16574,0.2594,0.9513,0.692,1.9017,2.3018,0.4001,A
303,0.49721,0.1,1,0.44749,0.3149,0.57179,303,2.55234,0.444,0.22374,0.72095,5,2D1U,2.0,False,0.217,36,True,right,0.2486,0.5855,1.0347,0.4491,1.6188,2.0932,0.4745,A
304,0.49721,0.1,1,0.40605,0.20717,0.55521,304,2.28715,0.24,0.11601,0.62151,5,2U1D,1.0,True,0.467,33,True,left,0.0,0.5405,0.8903,0.3498,1.5824,1.8066,0.2242,A
305,0.49721,0.1,1,0.21546,0.38948,0.62151,305,2.46947,0.498,0.2486,0.74581,5,2D1U,1.0,True,0.184,37,True,left,-0.16574,0.3513,0.8253,0.474,1.6674,1.7261,0.0587,A
306,0.49721,1.2,2,0.3729,0.39776,0.65465,306,2.66833,0.498,0.2486,0.74581,5,2D1U,2.0,True,0.114,37,True,right,0.2486,1.7205,2.4364,0.7159,0.2123,1.0282,0.8158,A
307,0.49721,1.2,1,0.29004,0.2486,0.58836,307,2.22086,0.186,0.09115,0.59665,5,2U1D,2.0,False,0.359,34,True,right,0.0,0.261,0.9272,0.6662,1.4862,2.0525,0.5663,A
308,0.49721,1.2,2,0.41434,0.40605,0.83696,308,2.77607,0.24,0.11601,0.62151,5,2U1D,2.0,True,0.224,35,True,right,-0.16574,1.7394,2.3306,0.5912,0.4647,0.8646,0.3999,A
309,0.49721,0.1,1,0.42262,0.34804,0.89497,309,2.88379,0.444,0.22374,0.72095,5,2D1U,2.0,False,0.351,38,True,right,0.2486,0.5596,1.0092,0.4496,1.9176,2.3933,0.4757,A
310,0.49721,0.1,1,0.24032,0.30661,0.67123,310,2.46118,0.498,0.2486,0.74581,5,2D1U,1.0,True,0.707,39,True,left,0.0,0.3713,0.8467,0.4754,1.655,1.8797,0.2247,A
311,0.49721,0.1,2,0.2486,0.26518,0.61322,311,2.24572,0.24,0.11601,0.62151,5,2U1D,2.0,True,0.208,35,True,right,-0.16574,1.2712,1.7546,0.4834,0.4628,0.5212,0.0584,A
312,0.49721,1.2,1,0.20717,0.36462,0.41434,312,2.22915,0.498,0.2486,0.74581,5,2D1U,2.0,False,0.167,39,True,right,0.2486,0.1761,0.9934,0.8173,1.2509,2.0683,0.8174,A
313,0.49721,1.2,2,0.33147,0.24032,0.54693,313,2.21258,0.186,0.09115,0.59665,5,2U1D,2.0,True,0.11,36,True,right,0.0,1.448,2.0144,0.5664,0.2979,0.8648,0.5668,A
314,0.49721,1.2,1,0.23203,0.27346,0.84525,314,2.4446,0.186,0.09115,0.59665,5,2U1D,1.0,True,0.675,36,True,left,-0.16574,0.1974,0.8633,0.6659,1.7632,2.1633,0.4001,A
315,0.49721,0.1,1,0.24032,0.38119,0.89497,315,2.57719,0.132,0.06629,0.5635,5,2U1D,2.0,False,0.216,36,False,right,0.2486,0.3774,0.6691,0.2917,1.5775,2.0535,0.4761,A
316,0.49721,0.1,2,0.3149,0.3729,0.86182,316,2.82579,0.552,0.27346,0.77896,5,2D1U,2.0,True,0.461,39,False,right,0.0,1.6742,2.3167,0.6425,0.4493,0.6741,0.2248,A
317,0.49721,0.1,2,0.43091,0.33147,0.8784,317,2.91695,0.552,0.27346,0.77896,5,2D1U,2.0,True,0.241,39,False,right,-0.16574,1.7277,2.3693,0.6416,0.6528,0.711,0.0582,A
318,0.49721,1.2,2,0.33976,0.3149,0.48063,318,2.37831,0.498,0.2486,0.74581,5,2D1U,1.0,False,0.592,40,True,left,0.2486,1.518,2.2352,0.7172,0.186,1.0021,0.8161,A
319,0.49721,1.2,1,0.28175,0.33976,0.45577,319,2.17114,0.186,0.09115,0.59665,5,2U1D,1.0,True,0.559,37,True,left,0.0,0.2524,0.9199,0.6675,1.3442,1.911,0.5668,A
320,0.49721,1.2,1,0.23203,0.3729,0.80382,320,2.68492,0.552,0.27346,0.77896,5,2D1U,2.0,False,0.259,41,True,right,-0.16574,0.1994,1.0497,0.8503,1.9072,2.3072,0.4,A
321,0.49721,0.1,1,0.33976,0.27346,0.73752,321,2.65177,0.606,0.30661,0.80382,5,2D1U,1.0,True,0.549,41,False,left,0.2486,0.4716,1.0058,0.5342,1.7558,2.2304,0.4745,A
322,0.49721,0.1,2,0.26518,0.38119,0.8121,322,2.55233,0.186,0.09115,0.59665,5,2U1D,2.0,True,0.111,37,True,right,0.0,1.5742,2.0324,0.4582,0.3992,0.6236,0.2244,A
323,0.49721,0.1,1,0.34804,0.44749,0.78724,323,2.64348,0.132,0.06629,0.5635,5,2U1D,1.0,True,0.325,38,True,left,-0.16574,0.4812,0.7717,0.2905,1.7799,1.8382,0.0583,A
324,0.49721,1.2,1,0.21546,0.24032,0.73752,324,2.49433,0.606,0.30661,0.80382,5,2D1U,2.0,False,0.351,41,False,right,0.2486,0.1821,1.0563,0.8742,1.6396,2.4569,0.8173,A
325,0.49721,1.2,2,0.32318,0.23203,0.48892,325,2.37002,0.66,0.33147,0.82868,5,2D1U,2.0,True,0.482,41,False,right,0.0,1.3823,2.1818,0.7996,0.2906,0.8569,0.5663,A
326,0.49721,1.2,1,0.23203,0.21546,0.58836,326,2.09656,0.132,0.06629,0.5635,5,2U1D,2.0,False,0.29,38,True,right,-0.16574,0.1987,0.8319,0.6332,1.4732,1.8737,0.4005,A
327,0.49721,0.1,1,0.26518,0.43091,0.5635,327,2.58548,0.66,0.33147,0.82868,5,2D1U,2.0,False,0.809,41,False,right,0.2486,0.4033,0.9606,0.5574,1.5365,2.0115,0.4751,A
328,0.49721,0.1,1,0.32318,0.29832,0.78724,328,2.5026,0.186,0.09115,0.59665,5,2U1D,1.0,True,0.476,39,True,left,0.0,0.4593,0.7841,0.3248,1.709,1.9339,0.2249,A
329,0.49721,0.1,1,0.35633,0.4392,0.44749,329,2.33688,0.186,0.09115,0.59665,5,2U1D,1.0,True,0.737,39,True,left,-0.16574,0.4884,0.8134,0.3251,1.4801,1.538,0.058,A
330,0.49721,1.2,2,0.30661,0.32318,0.82868,330,2.51918,0.132,0.06629,0.5635,5,2U1D,1.0,False,0.359,40,True,left,0.2486,1.8315,2.3653,0.5338,0.1486,0.9647,0.816,A
331,0.49721,1.2,2,0.33976,0.26518,0.80382,331,2.75951,0.714,0.35633,0.85354,5,2D1U,2.0,True,0.3,41,False,right,0.0,1.7172,2.5423,0.825,0.3096,0.8751,0.5655,A
332,0.49721,1.2,2,0.38948,0.3729,0.66294,332,2.51918,0.186,0.09115,0.59665,5,2U1D,2.0,True,0.217,41,True,right,-0.16574,1.5391,2.1059,0.5669,0.4383,0.8386,0.4003,A
333,0.49721,0.1,2,0.25689,0.3729,0.61322,333,2.59376,0.714,0.35633,0.85354,5,2D1U,2.0,True,0.225,41,False,right,0.2486,1.4905,2.2076,0.7171,0.2661,0.7406,0.4745,A
334,0.49721,0.1,1,0.24032,0.29832,0.50549,334,2.13799,0.186,0.09115,0.59665,5,2U1D,1.0,True,0.394,41,True,left,0.0,0.3712,0.6961,0.325,1.3382,1.5627,0.2245,A
335,0.49721,0.1,2,0.4392,0.32318,0.83696,335,2.92523,0.66,0.33147,0.82868,5,2D1U,2.0,True,0.114,42,True,right,-0.16574,1.6885,2.3807,0.6922,0.6552,0.7135,0.0582,A
336,0.49721,1.2,2,0.43091,0.2486,0.83696,336,2.57718,0.132,0.06629,0.5635,5,2U1D,2.0,True,0.369,42,True,right,0.2486,1.9653,2.4985,0.5333,0.2734,1.0907,0.8173,A
337,0.49721,1.2,2,0.4392,0.3149,0.74581,337,2.8258,0.66,0.33147,0.82868,5,2D1U,2.0,True,0.113,42,True,right,0.0,1.7561,2.556,0.7998,0.4062,0.9728,0.5666,A
338,0.49721,1.2,1,0.36462,0.27346,0.45577,338,2.15456,0.132,0.06629,0.5635,5,2U1D,1.0,True,0.633,42,True,left,-0.16574,0.3341,0.967,0.6329,1.4758,1.8752,0.3994,A
339,0.49721,0.1,1,0.20717,0.32318,0.67951,339,2.51089,0.606,0.30661,0.80382,5,2D1U,1.0,True,0.659,42,False,left,0.2486,0.3374,0.8704,0.5331,1.5626,2.0368,0.4742,A
340,0.49721,0.1,2,0.29832,0.28175,0.6878,340,2.30372,0.078,0.04143,0.53864,5,2U1D,2.0,True,0.232,42,False,right,0.0,1.4816,1.8822,0.4005,0.4317,0.6568,0.2252,A
341,0.49721,0.1,2,0.29832,0.24032,0.50549,341,2.34516,0.606,0.30661,0.80382,5,2D1U,2.0,True,0.272,42,False,right,-0.16574,1.2129,1.8787,0.6658,0.5125,0.5708,0.0583,A
342,0.49721,1.2,2,0.20717,0.29004,0.46406,342,2.23744,0.552,0.27346,0.77896,5,2D1U,2.0,True,0.111,42,False,right,0.2486,1.3635,2.1138,0.7503,0.0465,0.8631,0.8166,A
343,0.49721,1.2,2,0.41434,0.38948,0.53864,343,2.37831,0.078,0.04143,0.53864,5,2U1D,1.0,False,0.245,42,False,left,0.0,1.5219,2.0302,0.5083,0.3798,0.9474,0.5676,A
344,0.49721,1.2,2,0.27346,0.21546,0.44749,344,1.99712,0.132,0.06629,0.5635,5,2U1D,2.0,True,0.175,43,True,right,-0.16574,1.208,1.7419,0.5338,0.3247,0.7254,0.4007,A
345,0.49721,0.1,1,0.23203,0.41434,0.84525,345,2.76779,0.552,0.27346,0.77896,5,2D1U,1.0,True,0.242,42,False,left,0.2486,0.3692,0.8768,0.5076,1.7352,2.2105,0.4753,A
346,0.49721,0.1,2,0.2486,0.23203,0.77067,346,2.31201,0.132,0.06629,0.5635,5,2U1D,1.0,False,0.454,43,True,left,0.0,1.514,1.9392,0.4252,0.3816,0.6057,0.2241,A
347,0.49721,0.1,1,0.22374,0.33147,0.53864,347,2.33687,0.498,0.2486,0.74581,5,2D1U,1.0,True,0.25,42,False,left,-0.16574,0.3569,0.8322,0.4753,1.5902,1.6482,0.058,A
348,0.49721,1.2,2,0.22374,0.36462,0.86182,348,2.6932,0.498,0.2486,0.74581,5,2D1U,2.0,True,0.142,42,False,right,0.2486,1.7807,2.4976,0.7169,0.0642,0.8809,0.8167,A
349,0.49721,1.2,2,0.23203,0.19888,0.89497,349,2.41974,0.186,0.09115,0.59665,5,2U1D,2.0,True,0.182,43,False,right,0.0,1.6992,2.2651,0.5658,0.1986,0.7654,0.5668,A
350,0.49721,1.2,2,0.22374,0.39776,0.73752,350,2.45288,0.186,0.09115,0.59665,5,2U1D,1.0,False,0.266,43,False,left,-0.16574,1.4526,2.0189,0.5663,0.2768,0.6766,0.3998,A
351,0.49721,0.1,1,0.30661,0.35633,0.42262,351,2.20428,0.24,0.11601,0.62151,5,2U1D,1.0,True,0.276,43,False,left,0.2486,0.4443,0.7935,0.3492,1.2268,1.7018,0.4749,A
352,0.49721,0.1,2,0.21546,0.26518,0.62151,352,2.32031,0.444,0.22374,0.72095,5,2D1U,2.0,True,0.112,42,False,right,0.0,1.3289,1.9115,0.5825,0.3457,0.5703,0.2246,A
353,0.49721,0.1,1,0.34804,0.23203,0.67951,353,2.47774,0.444,0.22374,0.72095,5,2D1U,1.0,True,0.334,42,False,left,-0.16574,0.48,0.9308,0.4508,1.8299,1.8884,0.0585,A
354,0.49721,1.2,1,0.3149,0.42262,0.64637,354,2.50261,0.24,0.11601,0.62151,5,2U1D,1.0,True,0.392,43,False,left,0.2486,0.2806,0.9729,0.6923,1.4647,2.2806,0.8159,A
355,0.49721,1.2,1,0.3149,0.24032,0.57179,355,2.32031,0.39,0.19888,0.69609,5,2D1U,2.0,False,0.159,42,False,right,0.0,0.2797,1.0463,0.7667,1.5885,2.1542,0.5657,A
356,0.49721,1.2,2,0.38948,0.30661,0.57179,356,2.36174,0.186,0.09115,0.59665,5,2U1D,2.0,True,0.592,44,True,right,-0.16574,1.448,2.0147,0.5667,0.4392,0.8397,0.4005,A
357,0.49721,0.1,1,0.42262,0.32318,0.62151,357,2.58547,0.444,0.22374,0.72095,5,2D1U,1.0,True,0.341,43,True,left,0.2486,0.5583,1.0074,0.4491,1.6415,2.1158,0.4744,A
358,0.49721,0.1,1,0.20717,0.44749,0.51378,358,2.2623,0.186,0.09115,0.59665,5,2U1D,1.0,True,0.113,44,True,left,0.0,0.344,0.6683,0.3243,1.3189,1.5443,0.2254,A
359,0.49721,0.1,1,0.25689,0.20717,0.52207,359,2.04684,0.132,0.06629,0.5635,5,2U1D,1.0,True,0.451,44,False,left,-0.16574,0.3932,0.6851,0.2919,1.4269,1.4857,0.0588,A
360,0.49721,1.2,1,0.2486,0.23203,0.63808,360,2.33687,0.444,0.22374,0.72095,5,2D1U,2.0,False,0.349,43,True,right,0.2486,0.2163,1.0075,0.7913,1.4907,2.3081,0.8174,A
361,0.49721,1.2,1,0.3149,0.40605,0.73752,361,2.51918,0.132,0.06629,0.5635,5,2U1D,1.0,True,1.0,44,False,left,0.0,0.2832,0.9169,0.6337,1.624,2.1912,0.5672,A
362,0.49721,1.2,1,0.3729,0.23203,0.80382,362,2.65177,0.498,0.2486,0.74581,5,2D1U,1.0,True,0.467,43,False,left,-0.16574,0.3381,1.1544,0.8163,2.0132,2.4135,0.4003,A
363,0.49721,0.1,2,0.21546,0.26518,0.45577,363,1.97226,0.078,0.04143,0.53864,5,2U1D,2.0,True,0.639,44,False,right,0.2486,1.2915,1.6914,0.3999,0.2248,0.7004,0.4756,A
364,0.49721,0.1,2,0.25689,0.29832,0.76238,364,2.56061,0.498,0.2486,0.74581,5,2D1U,2.0,True,0.242,43,False,right,0.0,1.5183,2.1271,0.6088,0.3939,0.6182,0.2243,A
365,0.49721,0.1,1,0.27346,0.38948,0.86182,365,2.56061,0.078,0.04143,0.53864,5,2U1D,1.0,True,0.301,44,False,left,-0.16574,0.406,0.6725,0.2665,1.7567,1.8148,0.0581,A
366,0.49721,1.2,2,0.3729,0.44749,0.63808,366,2.46946,0.024,0.00829,0.51378,5,2U1D,2.0,True,0.492,44,False,right,0.2486,1.7056,2.1881,0.4824,0.2128,1.0299,0.817,A
367,0.49721,1.2,1,0.44749,0.3729,0.84525,367,2.8838,0.444,0.22374,0.72095,5,2D1U,2.0,False,0.111,44,True,right,0.0,0.418,1.2099,0.7919,2.0263,2.5935,0.5672,A
368,0.49721,1.2,2,0.33976,0.19888,0.48063,368,2.26229,0.498,0.2486,0.74581,5,2D1U,2.0,True,0.125,45,True,right,-0.16574,1.311,2.0278,0.7168,0.3942,0.7939,0.3997,A
369,0.49721,0.1,1,0.39776,0.32318,0.58836,369,2.55232,0.498,0.2486,0.74581,5,2D1U,2.0,False,0.497,45,True,right,0.2486,0.5303,1.0047,0.4744,1.6051,2.0799,0.4748,A
370,0.49721,0.1,2,0.35633,0.2486,0.67951,370,2.29543,0.024,0.00829,0.51378,5,2U1D,2.0,True,0.571,44,False,right,0.0,1.531,1.9056,0.3746,0.4886,0.714,0.2254,A
371,0.49721,0.1,2,0.21546,0.40605,0.66294,371,2.27058,-0.03,-0.01657,0.48892,5,2U1D,1.0,True,0.559,44,False,left,-0.16574,1.2891,1.6386,0.3495,0.4306,0.4896,0.059,A
372,0.49721,1.2,2,0.26518,0.38119,0.67951,372,2.31201,-0.03,-0.01657,0.48892,5,2U1D,1.0,True,0.558,44,False,left,0.2486,1.6445,2.1033,0.4588,0.1117,0.9278,0.8161,A
373,0.49721,1.2,1,0.34804,0.3149,0.46406,373,2.40317,0.552,0.27346,0.77896,5,2D1U,1.0,True,0.601,45,False,left,0.0,0.3182,1.1694,0.8512,1.6021,2.1688,0.5667,A
374,0.49721,1.2,1,0.30661,0.28175,0.50549,374,2.37002,0.552,0.27346,0.77896,5,2D1U,2.0,False,0.176,45,False,right,-0.16574,0.2708,1.121,0.8501,1.6795,2.0791,0.3996,A
375,0.49721,0.1,2,0.24032,0.2486,0.79553,375,2.29544,0.024,0.00829,0.51378,5,2U1D,2.0,True,0.451,44,False,right,0.2486,1.6589,2.0342,0.3753,0.2502,0.7254,0.4752,A
376,0.49721,0.1,2,0.34804,0.42262,0.88668,376,2.66833,0.024,0.00829,0.51378,5,2U1D,2.0,True,0.542,44,False,right,0.0,1.7351,2.1095,0.3744,0.4843,0.7094,0.2251,A
377,0.49721,0.1,2,0.38948,0.27346,0.69609,377,2.34516,-0.03,-0.01657,0.48892,5,2U1D,2.0,False,0.226,44,False,right,-0.16574,1.5021,1.8521,0.35,0.6113,0.6693,0.058,A
378,0.49721,1.2,2,0.36462,0.35633,0.58836,378,2.61034,0.606,0.30661,0.80382,5,2D1U,2.0,True,0.758,45,False,right,0.2486,1.6482,2.4228,0.7745,0.2059,1.0237,0.8178,A
379,0.49721,1.2,2,0.3149,0.26518,0.49721,379,2.03027,-0.084,-0.04143,0.45577,5,2U1D,1.0,True,0.42,45,True,left,0.0,1.3787,1.8045,0.4258,0.2787,0.8459,0.5671,A
380,0.49721,1.2,1,0.41434,0.4392,0.53035,380,2.33687,-0.084,-0.04143,0.45577,5,2U1D,2.0,True,0.141,45,True,right,-0.16574,0.3831,0.9073,0.5242,1.4906,1.8912,0.4006,A
381,0.49721,0.1,2,0.27346,0.36462,0.44749,381,2.0717,-0.03,-0.01657,0.48892,5,2U1D,1.0,True,0.242,46,True,left,0.2486,1.3441,1.6942,0.3502,0.2867,0.7609,0.4742,A
382,0.49721,0.1,1,0.38119,0.3729,0.60493,382,2.66005,0.606,0.30661,0.80382,5,2D1U,1.0,True,0.923,45,False,left,0.0,0.5142,1.0481,0.5339,1.7897,2.0145,0.2248,A
383,0.49721,0.1,2,0.33147,0.38948,0.67951,383,2.67663,0.552,0.27346,0.77896,5,2D1U,2.0,True,0.192,46,True,right,-0.16574,1.4213,2.0637,0.6424,0.5465,0.6047,0.0582,A
384,0.49721,1.2,2,0.28175,0.24032,0.78724,384,2.29544,-0.03,-0.01657,0.48892,5,2U1D,1.0,True,0.233,46,True,left,0.2486,1.7641,2.2222,0.4581,0.1222,0.9392,0.817,A
385,0.49721,1.2,1,0.33147,0.29004,0.58007,385,2.47775,0.552,0.27346,0.77896,5,2D1U,2.0,False,0.551,46,True,right,0.0,0.2976,1.1473,0.8497,1.6977,2.264,0.5663,A
386,0.49721,1.2,1,0.27346,0.29832,0.58007,386,2.16284,0.024,0.00829,0.51378,5,2U1D,2.0,False,0.107,46,False,right,-0.16574,0.2389,0.8226,0.5837,1.4565,1.8558,0.3994,A
387,0.49721,0.1,2,0.28175,0.44749,0.51378,387,2.54405,0.606,0.30661,0.80382,5,2D1U,2.0,True,0.474,47,True,right,0.2486,1.4207,2.0866,0.666,0.2951,0.7697,0.4747,A
388,0.49721,0.1,1,0.43091,0.36462,0.86182,388,2.6932,0.078,0.04143,0.53864,5,2U1D,1.0,True,0.351,47,True,left,0.0,0.5685,0.8352,0.2668,1.8353,2.0603,0.225,A
389,0.49721,0.1,1,0.41434,0.33147,0.48063,389,2.52747,0.606,0.30661,0.80382,5,2D1U,2.0,False,0.324,47,True,right,-0.16574,0.5485,1.0819,0.5334,1.7814,1.8402,0.0588,A
390,0.49721,1.2,2,0.29004,0.3729,0.78724,390,2.48603,0.078,0.04143,0.53864,5,2U1D,2.0,True,1.05,47,True,right,0.2486,1.7776,2.2851,0.5075,0.1357,0.9524,0.8167,A
391,0.49721,1.2,1,0.41434,0.28175,0.78724,391,2.49432,0.024,0.00829,0.51378,5,2U1D,2.0,False,0.938,48,True,right,0.0,0.3814,0.9655,0.5841,1.7234,2.2898,0.5663,A
392,0.49721,1.2,2,0.20717,0.4392,0.83696,392,2.51918,0.078,0.04143,0.53864,5,2U1D,1.0,False,0.291,49,True,left,-0.16574,1.5364,2.044,0.5076,0.262,0.6604,0.3984,A
393,0.49721,0.1,2,0.20717,0.3149,0.8121,393,2.39488,0.132,0.06629,0.5635,5,2U1D,2.0,True,0.282,49,False,right,0.2486,1.638,2.0642,0.4262,0.2129,0.6881,0.4751,A
394,0.49721,0.1,1,0.20717,0.3149,0.48063,394,2.32859,0.66,0.33147,0.82868,5,2D1U,1.0,True,0.34,47,False,left,0.0,0.339,0.8969,0.5579,1.5134,1.7382,0.2249,A
395,0.49721,0.1,1,0.40605,0.20717,0.61322,395,2.55233,0.66,0.33147,0.82868,5,2D1U,1.0,True,0.384,47,False,left,-0.16574,0.544,1.1019,0.5579,1.9353,1.9941,0.0588,A
396,0.49721,1.2,1,0.38119,0.33147,0.80382,396,2.57719,0.132,0.06629,0.5635,5,2U1D,2.0,False,0.177,49,False,right,0.2486,0.3524,0.9857,0.6333,1.6361,2.4523,0.8161,A
397,0.49721,1.2,2,0.35633,0.4392,0.4392,397,2.53576,0.606,0.30661,0.80382,5,2D1U,2.0,True,0.326,48,True,right,0.0,1.3689,2.1443,0.7754,0.3273,0.8945,0.5673,A
398,0.49721,1.2,2,0.29004,0.43091,0.70437,398,2.72635,0.606,0.30661,0.80382,5,2D1U,2.0,True,0.368,48,True,right,-0.16574,1.4865,2.2611,0.7746,0.3444,0.7443,0.3999,A
399,0.49721,0.1,2,0.27346,0.32318,0.63808,399,2.32858,0.186,0.09115,0.59665,5,2U1D,2.0,True,0.191,49,False,right,0.2486,1.5303,1.9877,0.4574,0.2799,0.7553,0.4754,A
400,0.49721,0.1,1,0.32318,0.32318,0.87011,400,2.79264,0.552,0.27346,0.77896,5,2D1U,1.0,True,0.299,48,False,left,0.0,0.4589,0.9675,0.5086,1.9761,2.2007,0.2246,A
401,0.49721,0.1,1,0.32318,0.29004,0.44749,401,2.15457,0.186,0.09115,0.59665,5,2U1D,1.0,True,0.404,49,False,left,-0.16574,0.4563,0.7812,0.3249,1.448,1.5066,0.0586,A
402,0.49721,1.2,2,0.25689,0.34804,0.77067,402,2.65177,0.552,0.27346,0.77896,5,2D1U,2.0,True,0.11,48,False,right,0.2486,1.7231,2.4736,0.7505,0.098,0.9146,0.8165,A
403,0.49721,1.2,2,0.43091,0.26518,0.77067,403,2.70978,0.498,0.2486,0.74581,5,2D1U,2.0,True,0.174,48,False,right,0.0,1.7736,2.4896,0.716,0.3975,0.9644,0.5669,A
404,0.49721,1.2,2,0.22374,0.44749,0.52207,404,2.25401,0.132,0.06629,0.5635,5,2U1D,2.0,True,0.512,50,True,right,-0.16574,1.2303,1.7631,0.5328,0.2723,0.6715,0.3992,A
405,0.49721,0.1,2,0.29004,0.3149,0.6878,405,2.53576,0.498,0.2486,0.74581,5,2D1U,2.0,True,0.25,48,False,right,0.2486,1.5959,2.204,0.608,0.2966,0.7713,0.4747,A
406,0.49721,0.1,1,0.24032,0.38119,0.77896,406,2.46118,0.132,0.06629,0.5635,5,2U1D,1.0,True,0.274,50,True,left,0.0,0.3721,0.6636,0.2915,1.5806,1.8061,0.2256,A
407,0.49721,0.1,1,0.21546,0.27346,0.82039,407,2.34516,0.078,0.04143,0.53864,5,2U1D,1.0,True,0.69,50,False,left,-0.16574,0.3473,0.6153,0.268,1.6559,1.7141,0.0582,A
408,0.49721,1.2,1,0.39776,0.23203,0.40605,408,2.254,0.444,0.22374,0.72095,5,2D1U,2.0,False,0.275,48,False,right,0.2486,0.366,1.158,0.7919,1.4086,2.2243,0.8157,A
409,0.49721,1.2,1,0.35633,0.35633,0.53864,409,2.49432,0.498,0.2486,0.74581,5,2D1U,2.0,False,0.112,49,True,right,0.0,0.3229,1.1401,0.8172,1.6489,2.2148,0.5659,A
410,0.49721,1.2,1,0.39776,0.33976,0.67123,410,2.68492,0.552,0.27346,0.77896,5,2D1U,1.0,True,0.393,49,False,left,-0.16574,0.3682,1.2184,0.8502,1.9436,2.3432,0.3996,A
411,0.49721,0.1,1,0.36462,0.36462,0.77896,411,2.78437,0.552,0.27346,0.77896,5,2D1U,1.0,True,0.258,49,False,left,0.2486,0.5024,1.0101,0.5077,1.8026,2.2771,0.4744,A
412,0.49721,0.1,2,0.39776,0.3729,0.69609,412,2.5026,0.078,0.04143,0.53864,5,2U1D,2.0,True,0.11,50,False,right,0.0,1.5876,1.9868,0.3991,0.5287,0.7537,0.225,A
413,0.49721,0.1,1,0.35633,0.30661,0.78724,413,2.46117,0.024,0.00829,0.51378,5,2U1D,1.0,True,0.308,50,False,left,-0.16574,0.4914,0.7327,0.2413,1.7408,1.7991,0.0583,A
414,0.49721,1.2,2,0.35633,0.28175,0.85354,414,2.73464,0.498,0.2486,0.74581,5,2D1U,2.0,True,0.926,50,True,right,0.2486,1.909,2.6253,0.7163,0.2005,1.0171,0.8166,A
415,0.49721,1.2,1,0.3729,0.23203,0.60493,415,2.22085,0.024,0.00829,0.51378,5,2U1D,2.0,False,0.275,50,False,right,0.0,0.3433,0.9263,0.583,1.502,2.068,0.5661,A
416,0.49721,1.2,2,0.27346,0.3149,0.42262,416,2.04683,0.078,0.04143,0.53864,5,2U1D,1.0,False,0.334,51,True,left,-0.16574,1.1855,1.6941,0.5086,0.3276,0.7272,0.3997,A
417,0.49721,0.1,1,0.42262,0.27346,0.55521,417,2.49431,0.498,0.2486,0.74581,5,2D1U,1.0,True,0.375,50,True,left,0.2486,0.5542,1.0295,0.4753,1.5963,2.072,0.4757,A
418,0.49721,0.1,2,0.21546,0.26518,0.43091,418,1.97226,0.132,0.06629,0.5635,5,2U1D,2.0,True,0.216,51,False,right,0.0,1.1451,1.5693,0.4242,0.3531,0.5785,0.2254,A
419,0.49721,0.1,1,0.3729,0.33976,0.66294,419,2.43631,0.132,0.06629,0.5635,5,2U1D,2.0,False,0.366,51,False,right,-0.16574,0.509,0.8005,0.2915,1.6836,1.7419,0.0583,A
420,0.49721,1.2,2,0.23203,0.3149,0.66294,420,2.30373,0.186,0.09115,0.59665,5,2U1D,1.0,False,0.393,51,False,left,0.2486,1.5863,2.1534,0.5671,0.0697,0.8872,0.8175,A
421,0.49721,1.2,1,0.38119,0.36462,0.8784,421,2.84237,0.444,0.22374,0.72095,5,2D1U,2.0,False,0.25,50,False,right,0.0,0.3475,1.1382,0.7907,1.9886,2.5556,0.5669,A
422,0.49721,1.2,1,0.41434,0.41434,0.72923,422,2.80093,0.498,0.2486,0.74581,5,2D1U,1.0,True,0.242,51,True,left,-0.16574,0.3844,1.2016,0.8172,1.9849,2.3842,0.3993,A
423,0.49721,0.1,1,0.33976,0.34804,0.79553,423,2.60205,0.24,0.11601,0.62151,5,2U1D,1.0,True,0.365,51,False,left,0.2486,0.4709,0.8216,0.3508,1.6299,2.1048,0.4749,A
424,0.49721,0.1,2,0.33147,0.43091,0.48063,424,2.48603,0.498,0.2486,0.74581,5,2D1U,2.0,True,0.488,51,True,right,0.0,1.3043,1.9124,0.6082,0.4627,0.688,0.2253,A
425,0.49721,0.1,1,0.24032,0.42262,0.78724,425,2.5689,0.24,0.11601,0.62151,5,2U1D,1.0,True,0.534,51,False,left,-0.16574,0.3735,0.7232,0.3498,1.7317,1.7899,0.0582,A
426,0.49721,1.2,1,0.2486,0.33147,0.59665,426,2.39488,0.444,0.22374,0.72095,5,2D1U,2.0,False,0.184,52,True,right,0.2486,0.2157,1.0074,0.7918,1.449,2.2652,0.8161,A
427,0.49721,1.2,1,0.3729,0.38119,0.66294,427,2.66005,0.498,0.2486,0.74581,5,2D1U,1.0,True,0.192,53,True,left,0.0,0.3387,1.1555,0.8169,1.7893,2.3551,0.5658,A
428,0.49721,1.2,2,0.3149,0.43091,0.86182,428,2.85065,0.498,0.2486,0.74581,5,2D1U,2.0,True,0.475,53,True,right,-0.16574,1.6684,2.3845,0.7162,0.368,0.7675,0.3995,A
429,0.49721,0.1,2,0.27346,0.32318,0.57179,429,2.38659,0.444,0.22374,0.72095,5,2D1U,2.0,True,0.307,54,True,right,0.2486,1.4613,2.0455,0.5843,0.2785,0.7533,0.4749,A
430,0.49721,0.1,2,0.35633,0.28175,0.7541,430,2.48604,0.186,0.09115,0.59665,5,2U1D,2.0,True,0.239,52,True,right,0.0,1.604,2.0629,0.4589,0.4874,0.7123,0.2249,A
431,0.49721,0.1,2,0.3149,0.43091,0.7541,431,2.71807,0.444,0.22374,0.72095,5,2D1U,2.0,True,0.183,54,True,right,-0.16574,1.4801,2.0639,0.5838,0.5301,0.5885,0.0583,A
432,0.49721,1.2,2,0.33147,0.2486,0.77896,432,2.45289,0.186,0.09115,0.59665,5,2U1D,1.0,False,0.35,52,True,left,0.2486,1.8052,2.371,0.5658,0.1716,0.9879,0.8164,A
433,0.49721,1.2,2,0.38948,0.28175,0.82868,433,2.61863,0.24,0.11601,0.62151,5,2U1D,2.0,True,0.158,53,True,right,0.0,1.7942,2.3854,0.5912,0.3604,0.9277,0.5673,A
434,0.49721,1.2,2,0.41434,0.35633,0.88668,434,2.85065,0.39,0.19888,0.69609,5,2D1U,2.0,True,0.198,54,False,right,-0.16574,1.7876,2.4537,0.666,0.4621,0.8626,0.4006,A
435,0.49721,0.1,2,0.26518,0.42262,0.65465,435,2.46117,0.24,0.11601,0.62151,5,2U1D,1.0,False,0.358,53,True,left,0.2486,1.5385,2.0213,0.4828,0.272,0.7463,0.4743,A
436,0.49721,0.1,1,0.26518,0.28175,0.78724,436,2.47775,0.294,0.14916,0.64637,5,2U1D,1.0,True,0.324,53,False,left,0.0,0.3989,0.7731,0.3742,1.6981,1.9233,0.2252,A
437,0.49721,0.1,1,0.33147,0.42262,0.57179,437,2.51918,0.39,0.19888,0.69609,5,2D1U,1.0,True,0.918,54,False,left,-0.16574,0.4645,0.8895,0.4249,1.6813,1.7396,0.0583,A
438,0.49721,1.2,2,0.20717,0.3729,0.72923,438,2.45288,0.294,0.14916,0.64637,5,2U1D,2.0,True,1.67,53,False,right,0.2486,1.6295,2.247,0.6175,0.046,0.8631,0.8171,A
439,0.49721,1.2,2,0.41434,0.38948,0.63808,439,2.56062,0.24,0.11601,0.62151,5,2U1D,1.0,False,0.284,54,True,left,0.0,1.6272,2.219,0.5918,0.3852,0.9522,0.5669,A
440,0.49721,1.2,1,0.21546,0.25689,0.58007,440,2.22086,0.336,0.16574,0.67123,5,2D1U,1.0,True,1.215,54,False,left,-0.16574,0.1815,0.9232,0.7417,1.5567,1.9569,0.4002,A
441,0.49721,0.1,1,0.38119,0.36462,0.53035,441,2.41974,0.294,0.14916,0.64637,5,2U1D,2.0,False,0.325,55,True,right,0.2486,0.5144,0.8889,0.3746,1.4312,1.9059,0.4747,A
442,0.49721,0.1,2,0.35633,0.36462,0.66294,442,2.55233,0.336,0.16574,0.67123,5,2D1U,2.0,True,0.35,54,False,right,0.0,1.5155,2.0491,0.5337,0.4905,0.7156,0.2251,A
443,0.49721,0.1,2,0.42262,0.36462,0.66294,443,2.61862,0.348,0.17402,0.67123,5,2U1D,2.0,True,0.542,55,False,right,-0.16574,1.5028,2.0371,0.5343,0.6444,0.703,0.0586,A
444,0.49721,1.2,1,0.38948,0.19888,0.63808,444,2.39488,0.348,0.17402,0.67123,5,2U1D,2.0,False,0.192,55,False,right,0.2486,0.3608,1.1016,0.7408,1.5852,2.4102,0.8249,A
445,0.49721,1.2,2,0.2486,0.27346,0.58007,445,2.23742,0.282,0.14087,0.63808,5,2D1U,2.0,True,0.112,54,False,right,0.0,1.4019,2.0096,0.6077,0.2181,0.7856,0.5675,A
446,0.49721,1.2,2,0.19888,0.4392,0.49721,446,2.33687,0.402,0.19888,0.70437,5,2U1D,2.0,True,0.351,55,False,right,-0.16574,1.1808,1.8563,0.6755,0.2479,0.6478,0.3999,A
447,0.49721,0.1,1,0.4392,0.33976,0.7541,447,2.66835,0.282,0.14087,0.63808,5,2D1U,1.0,True,0.352,54,False,left,0.2486,0.5727,0.9398,0.3671,1.7061,2.181,0.4749,A
448,0.49721,0.1,2,0.32318,0.43091,0.73752,448,2.60204,0.228,0.11601,0.61322,5,2D1U,2.0,True,0.251,54,False,right,0.0,1.5535,2.0283,0.4748,0.4542,0.679,0.2248,A
449,0.49721,0.1,1,0.23203,0.33147,0.8784,449,2.55233,0.228,0.11601,0.61322,5,2D1U,1.0,True,0.776,54,False,left,-0.16574,0.3643,0.7049,0.3405,1.805,1.8632,0.0583,A
450,0.49721,1.2,2,0.4392,0.29832,0.53864,450,2.36173,0.174,0.08287,0.58836,5,2D1U,1.0,False,10.767,54,False,left,0.2486,1.6757,2.2344,0.5588,0.2847,1.1011,0.8163,A
451,0.49721,1.2,2,0.34804,0.29832,0.76238,451,2.61032,0.402,0.19888,0.70437,5,2U1D,1.0,False,0.426,55,False,left,0.0,1.6809,2.356,0.6751,0.3139,0.8802,0.5663,A
452,0.49721,1.2,2,0.24032,0.29004,0.7541,452,2.39489,0.228,0.11601,0.61322,5,2D1U,2.0,True,0.301,55,True,right,-0.16574,1.4829,2.0662,0.5833,0.2904,0.6905,0.4001,A
453,0.49721,0.1,1,0.20717,0.3149,0.77067,453,2.51918,0.456,0.23203,0.72923,5,2U1D,1.0,True,0.408,55,False,left,0.2486,0.3382,0.7963,0.4581,1.58,2.0544,0.4744,A
454,0.49721,0.1,1,0.41434,0.22374,0.46406,454,2.21257,0.228,0.11601,0.61322,5,2D1U,1.0,True,0.442,55,True,left,0.0,0.5468,0.8887,0.3419,1.4884,1.7147,0.2263,A
455,0.49721,0.1,2,0.32318,0.34804,0.77067,455,2.66833,0.456,0.23203,0.72923,5,2U1D,2.0,True,0.266,55,False,right,-0.16574,1.5056,2.0974,0.5918,0.5398,0.5986,0.0588,A
456,0.49721,1.2,1,0.19888,0.36462,0.77067,456,2.41974,0.174,0.08287,0.58836,5,2D1U,2.0,False,0.283,56,True,right,0.2486,0.1632,0.8219,0.6587,1.4392,2.2557,0.8165,A
457,0.49721,1.2,1,0.23203,0.33976,0.89497,457,2.66834,0.402,0.19888,0.70437,5,2U1D,1.0,True,0.333,56,True,left,0.0,0.1951,0.9693,0.7742,1.8361,2.4034,0.5673,A
458,0.49721,1.2,1,0.25689,0.36462,0.76238,458,2.49432,0.228,0.11601,0.61322,5,2D1U,2.0,False,0.551,57,True,right,-0.16574,0.2278,0.9107,0.683,1.728,2.1277,0.3997,A
459,0.49721,0.1,2,0.35633,0.34804,0.77067,459,2.61033,0.282,0.14087,0.63808,5,2D1U,2.0,True,0.301,57,False,right,0.2486,1.7535,2.2528,0.4993,0.3696,0.8453,0.4757,A
460,0.49721,0.1,2,0.33147,0.35633,0.79553,460,2.68491,0.402,0.19888,0.70437,5,2U1D,2.0,True,0.242,56,True,right,0.0,1.6235,2.1888,0.5653,0.4645,0.6897,0.2252,A
461,0.49721,0.1,1,0.30661,0.38948,0.8121,461,2.64348,0.282,0.14087,0.63808,5,2D1U,1.0,True,0.859,57,False,left,-0.16574,0.4388,0.8049,0.3661,1.838,1.8968,0.0588,A
462,0.49721,1.2,2,0.22374,0.23203,0.44749,462,2.0717,0.348,0.17402,0.67123,5,2U1D,2.0,True,0.276,56,False,right,0.2486,1.3691,2.0098,0.6406,0.0681,0.8847,0.8165,A
463,0.49721,1.2,1,0.34804,0.38119,0.4392,463,2.27886,0.228,0.11601,0.61322,5,2D1U,2.0,False,0.233,58,True,right,0.0,0.3141,0.9979,0.6838,1.4058,1.9731,0.5673,A
464,0.49721,1.2,1,0.4392,0.24032,0.48063,464,2.32859,0.348,0.17402,0.67123,5,2U1D,1.0,True,0.35,56,False,left,-0.16574,0.4066,1.1488,0.7422,1.6824,2.082,0.3995,A
465,0.49721,0.1,2,0.30661,0.23203,0.66294,465,2.33687,0.282,0.14087,0.63808,5,2D1U,2.0,True,0.25,59,True,right,0.2486,1.5886,2.0883,0.4997,0.3135,0.7888,0.4753,A
466,0.49721,0.1,1,0.29004,0.33976,0.49721,466,2.2623,0.282,0.14087,0.63808,5,2D1U,1.0,True,0.25,59,True,left,0.0,0.4201,0.7871,0.3669,1.42,1.6451,0.2251,A
467,0.49721,0.1,2,0.29832,0.41434,0.49721,467,2.3203,0.228,0.11601,0.61322,5,2D1U,2.0,True,0.425,60,True,right,-0.16574,1.2043,1.6787,0.4744,0.5119,0.5706,0.0587,A
468,0.49721,1.2,2,0.4392,0.39776,0.65465,468,2.63519,0.294,0.14916,0.64637,5,2U1D,2.0,True,0.24,56,False,right,0.2486,1.7875,2.402,0.6145,0.2853,1.0936,0.8082,A
469,0.49721,1.2,1,0.19888,0.4392,0.78724,469,2.5689,0.294,0.14916,0.64637,5,2U1D,2.0,False,0.209,56,False,right,0.0,0.165,0.8823,0.7173,1.6399,2.2073,0.5674,A
470,0.49721,1.2,1,0.39776,0.21546,0.8121,470,2.53575,0.228,0.11601,0.61322,5,2D1U,1.0,True,0.317,60,True,left,-0.16574,0.3621,1.0447,0.6826,1.9121,2.3119,0.3998,A
471,0.49721,0.1,2,0.3149,0.41434,0.74581,471,2.64349,0.348,0.17402,0.67123,5,2U1D,2.0,True,0.113,57,True,right,0.2486,1.6796,2.2124,0.5328,0.3209,0.7968,0.4759,A
472,0.49721,0.1,2,0.39776,0.40605,0.53864,472,2.51089,0.348,0.17402,0.67123,5,2U1D,2.0,True,1.584,57,True,right,0.0,1.432,1.9654,0.5334,0.5331,0.7573,0.2243,A
473,0.49721,0.1,2,0.4392,0.33147,0.50549,473,2.36173,0.174,0.08287,0.58836,5,2D1U,2.0,True,0.15,60,False,right,-0.16574,1.358,1.8081,0.45,0.6581,0.7163,0.0582,A
474,0.49721,1.2,1,0.21546,0.38119,0.6878,474,2.42803,0.294,0.14916,0.64637,5,2U1D,2.0,False,0.958,58,True,right,0.2486,0.1813,0.8975,0.7162,1.4312,2.2478,0.8166,A
475,0.49721,1.2,1,0.38119,0.43091,0.60493,475,2.58547,0.348,0.17402,0.67123,5,2U1D,1.0,True,0.333,59,True,left,0.0,0.352,1.0936,0.7416,1.6686,2.2351,0.5665,A
476,0.49721,1.2,2,0.24032,0.38119,0.61322,476,2.3203,0.174,0.08287,0.58836,5,2D1U,2.0,True,0.409,60,False,right,-0.16574,1.339,1.897,0.558,0.2886,0.6892,0.4006,A
477,0.49721,0.1,1,0.3729,0.21546,0.57179,477,2.32859,0.348,0.17402,0.67123,5,2U1D,1.0,True,0.216,59,True,left,0.2486,0.5048,0.9044,0.3996,1.4881,1.9629,0.4748,A
478,0.49721,0.1,2,0.26518,0.41434,0.89497,478,2.71807,0.294,0.14916,0.64637,5,2U1D,2.0,True,0.11,60,True,right,0.0,1.6545,2.1618,0.5073,0.3953,0.6201,0.2248,A
479,0.49721,0.1,1,0.42262,0.44749,0.72095,479,2.65177,0.12,0.05801,0.5635,5,2D1U,1.0,True,0.617,60,False,left,-0.16574,0.5549,0.8467,0.2918,1.7887,1.847,0.0583,A
480,0.49721,1.2,2,0.39776,0.29832,0.65465,480,2.49431,0.294,0.14916,0.64637,5,2U1D,2.0,True,0.41,60,True,right,0.2486,1.7492,2.3648,0.6156,0.2412,1.0573,0.8161,A
481,0.49721,1.2,1,0.20717,0.24032,0.44749,481,2.0137,0.24,0.11601,0.62151,5,2U1D,2.0,False,0.516,60,False,right,0.0,0.1697,0.8625,0.6928,1.278,1.8456,0.5676,A
482,0.49721,1.2,2,0.21546,0.34804,0.40605,482,2.11313,0.294,0.14916,0.64637,5,2U1D,2.0,True,0.146,61,True,right,-0.16574,1.1043,1.7209,0.6166,0.2622,0.6628,0.4006,A
483,0.49721,0.1,2,0.24032,0.22374,0.43091,483,1.95568,0.12,0.05801,0.5635,5,2D1U,2.0,True,0.184,60,False,right,0.2486,1.2929,1.7172,0.4243,0.251,0.7258,0.4747,A
484,0.49721,0.1,2,0.30661,0.3729,0.42262,484,2.12969,0.066,0.03315,0.53035,5,2D1U,2.0,True,0.491,60,False,right,0.0,1.2225,1.6153,0.3929,0.4393,0.6642,0.2248,A
485,0.49721,0.1,2,0.30661,0.41434,0.88668,485,2.63519,0.066,0.03315,0.53035,5,2D1U,1.0,False,0.268,60,False,left,-0.16574,1.6052,1.9969,0.3916,0.521,0.5794,0.0584,A
486,0.49721,1.2,1,0.38948,0.41434,0.72095,486,2.66835,0.294,0.14916,0.64637,5,2U1D,2.0,False,1.027,61,True,right,0.2486,0.3585,1.0756,0.7171,1.6426,2.4596,0.817,A
487,0.49721,1.2,1,0.23203,0.39776,0.82868,487,2.51918,0.12,0.05801,0.5635,5,2D1U,2.0,False,0.218,61,True,right,0.0,0.2007,0.8351,0.6344,1.6342,2.2013,0.5671,A
488,0.49721,1.2,1,0.29832,0.43091,0.46406,488,2.36173,0.348,0.17402,0.67123,5,2U1D,1.0,True,0.151,61,False,left,-0.16574,0.2686,1.0097,0.7411,1.5265,1.9263,0.3998,A
489,0.49721,0.1,2,0.21546,0.4392,0.69609,489,2.43632,0.174,0.08287,0.58836,5,2D1U,2.0,True,0.392,61,False,right,0.2486,1.5286,1.9786,0.45,0.2198,0.6951,0.4753,A
490,0.49721,0.1,2,0.39776,0.21546,0.55521,490,2.33687,0.348,0.17402,0.67123,5,2U1D,2.0,True,0.417,61,False,right,0.0,1.4522,1.9846,0.5324,0.535,0.76,0.225,A
491,0.49721,0.1,2,0.4392,0.26518,0.62979,491,2.41974,0.174,0.08287,0.58836,5,2D1U,2.0,True,1.183,61,False,right,-0.16574,1.4795,1.9288,0.4493,0.6535,0.712,0.0585,A
492,0.49721,1.2,1,0.24032,0.43091,0.80382,492,2.53576,0.12,0.05801,0.5635,5,2D1U,1.0,True,0.409,62,True,left,0.2486,0.2067,0.8402,0.6335,1.4905,2.3065,0.816,A
493,0.49721,1.2,1,0.41434,0.42262,0.60493,493,2.58547,0.294,0.14916,0.64637,5,2U1D,2.0,False,0.111,62,True,right,0.0,0.3848,1.1013,0.7165,1.6763,2.2432,0.567,A
494,0.49721,1.2,1,0.38119,0.33147,0.77896,494,2.55233,0.12,0.05801,0.5635,5,2D1U,2.0,False,0.233,62,True,right,-0.16574,0.3528,0.9858,0.633,1.8187,2.2199,0.4012,A
495,0.49721,0.1,1,0.25689,0.2486,0.83696,495,2.51089,0.348,0.17402,0.67123,5,2U1D,2.0,False,0.158,63,True,right,0.2486,0.3918,0.7913,0.3995,1.6414,2.1174,0.4761,A
496,0.49721,0.1,2,0.22374,0.38119,0.64637,496,2.33687,0.174,0.08287,0.58836,5,2D1U,1.0,False,0.458,63,True,left,0.0,1.3655,1.8144,0.4488,0.3559,0.5806,0.2247,A
497,0.49721,0.1,1,0.41434,0.2486,0.46406,497,2.23743,0.228,0.11601,0.61322,5,2D1U,1.0,True,0.283,63,False,left,-0.16574,0.5491,0.8918,0.3427,1.5741,1.6324,0.0583,A
498,0.49721,1.2,1,0.41434,0.3149,0.40605,498,2.24572,0.228,0.11601,0.61322,5,2D1U,1.0,True,0.206,63,False,left,0.2486,0.3801,1.063,0.6829,1.3134,2.1302,0.8168,A
499,0.49721,1.2,2,0.29004,0.34804,0.6878,499,2.52746,0.402,0.19888,0.70437,5,2U1D,2.0,True,0.274,63,False,right,0.0,1.5479,2.2235,0.6757,0.2564,0.8225,0.5661,A
500,0.49721,1.2,1,0.38948,0.35633,0.58836,500,2.53575,0.402,0.19888,0.70437,5,2U1D,1.0,True,0.209,63,False,left,-0.16574,0.3599,1.1356,0.7757,1.7761,2.1767,0.4005,A
501,0.49721,0.1,1,0.19888,0.39776,0.74581,501,2.42802,0.174,0.08287,0.58836,5,2D1U,1.0,True,0.111,64,True,left,0.2486,0.3302,0.6466,0.3164,1.4053,1.8799,0.4747,A
502,0.49721,0.1,2,0.28175,0.29832,0.7541,502,2.50261,0.348,0.17402,0.67123,5,2U1D,2.0,True,0.55,64,True,right,0.0,1.531,2.0641,0.5331,0.4148,0.6389,0.2242,A
503,0.49721,0.1,2,0.33976,0.26518,0.43091,503,2.12142,0.174,0.08287,0.58836,5,2D1U,2.0,True,0.23,64,True,right,-0.16574,1.179,1.6292,0.4501,0.5535,0.6125,0.059,A
504,0.49721,1.2,1,0.4392,0.29832,0.69609,504,2.60205,0.348,0.17402,0.67123,5,2U1D,1.0,True,0.308,64,True,left,0.2486,0.4107,1.1527,0.742,1.694,2.5113,0.8173,A
505,0.49721,1.2,2,0.33976,0.43091,0.67951,505,2.59376,0.294,0.14916,0.64637,5,2U1D,2.0,True,0.116,64,False,right,0.0,1.5943,2.2107,0.6164,0.31,0.8773,0.5673,A
506,0.49721,1.2,1,0.28175,0.33976,0.76238,506,2.4446,0.12,0.05801,0.5635,5,2D1U,2.0,False,0.175,64,False,right,-0.16574,0.252,0.8859,0.6339,1.7021,2.1031,0.401,A
507,0.49721,0.1,2,0.30661,0.32318,0.82868,507,2.60205,0.294,0.14916,0.64637,5,2U1D,1.0,False,1.008,64,False,left,0.2486,1.7537,2.262,0.5083,0.3123,0.787,0.4747,A
508,0.49721,0.1,1,0.36462,0.41434,0.82868,508,2.77608,0.348,0.17402,0.67123,5,2U1D,1.0,True,0.401,65,True,left,0.0,0.5013,0.9019,0.4006,1.8676,2.0933,0.2257,A
509,0.49721,0.1,1,0.3149,0.35633,0.62151,509,2.37831,0.174,0.08287,0.58836,5,2D1U,1.0,True,0.392,65,True,left,-0.16574,0.4523,0.7698,0.3175,1.6115,1.6696,0.0582,A
510,0.49721,1.2,2,0.35633,0.36462,0.84525,510,2.73464,0.348,0.17402,0.67123,5,2U1D,1.0,False,1.274,65,True,left,0.2486,1.8995,2.5419,0.6423,0.1996,1.0168,0.8172,A
511,0.49721,1.2,1,0.21546,0.3729,0.78724,511,2.57718,0.402,0.19888,0.70437,5,2U1D,1.0,True,0.29,65,False,left,0.0,0.1806,0.956,0.7755,1.7137,2.2809,0.5672,A
512,0.49721,1.2,2,0.27346,0.38119,0.84525,512,2.70148,0.402,0.19888,0.70437,5,2U1D,2.0,True,0.176,65,False,right,-0.16574,1.6062,2.2809,0.6747,0.3222,0.7223,0.4001,A
513,0.49721,0.1,1,0.29004,0.21546,0.55521,513,2.14628,0.174,0.08287,0.58836,5,2D1U,1.0,True,0.61,65,True,left,0.2486,0.4224,0.7393,0.3169,1.3056,1.7813,0.4757,A
514,0.49721,0.1,1,0.20717,0.3729,0.57179,514,2.3203,0.348,0.17402,0.67123,5,2U1D,1.0,True,0.45,66,True,left,0.0,0.3365,0.7369,0.4004,1.4454,1.6697,0.2243,A
515,0.49721,0.1,2,0.4392,0.3149,0.69609,515,2.5109,0.12,0.05801,0.5635,5,2D1U,2.0,True,0.113,66,True,right,-0.16574,1.5475,1.9721,0.4247,0.6557,0.714,0.0583,A
516,0.49721,1.2,2,0.34804,0.25689,0.66294,516,2.43631,0.348,0.17402,0.67123,5,2U1D,2.0,True,0.233,66,True,right,0.2486,1.7066,2.3488,0.6422,0.1899,1.0064,0.8166,A
517,0.49721,1.2,2,0.3149,0.39776,0.82868,517,2.60205,0.12,0.05801,0.5635,5,2D1U,2.0,True,0.184,66,True,right,0.0,1.7133,2.2468,0.5335,0.2803,0.8476,0.5673,A
518,0.49721,1.2,1,0.3149,0.3149,0.7541,518,2.52748,0.294,0.14916,0.64637,5,2U1D,1.0,True,0.4,66,False,left,-0.16574,0.2845,1.0011,0.7167,1.8095,2.2097,0.4002,A
519,0.49721,0.1,1,0.40605,0.36462,0.69609,519,2.61034,0.294,0.14916,0.64637,5,2U1D,1.0,True,0.273,66,False,left,0.2486,0.54,0.9159,0.3759,1.6234,2.099,0.4756,A
520,0.49721,0.1,1,0.23203,0.26518,0.59665,520,2.12142,0.066,0.03315,0.53035,5,2D1U,1.0,True,0.342,66,False,left,0.0,0.3694,0.6275,0.2581,1.3606,1.5856,0.225,A
521,0.49721,0.1,2,0.26518,0.33976,0.83696,521,2.56062,0.24,0.11601,0.62151,5,2U1D,2.0,True,0.283,66,False,right,-0.16574,1.5128,1.9967,0.4838,0.4793,0.5377,0.0584,A
522,0.49721,1.2,2,0.29004,0.40605,0.83696,522,2.65177,0.24,0.11601,0.62151,5,2U1D,1.0,False,0.175,66,False,left,0.2486,1.8257,2.4173,0.5916,0.1348,0.9512,0.8164,A
523,0.49721,1.2,2,0.38119,0.21546,0.82039,523,2.4446,0.066,0.03315,0.53035,5,2D1U,2.0,True,0.25,66,False,right,0.0,1.7754,2.2744,0.4991,0.3494,0.9166,0.5672,A
524,0.49721,1.2,2,0.29832,0.40605,0.45577,524,2.16284,0.012,0.00829,0.50549,5,2D1U,2.0,True,0.134,66,False,right,-0.16574,1.2389,1.7136,0.4747,0.3472,0.7477,0.4006,A
525,0.49721,0.1,2,0.39776,0.29832,0.40605,525,2.24571,0.294,0.14916,0.64637,5,2U1D,2.0,True,0.566,67,True,right,0.2486,1.4267,1.9346,0.5079,0.4094,0.884,0.4746,A
526,0.49721,0.1,2,0.3729,0.30661,0.82039,526,2.64348,0.294,0.14916,0.64637,5,2U1D,2.0,True,0.318,67,True,right,0.0,1.6927,2.2014,0.5088,0.5093,0.734,0.2248,A
527,0.49721,0.1,1,0.43091,0.24032,0.47235,527,2.2623,0.24,0.11601,0.62151,5,2U1D,1.0,True,0.442,68,True,left,-0.16574,0.5665,0.9168,0.3503,1.6078,1.6662,0.0584,A
528,0.49721,1.2,2,0.3729,0.33976,0.64637,528,2.47775,0.24,0.11601,0.62151,5,2U1D,2.0,True,0.175,68,True,right,0.2486,1.7191,2.3109,0.5917,0.2193,1.036,0.8167,A
529,0.49721,1.2,2,0.2486,0.3729,0.62151,529,2.24571,0.012,0.00829,0.50549,5,2D1U,2.0,True,0.192,66,False,right,0.0,1.4433,1.9176,0.4744,0.2179,0.7842,0.5664,A
530,0.49721,1.2,2,0.3149,0.39776,0.53035,530,2.33687,0.186,0.09115,0.59665,5,2U1D,2.0,True,0.292,68,False,right,-0.16574,1.3297,1.8961,0.5663,0.3629,0.7637,0.4008,A
531,0.49721,0.1,2,0.3149,0.22374,0.49721,531,2.01369,-0.042,-0.02486,0.48063,5,2D1U,2.0,False,0.368,66,False,right,0.2486,1.4357,1.7772,0.3415,0.3272,0.8025,0.4753,A
532,0.49721,0.1,2,0.43091,0.39776,0.8121,532,2.59375,-0.096,-0.04972,0.45577,5,2D1U,1.0,True,1.025,67,True,left,0.0,1.7442,2.061,0.3168,0.569,0.794,0.225,A
533,0.49721,0.1,2,0.41434,0.34804,0.41434,533,2.27058,0.186,0.09115,0.59665,5,2U1D,2.0,True,0.142,68,False,right,-0.16574,1.2445,1.7029,0.4583,0.6359,0.6943,0.0584,A
534,0.49721,1.2,1,0.33976,0.42262,0.74581,534,2.5689,0.132,0.06629,0.5635,5,2U1D,2.0,False,0.111,68,False,right,0.2486,0.311,0.9437,0.6327,1.5361,2.3519,0.8158,A
535,0.49721,1.2,1,0.24032,0.21546,0.67951,535,2.08827,-0.096,-0.04972,0.45577,5,2D1U,2.0,True,0.292,67,True,right,0.0,0.2068,0.7319,0.525,1.3826,1.9485,0.566,A
536,0.49721,1.2,2,0.40605,0.25689,0.8121,536,2.45288,-0.042,-0.02486,0.48063,5,2D1U,2.0,False,0.184,68,True,right,-0.16574,1.7053,2.1548,0.4496,0.4554,0.8554,0.3999,A
537,0.49721,0.1,1,0.28175,0.43091,0.67951,537,2.34515,-0.096,-0.04972,0.45577,5,2D1U,2.0,True,0.449,69,True,right,0.2486,0.4149,0.5992,0.1843,1.29,1.7657,0.4757,A
538,0.49721,0.1,1,0.36462,0.20717,0.53035,538,2.196,0.186,0.09115,0.59665,5,2U1D,1.0,True,0.412,69,True,left,0.0,0.4946,0.8199,0.3254,1.4869,1.7121,0.2252,A
539,0.49721,0.1,2,0.20717,0.29004,0.67123,539,2.2623,0.186,0.09115,0.59665,5,2U1D,1.0,False,0.239,69,True,left,-0.16574,1.2896,1.7479,0.4583,0.4238,0.4821,0.0583,A
540,0.49721,1.2,2,0.38119,0.2486,0.60493,540,2.35344,0.24,0.11601,0.62151,5,2U1D,1.0,False,0.434,69,False,left,0.2486,1.6843,2.2752,0.5909,0.2253,1.0422,0.8169,A
541,0.49721,1.2,2,0.39776,0.2486,0.77896,541,2.3783,-0.096,-0.04972,0.45577,5,2D1U,2.0,False,0.792,69,True,right,0.0,1.7513,2.1762,0.4249,0.3679,0.9345,0.5666,A
542,0.49721,1.2,1,0.38948,0.25689,0.58836,542,2.37831,0.294,0.14916,0.64637,5,2U1D,1.0,True,0.267,69,False,left,-0.16574,0.356,1.0721,0.7161,1.7142,2.1139,0.3997,A
543,0.49721,0.1,2,0.29004,0.28175,0.67123,543,2.16285,-0.15,-0.07458,0.42262,5,2D1U,1.0,True,0.367,69,False,left,0.2486,1.5819,1.8658,0.2839,0.299,0.7735,0.4745,A
544,0.49721,0.1,1,0.20717,0.33147,0.69609,544,2.37831,0.294,0.14916,0.64637,5,2U1D,1.0,True,0.301,69,False,left,0.0,0.3384,0.7135,0.3752,1.5473,1.7721,0.2248,A
545,0.49721,0.1,2,0.41434,0.43091,0.48892,545,2.45289,0.24,0.11601,0.62151,5,2U1D,2.0,True,0.701,70,True,right,-0.16574,1.3123,1.7947,0.4824,0.6285,0.6867,0.0582,A
546,0.49721,1.2,2,0.21546,0.27346,0.63808,546,2.04683,-0.15,-0.07458,0.42262,5,2D1U,1.0,True,0.518,69,False,left,0.2486,1.5488,1.9402,0.3914,0.0567,0.8739,0.8172,A
547,0.49721,1.2,1,0.38948,0.42262,0.42262,547,2.35344,0.24,0.11601,0.62151,5,2U1D,1.0,True,0.333,70,True,left,0.0,0.3591,1.051,0.6919,1.4425,2.0095,0.567,A
548,0.49721,1.2,2,0.38119,0.32318,0.6878,548,2.34515,-0.096,-0.04972,0.45577,5,2D1U,2.0,False,0.17,70,True,right,-0.16574,1.5553,1.9807,0.4254,0.431,0.8309,0.4,A
549,0.49721,0.1,1,0.26518,0.21546,0.44749,549,2.02199,0.186,0.09115,0.59665,5,2U1D,1.0,True,0.459,70,False,left,0.2486,0.4018,0.7275,0.3257,1.1852,1.66,0.4748,A
550,0.49721,0.1,2,0.41434,0.27346,0.63808,550,2.41974,0.186,0.09115,0.59665,5,2U1D,2.0,True,0.376,70,False,right,0.0,1.5449,2.0035,0.4586,0.5449,0.7699,0.225,A
551,0.49721,0.1,1,0.33976,0.24032,0.71266,551,2.21257,-0.15,-0.07458,0.42262,5,2D1U,2.0,True,0.263,71,True,right,-0.16574,0.4735,0.6237,0.1502,1.5563,1.6151,0.0588,A
552,0.49721,1.2,2,0.4392,0.4392,0.62151,552,2.56062,0.132,0.06629,0.5635,5,2U1D,2.0,True,0.259,70,False,right,0.2486,1.7548,2.2884,0.5336,0.2799,1.0968,0.8169,A
553,0.49721,1.2,2,0.34804,0.35633,0.55521,553,2.17941,-0.15,-0.07458,0.42262,5,2D1U,2.0,False,0.243,71,True,right,0.0,1.4725,1.8646,0.392,0.3142,0.8814,0.5671,A
554,0.49721,1.2,2,0.38948,0.41434,0.84525,554,2.54404,-0.204,-0.09944,0.39776,5,2D1U,1.0,True,1.884,71,False,left,-0.16574,1.7232,2.0912,0.368,0.4399,0.8401,0.4002,A
555,0.49721,0.1,1,0.35633,0.38119,0.46406,555,2.26229,0.132,0.06629,0.5635,5,2U1D,1.0,True,0.301,70,False,left,0.2486,0.4936,0.7845,0.2909,1.2597,1.7342,0.4745,A
556,0.49721,0.1,1,0.26518,0.43091,0.42262,556,2.15456,0.078,0.04143,0.53864,5,2U1D,2.0,False,0.11,70,False,right,0.0,0.3954,0.662,0.2667,1.2198,1.4452,0.2254,A
557,0.49721,0.1,2,0.3729,0.25689,0.67951,557,2.37001,0.132,0.06629,0.5635,5,2U1D,2.0,True,0.291,71,True,right,-0.16574,1.4663,1.8912,0.4249,0.5909,0.649,0.0581,A
558,0.49721,1.2,2,0.33976,0.34804,0.78724,558,2.37001,-0.204,-0.09944,0.39776,5,2D1U,1.0,True,0.25,71,False,left,0.2486,1.8212,2.1877,0.3665,0.1794,0.9957,0.8163,A
559,0.49721,1.2,2,0.3149,0.33147,0.65465,559,2.22085,-0.15,-0.07458,0.42262,5,2D1U,1.0,True,0.408,72,True,left,0.0,1.5429,1.9343,0.3914,0.2841,0.8507,0.5666,A
560,0.49721,1.2,2,0.28175,0.38948,0.51378,560,2.24572,0.132,0.06629,0.5635,5,2U1D,1.0,False,0.314,71,True,left,-0.16574,1.2808,1.8148,0.534,0.3306,0.7314,0.4008,A
561,0.49721,0.1,2,0.29832,0.2486,0.47235,561,1.9391,-0.15,-0.07458,0.42262,5,2D1U,1.0,True,0.374,72,True,left,0.2486,1.3906,1.6744,0.2837,0.3071,0.7822,0.4751,A
562,0.49721,0.1,1,0.33976,0.2486,0.86182,562,2.54404,0.186,0.09115,0.59665,5,2U1D,1.0,True,0.225,71,False,left,0.0,0.4767,0.8017,0.325,1.8017,2.0273,0.2256,A
563,0.49721,0.1,1,0.38119,0.38948,0.73752,563,2.60205,0.186,0.09115,0.59665,5,2U1D,1.0,True,0.167,71,False,left,-0.16574,0.5143,0.8396,0.3253,1.7977,1.856,0.0583,A
564,0.49721,1.2,2,0.33147,0.44749,0.57179,564,2.41146,0.132,0.06629,0.5635,5,2U1D,1.0,False,0.111,72,True,left,0.2486,1.5978,2.1315,0.5337,0.1731,0.9898,0.8166,A
565,0.49721,1.2,2,0.33976,0.38948,0.62979,565,2.31201,-0.096,-0.04972,0.45577,5,2D1U,2.0,False,0.234,72,False,right,0.0,1.543,1.9687,0.4257,0.31,0.8763,0.5663,A
566,0.49721,1.2,1,0.3729,0.41434,0.58836,566,2.29543,-0.15,-0.07458,0.42262,5,2D1U,1.0,False,0.387,73,True,left,-0.16574,0.3375,0.8287,0.4912,1.471,1.8714,0.4005,A
567,0.49721,0.1,1,0.21546,0.29832,0.40605,567,1.8148,-0.204,-0.09944,0.39776,5,2D1U,2.0,True,0.143,73,False,right,0.2486,0.3481,0.4726,0.1245,0.889,1.3646,0.4756,A
568,0.49721,0.1,2,0.41434,0.23203,0.72095,568,2.46118,0.186,0.09115,0.59665,5,2U1D,2.0,True,0.276,73,True,right,0.0,1.6308,2.0898,0.459,0.547,0.7726,0.2256,A
569,0.49721,0.1,2,0.3729,0.26518,0.52207,569,2.25401,0.186,0.09115,0.59665,5,2U1D,2.0,True,0.224,73,True,right,-0.16574,1.3033,1.7619,0.4586,0.5871,0.6457,0.0586,A
570,0.49721,1.2,1,0.42262,0.42262,0.73752,570,2.64347,0.132,0.06629,0.5635,5,2U1D,2.0,False,0.112,74,True,right,0.2486,0.3915,1.0248,0.6333,1.6079,2.425,0.8171,A
571,0.49721,1.2,2,0.38119,0.41434,0.51378,571,2.20428,-0.204,-0.09944,0.39776,5,2D1U,1.0,True,0.343,73,False,left,0.0,1.4686,1.835,0.3663,0.353,0.9188,0.5658,A
572,0.49721,1.2,2,0.33147,0.3149,0.57179,572,2.31202,0.186,0.09115,0.59665,5,2U1D,2.0,True,0.38,75,True,right,-0.16574,1.3891,1.9557,0.5666,0.381,0.7809,0.4,A
573,0.49721,0.1,1,0.29832,0.2486,0.67123,573,2.13798,-0.15,-0.07458,0.42262,5,2D1U,2.0,True,0.366,74,True,right,0.2486,0.4324,0.5821,0.1497,1.2653,1.7412,0.4759,A
574,0.49721,0.1,2,0.28175,0.40605,0.53864,574,2.3203,0.186,0.09115,0.59665,5,2U1D,2.0,True,0.167,75,True,right,0.0,1.3193,1.7771,0.4578,0.4193,0.6439,0.2246,A
575,0.49721,0.1,1,0.25689,0.20717,0.84525,575,2.37002,0.132,0.06629,0.5635,5,2U1D,1.0,True,0.308,76,True,left,-0.16574,0.3903,0.6818,0.2916,1.7483,1.8065,0.0582,A
576,0.49721,1.2,2,0.38119,0.19888,0.8784,576,2.3783,-0.15,-0.07458,0.42262,5,2D1U,1.0,True,0.516,74,True,left,0.2486,1.9547,2.3465,0.3918,0.221,1.0381,0.817,A
577,0.49721,1.2,1,0.30661,0.23203,0.61322,577,2.10484,-0.096,-0.04972,0.45577,5,2D1U,1.0,False,0.541,74,False,left,0.0,0.2726,0.7972,0.5245,1.3813,1.9474,0.5661,A
578,0.49721,1.2,2,0.43091,0.20717,0.8784,578,2.43631,-0.15,-0.07458,0.42262,5,2D1U,2.0,False,0.167,75,True,right,-0.16574,1.8017,2.1944,0.3926,0.4857,0.8859,0.4002,A
579,0.49721,0.1,1,0.40605,0.44749,0.79553,579,2.70978,0.132,0.06629,0.5635,5,2U1D,2.0,False,0.734,76,True,right,0.2486,0.5455,0.8372,0.2917,1.6454,2.1215,0.4761,A
580,0.49721,0.1,1,0.3729,0.25689,0.52207,580,2.04683,-0.204,-0.09944,0.39776,5,2D1U,2.0,True,0.35,75,False,right,0.0,0.5097,0.635,0.1253,1.2936,1.5183,0.2247,A
581,0.49721,0.1,1,0.29832,0.2486,0.6878,581,2.12969,-0.204,-0.09944,0.39776,5,2D1U,1.0,False,0.3,75,False,left,-0.16574,0.4319,0.5573,0.1255,1.4652,1.5238,0.0586,A
582,0.49721,1.2,2,0.32318,0.4392,0.8784,582,2.73464,0.186,0.09115,0.59665,5,2U1D,2.0,True,0.325,77,True,right,0.2486,1.9033,2.4696,0.5663,0.1696,0.9864,0.8168,A
583,0.49721,1.2,2,0.21546,0.38948,0.65465,583,2.35345,0.186,0.09115,0.59665,5,2U1D,2.0,True,0.226,77,True,right,0.0,1.4426,2.0098,0.5672,0.1839,0.7509,0.567,A
584,0.49721,1.2,2,0.27346,0.25689,0.58836,584,2.17942,0.132,0.06629,0.5635,5,2U1D,1.0,False,0.292,78,True,left,-0.16574,1.3508,1.8839,0.5332,0.3254,0.7256,0.4003,A
585,0.49721,0.1,2,0.23203,0.21546,0.83696,585,2.15456,-0.258,-0.13259,0.3729,5,2D1U,1.0,True,0.402,75,False,left,0.2486,1.6931,1.9259,0.2329,0.2428,0.7179,0.4752,A
586,0.49721,0.1,2,0.21546,0.20717,0.69609,586,1.98883,-0.258,-0.13259,0.3729,5,2D1U,1.0,True,0.375,75,False,left,0.0,1.4065,1.6392,0.2326,0.3474,0.5729,0.2255,A
587,0.49721,0.1,1,0.35633,0.32318,0.7541,587,2.52747,0.186,0.09115,0.59665,5,2U1D,1.0,True,0.383,79,True,left,-0.16574,0.4913,0.8161,0.3248,1.7905,1.8489,0.0585,A
588,0.49721,1.2,1,0.23203,0.35633,0.61322,588,2.09655,-0.204,-0.09944,0.39776,5,2D1U,2.0,True,0.681,76,True,right,0.2486,0.1976,0.664,0.4665,1.1225,1.9392,0.8167,A
589,0.49721,1.2,1,0.26518,0.38948,0.67951,589,2.22914,-0.204,-0.09944,0.39776,5,2D1U,2.0,True,0.143,76,True,right,0.0,0.2337,0.7008,0.4671,1.3502,1.917,0.5667,A
590,0.49721,1.2,2,0.32318,0.29004,0.79553,590,2.50261,0.186,0.09115,0.59665,5,2U1D,1.0,False,0.242,79,True,left,-0.16574,1.6051,2.1717,0.5666,0.3718,0.7717,0.4,A
591,0.49721,0.1,1,0.43091,0.40605,0.77896,591,2.53575,-0.15,-0.07458,0.42262,5,2D1U,2.0,True,0.202,76,False,right,0.2486,0.562,0.7121,0.1501,1.5032,1.9784,0.4752,A
592,0.49721,0.1,2,0.23203,0.42262,0.47235,592,2.04683,-0.15,-0.07458,0.42262,5,2D1U,1.0,True,0.234,76,False,left,0.0,1.1992,1.4827,0.2835,0.3665,0.5918,0.2253,A
593,0.49721,0.1,2,0.39776,0.44749,0.82868,593,2.79265,0.24,0.11601,0.62151,5,2U1D,2.0,True,0.391,79,False,right,-0.16574,1.6372,2.1206,0.4834,0.6118,0.6701,0.0583,A
594,0.49721,1.2,2,0.38119,0.27346,0.52207,594,2.29544,0.24,0.11601,0.62151,5,2U1D,1.0,False,0.3,79,False,left,0.2486,1.5955,2.1881,0.5926,0.2212,1.0379,0.8167,A
595,0.49721,1.2,1,0.35633,0.40605,0.44749,595,2.16285,-0.096,-0.04972,0.45577,5,2D1U,1.0,False,0.384,76,False,left,0.0,0.3206,0.8451,0.5244,1.2623,1.8285,0.5662,A
596,0.49721,1.2,1,0.2486,0.20717,0.74581,596,2.12141,-0.15,-0.07458,0.42262,5,2D1U,2.0,True,0.25,77,True,right,-0.16574,0.2156,0.7068,0.4912,1.5069,1.9071,0.4002,A
597,0.49721,0.1,1,0.27346,0.44749,0.64637,597,2.5109,0.294,0.14916,0.64637,5,2U1D,1.0,True,0.426,79,False,left,0.2486,0.4035,0.7785,0.3749,1.4374,1.9118,0.4744,A
598,0.49721,0.1,2,0.33976,0.4392,0.48892,598,2.18771,-0.15,-0.07458,0.42262,5,2D1U,2.0,False,0.509,77,True,right,0.0,1.3232,1.6071,0.2839,0.4739,0.6984,0.2245,A
599,0.49721,0.1,1,0.25689,0.25689,0.7541,599,2.16285,-0.204,-0.09944,0.39776,5,2D1U,1.0,False,0.591,77,False,left,-0.16574,0.3874,0.5125,0.1251,1.4868,1.5456,0.0588,A
600,0.49721,1.2,1,0.22374,0.35633,0.64637,600,2.37002,0.294,0.14916,0.64637,5,2U1D,1.0,True,0.326,79,False,left,0.2486,0.1923,0.9096,0.7174,1.401,2.2174,0.8164,A
601,0.49721,1.2,2,0.36462,0.32318,0.73752,601,2.54404,0.24,0.11601,0.62151,5,2U1D,2.0,True,0.113,80,True,right,0.0,1.6735,2.266,0.5924,0.3322,0.8984,0.5663,A
602,0.49721,1.2,2,0.3149,0.42262,0.8121,602,2.41973,-0.258,-0.13259,0.3729,5,2D1U,1.0,True,0.225,77,False,left,-0.16574,1.6145,1.957,0.3426,0.3649,0.7647,0.3998,A
603,0.49721,0.1,2,0.21546,0.2486,0.57179,603,2.15457,0.24,0.11601,0.62151,5,2U1D,2.0,True,0.233,80,True,right,0.2486,1.4098,1.8926,0.4828,0.2268,0.7009,0.4741,A
604,0.49721,0.1,1,0.28175,0.4392,0.80382,604,2.39488,-0.258,-0.13259,0.3729,5,2D1U,2.0,True,0.226,77,False,right,0.0,0.4149,0.5151,0.1002,1.4565,1.6807,0.2242,A
605,0.49721,0.1,1,0.28175,0.24032,0.62979,605,2.04683,-0.204,-0.09944,0.39776,5,2D1U,1.0,False,0.384,78,True,left,-0.16574,0.4138,0.5391,0.1253,1.3887,1.4475,0.0588,A
606,0.49721,1.2,1,0.38948,0.34804,0.62979,606,2.23742,-0.258,-0.13259,0.3729,5,2D1U,2.0,True,0.624,79,True,right,0.2486,0.3562,0.7977,0.4415,1.273,2.0898,0.8168,A
607,0.49721,1.2,1,0.41434,0.3729,0.57179,607,2.45289,0.186,0.09115,0.59665,5,2U1D,2.0,False,0.526,80,False,right,0.0,0.382,1.0481,0.6661,1.5897,2.1566,0.5668,A
608,0.49721,1.2,2,0.30661,0.41434,0.7541,608,2.59377,0.24,0.11601,0.62151,5,2U1D,2.0,True,0.242,81,True,right,-0.16574,1.5486,2.14,0.5914,0.3563,0.756,0.3997,A
609,0.49721,0.1,1,0.44749,0.44749,0.70437,609,2.46946,-0.258,-0.13259,0.3729,5,2D1U,2.0,True,0.416,79,True,right,0.2486,0.5816,0.682,0.1004,1.3986,1.8736,0.4751,A
610,0.49721,0.1,2,0.29832,0.2486,0.84525,610,2.51089,0.24,0.11601,0.62151,5,2U1D,2.0,True,0.234,81,True,right,0.0,1.6386,2.1216,0.483,0.4307,0.6556,0.2249,A
