,standardDur,audNoise,order,preDur,postDur,isiDur,trial_num,totalDur,delta_dur_percents,deltaDurS,testDurS,intensities,current_stair,responses,is_correct,response_rts,stair_num_reversal,stair_is_reversal,response_keys,conflictDur,recordedOnsetVisualTest,recordedOffsetVisualTest,recordedDurVisualTest,recordedOnsetVisualStandard,recordedOffsetVisualStandard,recordedDurVisualStandard,modalityCue,VisualPSE
0,0.50129,0.1,1,0.40939,0.41774,0.82713,0,3.10801,0.9,0.45116,0.95246,5,lapse_rate,1.0,True,0.41,0,False,left,0.08355,0.2729,1.4977,1.2248,2.1478,3.0061,0.8584,A,0.275
1,0.50129,1.2,2,0.29242,0.27571,0.41774,1,1.83807,-0.3,-0.15039,0.35091,5,1D2U,1.0,True,0.416,0,False,left,-0.25065,1.0816,1.6984,0.6167,0.2817,0.7982,0.5165,A,0.27
2,0.50129,1.2,1,0.21723,0.259,0.66004,2,1.98847,-0.3,-0.15039,0.35091,5,1D2U,2.0,True,0.4,0,False,right,0.08355,0.0838,0.7011,0.6173,1.1836,2.0425,0.8589,A,0.27
3,0.50129,0.1,2,0.26736,0.4261,0.5932,3,2.3895,0.2,0.10026,0.60155,5,2D1U,2.0,True,0.4,0,False,right,-0.25065,1.2407,2.1158,0.8751,0.2577,0.7822,0.5246,A,0.275
4,0.50129,0.1,2,0.20887,0.24229,0.79371,4,1.77122,-0.95,-0.47623,0.02506,5,lapse_rate,1.0,True,0.409,0,False,left,0.08355,1.5523,1.8532,0.3009,0.036,0.8938,0.8579,A,0.275
5,0.50129,0.1,2,0.40939,0.44281,0.65168,5,2.60672,0.2,0.10026,0.60155,5,2D1U,2.0,True,0.358,0,False,right,-0.25065,1.4417,2.3166,0.8749,0.4002,0.925,0.5247,A,0.275
6,0.50129,0.1,1,0.30913,0.26736,0.72688,6,2.75712,0.9,0.45116,0.95246,5,lapse_rate,1.0,True,0.366,0,False,left,0.08355,0.1735,1.3983,1.2248,1.9484,2.8152,0.8667,A,0.275
7,0.50129,1.2,1,0.23394,0.20887,0.89397,7,2.26417,-0.14,-0.06684,0.4261,5,1D2U,2.0,True,0.442,0,False,right,-0.25065,0.101,0.7927,0.6917,1.6755,2.1927,0.5172,A,0.27
8,0.50129,1.2,1,0.23394,0.43445,0.86891,8,2.55659,0.04,0.01671,0.518,5,2D1U,2.0,False,0.334,0,False,right,0.08355,0.0965,0.8787,0.7822,1.571,2.421,0.85,A,0.27
9,0.50129,0.1,2,0.35091,0.20887,0.80207,9,2.8156,0.9,0.45116,0.95246,5,lapse_rate,2.0,True,0.342,0,False,right,-0.25065,1.5301,2.7556,1.2256,0.339,0.8632,0.5242,A,0.275
10,0.50129,0.1,1,0.38432,0.27571,0.83549,10,2.42291,-0.14,-0.06684,0.4261,5,1D2U,1.0,False,0.334,0,False,left,0.08355,0.2489,0.949,0.7001,1.6073,2.4657,0.8584,A,0.275
11,0.50129,0.1,2,0.23394,0.30913,0.75194,11,2.18898,-0.22,-0.10861,0.39268,5,1D2U,1.0,True,0.308,1,True,left,-0.25065,1.3649,2.0319,0.667,0.2232,0.7485,0.5253,A,0.275
12,0.50129,1.2,1,0.35926,0.3342,0.80207,12,2.5566,0.12,0.05848,0.55978,5,2D1U,2.0,False,0.113,1,True,right,0.08355,0.2259,1.0509,0.825,1.6757,2.5257,0.85,A,0.27
13,0.50129,1.2,1,0.44281,0.3342,0.45116,13,1.75452,-0.95,-0.47623,0.02506,5,lapse_rate,2.0,True,0.525,0,False,right,-0.25065,0.3094,0.601,0.2915,1.0431,1.5593,0.5162,A,0.27
14,0.50129,1.2,2,0.40939,0.45116,0.5932,14,2.34772,-0.22,-0.10861,0.39268,5,1D2U,2.0,False,0.392,1,True,right,0.08355,1.5371,2.196,0.6588,0.2294,1.0789,0.8495,A,0.27
15,0.50129,0.1,1,0.259,0.37597,0.65168,15,1.813,-0.95,-0.47623,0.02506,5,lapse_rate,2.0,True,0.35,0,False,right,-0.25065,0.1266,0.4262,0.2996,1.0687,1.5938,0.5251,A,0.275
16,0.50129,0.1,1,0.35091,0.29242,0.72688,16,2.47305,0.2,0.10026,0.60155,5,2D1U,1.0,True,0.65,1,False,left,0.08355,0.216,1.091,0.8751,1.6408,2.4987,0.8579,A,0.275
17,0.50129,0.1,2,0.21723,0.37597,0.4261,17,2.12214,0.2,0.10026,0.60155,5,2D1U,2.0,True,0.316,1,False,right,-0.25065,1.0281,1.9032,0.875,0.2117,0.7365,0.5248,A,0.275
18,0.50129,0.1,1,0.39268,0.26736,0.50129,18,2.61508,0.9,0.45116,0.95246,5,lapse_rate,1.0,True,0.383,0,False,left,0.08355,0.2593,1.4843,1.225,1.8093,2.668,0.8587,A,0.275
19,0.50129,1.2,2,0.259,0.30078,0.41774,19,1.82972,-0.3,-0.15039,0.35091,5,1D2U,1.0,True,0.433,1,False,left,-0.25065,1.0488,1.6656,0.6168,0.2489,0.7658,0.5169,A,0.27
20,0.50129,1.2,1,0.22558,0.35091,0.71017,20,2.13886,-0.3,-0.15039,0.35091,5,1D2U,1.0,False,0.325,1,False,left,0.08355,0.0872,0.7042,0.6169,1.2375,2.0867,0.8493,A,0.27
21,0.50129,1.2,1,0.23394,0.39268,0.82713,21,1.9801,-0.95,-0.47623,0.02506,5,lapse_rate,2.0,True,0.351,0,False,right,-0.25065,0.0996,0.3916,0.292,1.2083,1.7251,0.5168,A,0.27
22,0.50129,0.1,1,0.24229,0.43445,0.49294,22,2.24746,0.16,0.08355,0.57649,5,2D1U,1.0,True,0.41,2,True,left,0.08355,0.1049,0.9551,0.8502,1.2721,2.1299,0.8577,A,0.275
23,0.50129,1.2,1,0.25065,0.39268,0.76029,23,2.85737,0.9,0.45116,0.95246,5,lapse_rate,1.0,True,0.366,0,False,left,-0.25065,0.1155,1.3324,1.217,2.082,2.598,0.516,A,0.27
24,0.50129,0.1,1,0.29242,0.30913,0.71017,24,2.12214,-0.38,-0.19216,0.30913,5,1D2U,2.0,True,0.417,1,False,right,0.08355,0.1566,0.7394,0.5828,1.2733,2.1316,0.8583,A,0.275
25,0.50129,1.2,1,0.34255,0.20887,0.54307,25,2.17227,0.16,0.08355,0.57649,5,2D1U,2.0,False,0.4,2,True,right,-0.25065,0.2055,1.0464,0.8409,1.5802,2.0968,0.5166,A,0.27
26,0.50129,1.2,1,0.35926,0.20052,0.4261,26,2.08872,0.2,0.10026,0.60155,5,2D1U,1.0,True,0.15,3,True,left,0.08355,0.2281,1.0943,0.8661,1.3443,2.2027,0.8584,A,0.27
27,0.50129,0.1,2,0.40939,0.41774,0.55978,27,2.19733,-0.38,-0.19216,0.30913,5,1D2U,1.0,True,0.292,1,False,left,-0.25065,1.3457,1.9292,0.5835,0.3958,0.9208,0.525,A,0.275
28,0.50129,1.2,1,0.41774,0.28407,0.62662,28,1.85478,-0.95,-0.47623,0.02506,5,lapse_rate,2.0,True,0.183,0,False,right,0.08355,0.2812,0.5726,0.2914,1.0232,1.8736,0.8504,A,0.27
29,0.50129,0.1,1,0.34255,0.34255,0.74359,29,2.25582,-0.34,-0.1671,0.32584,5,1D2U,2.0,True,0.383,2,True,right,-0.25065,0.2067,0.8063,0.5996,1.54,2.0652,0.5252,A,0.275
30,0.50129,1.2,1,0.36762,0.30078,0.55978,30,2.33102,0.2,0.10026,0.60155,5,2D1U,1.0,True,0.383,3,True,left,0.08355,0.2333,1.1002,0.8669,1.483,2.3337,0.8508,A,0.27
31,0.50129,1.2,1,0.26736,0.35926,0.64333,31,2.7237,0.9,0.45116,0.95246,5,lapse_rate,1.0,True,0.541,0,False,left,-0.25065,0.1361,1.3523,1.2162,1.9856,2.5023,0.5168,A,0.27
32,0.50129,0.1,1,0.30913,0.24229,0.48458,32,1.56235,-0.95,-0.47623,0.02506,5,lapse_rate,2.0,True,0.283,0,False,right,0.08355,0.1723,0.4722,0.3,0.7798,1.6387,0.8589,A,0.275
33,0.50129,1.2,1,0.29242,0.30078,0.64333,33,2.06366,-0.34,-0.1671,0.32584,5,1D2U,2.0,True,0.491,2,True,right,-0.25065,0.1553,0.7473,0.592,1.3802,1.8971,0.5169,A,0.27
34,0.50129,0.1,2,0.23394,0.29242,0.56813,34,2.17227,0.16,0.08355,0.57649,5,2D1U,2.0,True,0.359,4,True,right,0.08355,1.3472,2.197,0.8498,0.0555,0.9139,0.8584,A,0.275
35,0.50129,0.1,1,0.25065,0.4261,0.43445,35,2.18898,0.16,0.08355,0.57649,5,2D1U,2.0,False,1.142,4,True,right,-0.25065,0.1177,0.9682,0.8505,1.3927,1.9182,0.5256,A,0.275
36,0.50129,1.2,2,0.32584,0.34255,0.43445,36,1.62919,-0.95,-0.47623,0.02506,5,lapse_rate,1.0,True,0.326,0,False,left,0.08355,1.2983,1.59,0.2916,0.1488,0.9984,0.8496,A,0.27
37,0.50129,1.2,2,0.38432,0.27571,0.55978,37,2.07201,-0.3,-0.15039,0.35091,5,1D2U,1.0,True,0.341,2,False,left,-0.25065,1.3181,1.9351,0.617,0.3764,0.8931,0.5167,A,0.27
38,0.50129,1.2,1,0.38432,0.259,0.55142,38,2.64849,0.9,0.45116,0.95246,5,lapse_rate,1.0,True,0.358,0,False,left,0.08355,0.2485,1.4651,1.2167,1.84,2.6901,0.8502,A,0.27
39,0.50129,1.2,1,0.29242,0.30913,0.62662,39,2.33101,0.2,0.10026,0.60155,5,2D1U,1.0,True,0.35,5,True,left,-0.25065,0.1578,1.0244,0.8667,1.641,2.1576,0.5166,A,0.27
40,0.50129,0.1,1,0.36762,0.27571,0.40103,40,1.89656,-0.3,-0.15039,0.35091,5,1D2U,2.0,True,0.113,2,False,right,0.08355,0.2313,0.8558,0.6246,1.0808,1.939,0.8582,A,0.275
41,0.50129,0.1,1,0.32584,0.23394,0.56813,41,1.99682,-0.26,-0.13368,0.36762,5,1D2U,2.0,True,0.4,2,False,right,-0.25065,0.1885,0.8303,0.6418,1.3878,1.9135,0.5257,A,0.275
42,0.50129,1.2,2,0.30913,0.29242,0.71017,42,2.41456,0.2,0.10026,0.60155,5,2D1U,2.0,True,0.458,5,True,right,0.08355,1.5565,2.4229,0.8664,0.1311,0.9818,0.8507,A,0.27
43,0.50129,1.2,1,0.40939,0.25065,0.87726,43,2.99105,0.9,0.45116,0.95246,5,lapse_rate,1.0,True,0.375,0,False,left,-0.25065,0.272,1.4892,1.2172,2.3558,2.8724,0.5166,A,0.27
44,0.50129,1.2,1,0.31749,0.22558,0.46787,44,2.08872,0.16,0.08355,0.57649,5,2D1U,2.0,False,0.409,6,True,right,0.08355,0.181,1.0231,0.842,1.3144,2.1728,0.8584,A,0.27
45,0.50129,0.1,2,0.40939,0.31749,0.83549,45,2.43128,-0.26,-0.13368,0.36762,5,1D2U,1.0,True,1.109,2,False,left,-0.25065,1.6263,2.268,0.6417,0.402,0.9271,0.5251,A,0.275
46,0.50129,0.1,1,0.23394,0.40939,0.81878,46,1.98846,-0.95,-0.47623,0.02506,5,lapse_rate,2.0,True,0.358,0,False,right,0.08355,0.0968,0.3966,0.2998,1.0384,1.8967,0.8582,A,0.275
47,0.50129,0.1,1,0.43445,0.20887,0.47623,47,2.01352,-0.22,-0.10861,0.39268,5,1D2U,1.0,False,0.4,2,False,left,-0.25065,0.3008,0.9682,0.6674,1.4345,1.9597,0.5251,A,0.275
48,0.50129,1.2,1,0.36762,0.39268,0.73523,48,2.59837,0.2,0.10026,0.60155,5,2D1U,2.0,False,0.3,7,True,right,0.08355,0.2314,1.098,0.8665,1.6563,2.5065,0.8503,A,0.27
49,0.50129,1.2,1,0.27571,0.32584,0.71017,49,2.43127,0.24,0.11697,0.61826,5,2D1U,1.0,True,0.409,7,False,left,-0.25065,0.1371,1.0204,0.8833,1.7209,2.2371,0.5163,A,0.27
50,0.50129,0.1,1,0.24229,0.20052,0.69346,50,2.00518,-0.26,-0.13368,0.36762,5,1D2U,2.0,True,0.383,3,True,right,0.08355,0.1106,0.7524,0.6418,1.2699,2.1277,0.8578,A,0.275
51,0.50129,0.1,2,0.37597,0.45116,0.87726,51,2.82394,0.24,0.11697,0.61826,5,2D1U,1.0,False,0.391,7,False,left,-0.25065,1.6303,2.5217,0.8914,0.3639,0.8886,0.5246,A,0.275
52,0.50129,1.2,1,0.22558,0.22558,0.84384,52,2.43962,0.28,0.14203,0.64333,5,2D1U,2.0,False,0.358,7,False,right,0.08355,0.0947,1.0028,0.908,1.6693,2.5276,0.8584,A,0.27
53,0.50129,1.2,2,0.4261,0.38432,0.6851,53,2.36443,-0.26,-0.13368,0.36762,5,1D2U,1.0,True,0.375,3,True,left,-0.25065,1.4827,2.1155,0.6327,0.416,0.9328,0.5168,A,0.27
54,0.50129,0.1,1,0.26736,0.24229,0.66004,54,2.33102,0.32,0.15874,0.66004,5,2D1U,2.0,False,0.292,7,False,right,0.08355,0.1321,1.0654,0.9333,1.5494,2.4072,0.8578,A,0.275
55,0.50129,0.1,2,0.31749,0.31749,0.45116,55,2.26418,0.36,0.18381,0.67675,5,2D1U,2.0,True,0.2,7,False,right,-0.25065,1.148,2.098,0.95,0.3063,0.8308,0.5245,A,0.275
56,0.50129,1.2,2,0.24229,0.40103,0.40939,56,2.23075,0.36,0.18381,0.67675,5,2D1U,2.0,True,0.112,7,False,right,0.08355,1.1907,2.1323,0.9416,0.0658,0.9157,0.8499,A,0.27
57,0.50129,1.2,1,0.24229,0.20887,0.56813,57,1.91326,-0.22,-0.10861,0.39268,5,1D2U,1.0,False,1.092,4,True,left,-0.25065,0.106,0.764,0.6579,1.323,1.8399,0.5169,A,0.27
58,0.50129,0.1,2,0.20052,0.38432,0.55978,58,2.01353,-0.26,-0.13368,0.36762,5,1D2U,1.0,True,0.333,5,True,left,0.08355,1.3091,1.9514,0.6423,0.0262,0.8841,0.8579,A,0.275
59,0.50129,0.1,1,0.26736,0.26736,0.6851,59,2.08873,-0.26,-0.13368,0.36762,5,1D2U,2.0,True,0.392,5,True,right,-0.25065,0.1331,0.775,0.6419,1.4501,1.9755,0.5254,A,0.275
60,0.50129,1.2,2,0.20887,0.35091,0.54307,60,2.26418,0.32,0.15874,0.66004,5,2D1U,1.0,False,3.242,8,True,left,0.08355,1.2876,2.2126,0.925,0.0293,0.879,0.8497,A,0.27
61,0.50129,1.2,1,0.25065,0.43445,0.46787,61,2.04694,-0.22,-0.10861,0.39268,5,1D2U,1.0,False,0.476,6,True,left,-0.25065,0.1194,0.7784,0.659,1.2362,1.7528,0.5165,A,0.27
62,0.50129,0.1,1,0.26736,0.27571,0.5932,62,2.31431,0.36,0.18381,0.67675,5,2D1U,1.0,True,0.375,9,True,left,0.08355,0.129,1.0782,0.9493,1.4953,2.3541,0.8588,A,0.275
63,0.50129,0.1,2,0.37597,0.4261,0.58484,63,2.25582,-0.26,-0.13368,0.36762,5,1D2U,1.0,True,0.317,7,True,left,-0.25065,1.338,1.9797,0.6417,0.363,0.888,0.525,A,0.275
64,0.50129,1.2,1,0.29242,0.30913,0.81878,64,2.28924,-0.26,-0.13368,0.36762,5,1D2U,2.0,True,0.408,7,True,right,0.08355,0.156,0.789,0.633,1.4301,2.2804,0.8503,A,0.27
65,0.50129,1.2,1,0.27571,0.259,0.60155,65,2.3143,0.36,0.18381,0.67675,5,2D1U,1.0,True,0.392,9,True,left,-0.25065,0.143,1.0849,0.9419,1.6759,2.1928,0.5169,A,0.27
66,0.50129,0.1,2,0.27571,0.26736,0.518,66,2.2224,0.32,0.15874,0.66004,5,2D1U,2.0,True,0.475,10,True,right,0.08355,1.3401,2.2731,0.933,0.0984,0.9564,0.8579,A,0.275
67,0.50129,0.1,2,0.30078,0.40939,0.58484,67,2.18898,-0.22,-0.10861,0.39268,5,1D2U,2.0,False,0.425,8,True,right,-0.25065,1.2675,1.9347,0.6672,0.2932,0.8185,0.5253,A,0.275
68,0.50129,1.2,1,0.44281,0.36762,0.50965,68,2.18899,-0.26,-0.13368,0.36762,5,1D2U,1.0,False,0.35,9,True,left,0.08355,0.31,0.9426,0.6326,1.2762,2.1263,0.8501,A,0.27
69,0.50129,1.2,1,0.43445,0.36762,0.53471,69,2.49811,0.32,0.15874,0.66004,5,2D1U,2.0,False,0.393,10,True,right,-0.25065,0.2971,1.2218,0.9247,1.7463,2.2636,0.5173,A,0.27
70,0.50129,0.1,1,0.44281,0.25065,0.74359,70,2.61509,0.36,0.18381,0.67675,5,2D1U,1.0,True,0.426,11,True,left,0.08355,0.3057,1.2562,0.9504,1.8222,2.6808,0.8586,A,0.275
71,0.50129,0.1,2,0.29242,0.27571,0.40939,71,1.82972,-0.3,-0.15039,0.35091,5,1D2U,1.0,True,0.425,9,False,left,-0.25065,1.0874,1.7116,0.6242,0.288,0.8123,0.5243,A,0.275
72,0.50129,1.2,1,0.29242,0.20887,0.60991,72,1.9634,-0.3,-0.15039,0.35091,5,1D2U,2.0,True,0.358,9,False,right,0.08355,0.156,0.7721,0.6162,1.2057,2.0556,0.8499,A,0.27
73,0.50129,1.2,2,0.40103,0.35926,0.76865,73,2.70698,0.36,0.18381,0.67675,5,2D1U,1.0,False,0.383,11,True,left,-0.25065,1.5372,2.4789,0.9417,0.3872,0.9035,0.5163,A,0.27
74,0.50129,0.1,2,0.30913,0.28407,0.45116,74,1.91327,-0.26,-0.13368,0.36762,5,1D2U,1.0,True,0.441,10,True,left,0.08355,1.3115,1.9531,0.6416,0.1366,0.9949,0.8583,A,0.275
75,0.50129,0.1,2,0.39268,0.34255,0.8522,75,2.79053,0.4,0.20052,0.70181,5,2D1U,2.0,True,0.309,11,False,right,-0.25065,1.6262,2.6019,0.9757,0.385,0.9097,0.5247,A,0.275
76,0.50129,1.2,1,0.25065,0.30913,0.61826,76,2.38114,0.4,0.20052,0.70181,5,2D1U,1.0,True,0.333,11,False,left,0.08355,0.1135,1.0809,0.9674,1.522,2.3718,0.8498,A,0.27
77,0.50129,1.2,2,0.37597,0.26736,0.49294,77,2.00518,-0.26,-0.13368,0.36762,5,1D2U,2.0,False,0.416,10,True,right,-0.25065,1.2434,1.8764,0.633,0.3682,0.885,0.5167,A,0.27
78,0.50129,0.1,1,0.3342,0.24229,0.63497,78,2.3895,0.36,0.18381,0.67675,5,2D1U,1.0,True,0.316,12,True,left,0.08355,0.1979,1.1478,0.95,1.6063,2.465,0.8587,A,0.275
79,0.50129,0.1,2,0.22558,0.40939,0.82713,79,2.64014,0.36,0.18381,0.67675,5,2D1U,2.0,True,0.334,12,True,right,-0.25065,1.4294,2.3795,0.9501,0.2127,0.7377,0.5249,A,0.275
80,0.50129,1.2,1,0.41774,0.26736,0.46787,80,2.00517,-0.3,-0.15039,0.35091,5,1D2U,1.0,False,0.333,11,True,left,0.08355,0.2826,0.8992,0.6165,1.1907,2.0406,0.8499,A,0.27
81,0.50129,1.2,2,0.3342,0.43445,0.79371,81,2.72369,0.32,0.15874,0.66004,5,2D1U,2.0,True,0.35,12,False,right,-0.25065,1.4983,2.4235,0.9252,0.3234,0.8401,0.5167,A,0.27
82,0.50129,0.1,1,0.30078,0.35926,0.46787,82,2.28924,0.32,0.15874,0.66004,5,2D1U,2.0,False,0.458,12,False,right,0.08355,0.1635,1.0966,0.9331,1.3885,2.2468,0.8583,A,0.275
83,0.50129,0.1,1,0.29242,0.24229,0.71852,83,2.43127,0.36,0.18381,0.67675,5,2D1U,1.0,True,0.458,13,True,left,-0.25065,0.1547,1.1047,0.9499,1.813,2.3379,0.525,A,0.275
84,0.50129,1.2,1,0.35926,0.20887,0.54307,84,1.93833,-0.34,-0.1671,0.32584,5,1D2U,2.0,True,0.341,11,False,right,0.08355,0.2231,0.8151,0.592,1.1812,2.04,0.8588,A,0.27
85,0.50129,1.2,1,0.30078,0.40939,0.78536,85,2.67357,0.36,0.18381,0.67675,5,2D1U,1.0,True,0.45,13,True,left,-0.25065,0.1644,1.1059,0.9415,1.8811,2.3975,0.5164,A,0.27
86,0.50129,0.1,2,0.40939,0.28407,0.6851,86,2.20569,-0.34,-0.1671,0.32584,5,1D2U,1.0,True,0.333,11,False,left,0.08355,1.644,2.2433,0.5993,0.2359,1.0942,0.8583,A,0.275
87,0.50129,0.1,1,0.35091,0.40103,0.73523,87,2.6485,0.32,0.15874,0.66004,5,2D1U,2.0,False,0.284,14,True,right,-0.25065,0.2188,1.1527,0.9339,1.8778,2.4031,0.5253,A,0.275
88,0.50129,1.2,1,0.4261,0.28407,0.71017,88,2.59838,0.36,0.18381,0.67675,5,2D1U,2.0,False,0.492,15,True,right,0.08355,0.2899,1.2318,0.9418,1.7652,2.6196,0.8545,A,0.27
89,0.50129,1.2,2,0.29242,0.20052,0.86891,89,2.21405,-0.3,-0.15039,0.35091,5,1D2U,1.0,True,0.442,12,True,left,-0.25065,1.536,2.1528,0.6168,0.2863,0.803,0.5167,A,0.27
90,0.50129,0.1,1,0.31749,0.26736,0.777,90,2.56495,0.4,0.20052,0.70181,5,2D1U,1.0,True,0.308,15,False,left,0.08355,0.18,1.155,0.975,1.755,2.6135,0.8585,A,0.275
91,0.50129,0.1,2,0.45116,0.43445,0.40939,91,2.4981,0.4,0.20052,0.70181,5,2D1U,1.0,False,0.375,15,False,left,-0.25065,1.2374,2.2127,0.9753,0.4376,0.9625,0.5249,A,0.275
92,0.50129,1.2,1,0.37597,0.25065,0.57649,92,2.05531,-0.3,-0.15039,0.35091,5,1D2U,2.0,True,0.125,12,True,right,0.08355,0.2442,0.8605,0.6163,1.2611,2.1194,0.8583,A,0.27
93,0.50129,1.2,2,0.43445,0.20052,0.62662,93,2.4814,0.44,0.21723,0.71852,5,2D1U,2.0,True,0.433,15,False,right,-0.25065,1.4325,2.4158,0.9832,0.4242,0.9406,0.5164,A,0.27
94,0.50129,0.1,2,0.27571,0.41774,0.88562,94,2.79888,0.44,0.21723,0.71852,5,2D1U,2.0,True,0.3,15,False,right,0.08355,1.7121,2.7033,0.9913,0.1035,0.9618,0.8583,A,0.275
95,0.50129,0.1,1,0.35091,0.38432,0.62662,95,2.56495,0.4,0.20052,0.70181,5,2D1U,1.0,True,0.359,16,True,left,-0.25065,0.2152,1.1899,0.9747,1.8066,2.3317,0.5252,A,0.275
96,0.50129,1.2,1,0.40939,0.44281,0.78536,96,2.50647,-0.26,-0.13368,0.36762,5,1D2U,2.0,True,0.391,12,False,right,0.08355,0.2712,0.9046,0.6334,1.5129,2.3675,0.8546,A,0.27
97,0.50129,1.2,2,0.31749,0.4261,0.55978,97,2.17228,-0.26,-0.13368,0.36762,5,1D2U,1.0,True,0.358,12,False,left,-0.25065,1.2523,1.8855,0.6332,0.311,0.8278,0.5168,A,0.27
98,0.50129,0.1,2,0.45116,0.41774,0.83549,98,2.59836,-0.22,-0.10861,0.39268,5,1D2U,2.0,False,0.35,12,False,right,0.08355,1.8301,2.497,0.6669,0.2719,1.1304,0.8584,A,0.275
99,0.50129,0.1,2,0.29242,0.23394,0.75194,99,2.14721,-0.26,-0.13368,0.36762,5,1D2U,1.0,True,0.441,13,True,left,-0.25065,1.4229,2.0647,0.6417,0.2816,0.8062,0.5246,A,0.275
100,0.50129,1.2,1,0.35926,0.30913,0.80207,100,2.67356,0.4,0.20052,0.70181,5,2D1U,2.0,False,0.35,16,True,right,0.08355,0.2252,1.1923,0.967,1.8174,2.6672,0.8498,A,0.27
101,0.50129,1.2,1,0.43445,0.25065,0.60991,101,2.16392,-0.26,-0.13368,0.36762,5,1D2U,2.0,True,0.402,13,True,right,-0.25065,0.2973,0.9302,0.633,1.5309,2.0472,0.5163,A,0.27
102,0.50129,0.1,2,0.37597,0.26736,0.69346,102,2.5566,0.44,0.21723,0.71852,5,2D1U,2.0,True,0.342,17,True,right,0.08355,1.6187,2.6098,0.991,0.2015,1.0603,0.8588,A,0.275
103,0.50129,0.1,2,0.4261,0.34255,0.86055,103,2.84901,0.44,0.21723,0.71852,5,2D1U,2.0,True,0.384,17,True,right,-0.25065,1.6701,2.6616,0.9915,0.4195,0.945,0.5255,A,0.275
104,0.50129,1.2,1,0.34255,0.38432,0.65168,104,2.27252,-0.22,-0.10861,0.39268,5,1D2U,2.0,True,0.308,14,True,right,0.08355,0.2112,0.869,0.6577,1.3445,2.1943,0.8498,A,0.27
105,0.50129,1.2,2,0.41774,0.25065,0.65168,105,2.52317,0.4,0.20052,0.70181,5,2D1U,2.0,True,0.393,18,True,right,-0.25065,1.4411,2.4075,0.9664,0.4074,0.924,0.5166,A,0.27
106,0.50129,0.1,1,0.4261,0.43445,0.52636,106,2.59001,0.4,0.20052,0.70181,5,2D1U,1.0,True,0.492,18,True,left,0.08355,0.2892,1.2637,0.9745,1.6136,2.4725,0.8589,A,0.275
107,0.50129,0.1,1,0.25065,0.26736,0.71852,107,2.41457,0.36,0.18381,0.67675,5,2D1U,1.0,True,0.566,18,False,left,-0.25065,0.1146,1.0643,0.9497,1.7725,2.2976,0.5251,A,0.275
108,0.50129,1.2,2,0.24229,0.40103,0.55142,108,2.37278,0.36,0.18381,0.67675,5,2D1U,2.0,True,0.349,18,False,right,0.08355,1.335,2.2765,0.9415,0.0686,0.9181,0.8495,A,0.27
109,0.50129,1.2,2,0.26736,0.26736,0.66839,109,2.09708,-0.22,-0.10861,0.39268,5,1D2U,2.0,False,0.425,14,True,right,-0.25065,1.3052,1.9636,0.6583,0.2553,0.772,0.5167,A,0.27
110,0.50129,0.1,2,0.22558,0.44281,0.76865,110,2.59837,0.32,0.15874,0.66004,5,2D1U,2.0,True,0.324,18,False,right,0.08355,1.5412,2.4744,0.9333,0.0493,0.9079,0.8585,A,0.275
111,0.50129,0.1,2,0.44281,0.26736,0.64333,111,2.22241,-0.26,-0.13368,0.36762,5,1D2U,1.0,True,0.358,15,True,left,-0.25065,1.4666,2.108,0.6414,0.4331,0.9577,0.5246,A,0.275
112,0.50129,1.2,1,0.31749,0.44281,0.54307,112,2.4647,0.32,0.15874,0.66004,5,2D1U,2.0,False,0.291,18,False,right,0.08355,0.1815,1.1071,0.9256,1.4732,2.323,0.8498,A,0.27
113,0.50129,1.2,2,0.43445,0.4261,0.49294,113,2.53153,0.36,0.18381,0.67675,5,2D1U,2.0,True,0.299,19,True,right,-0.25065,1.2985,2.2402,0.9418,0.4237,0.9398,0.5162,A,0.27
114,0.50129,0.1,1,0.24229,0.20052,0.45116,114,2.07201,0.36,0.18381,0.67675,5,2D1U,1.0,True,0.243,19,True,left,0.08355,0.1094,1.0596,0.9501,1.3342,2.1925,0.8583,A,0.275
115,0.50129,0.1,1,0.32584,0.26736,0.518,115,1.98011,-0.26,-0.13368,0.36762,5,1D2U,2.0,True,0.325,15,True,right,-0.25065,0.1865,0.8288,0.6423,1.3368,1.862,0.5253,A,0.275
116,0.50129,1.2,2,0.30913,0.44281,0.46787,116,2.11378,-0.22,-0.10861,0.39268,5,1D2U,1.0,True,0.275,16,True,left,0.08355,1.3143,1.9727,0.6584,0.1305,0.9811,0.8507,A,0.27
117,0.50129,1.2,2,0.38432,0.44281,0.52636,117,2.51482,0.32,0.15874,0.66004,5,2D1U,2.0,True,0.292,20,True,right,-0.25065,1.281,2.2056,0.9245,0.3725,0.8902,0.5176,A,0.27
118,0.50129,0.1,1,0.30078,0.23394,0.518,118,2.21405,0.32,0.15874,0.66004,5,2D1U,1.0,True,0.333,20,True,left,0.08355,0.1653,1.0985,0.9332,1.4401,2.2985,0.8583,A,0.275
119,0.50129,0.1,1,0.27571,0.35926,0.777,119,2.55659,0.28,0.14203,0.64333,5,2D1U,1.0,True,0.334,20,False,left,-0.25065,0.138,1.0545,0.9165,1.8214,2.3463,0.525,A,0.275
120,0.50129,1.2,2,0.259,0.24229,0.69346,120,2.08872,-0.22,-0.10861,0.39268,5,1D2U,1.0,True,0.316,16,True,left,0.08355,1.4902,2.1486,0.6584,0.0817,0.9317,0.85,A,0.27
121,0.50129,1.2,2,0.20887,0.37597,0.65168,121,2.38114,0.28,0.14203,0.64333,5,2D1U,2.0,True,0.35,20,False,right,-0.25065,1.2302,2.1388,0.9086,0.1974,0.7141,0.5167,A,0.27
122,0.50129,0.1,1,0.44281,0.41774,0.86891,122,2.64014,-0.18,-0.0919,0.40939,5,1D2U,2.0,True,0.4,16,False,right,0.08355,0.3112,0.9941,0.6829,1.6862,2.5444,0.8583,A,0.275
123,0.50129,0.1,1,0.36762,0.40103,0.60155,123,2.48975,0.24,0.11697,0.61826,5,2D1U,1.0,True,0.508,20,False,left,-0.25065,0.2314,1.1231,0.8917,1.7145,2.2401,0.5256,A,0.275
124,0.50129,1.2,2,0.3342,0.35091,0.83549,124,2.64015,0.24,0.11697,0.61826,5,2D1U,2.0,True,0.391,20,False,right,0.08355,1.7104,2.5938,0.8834,0.1604,1.0104,0.8499,A,0.27
125,0.50129,1.2,2,0.20887,0.30913,0.44281,125,2.06365,0.2,0.10026,0.60155,5,2D1U,2.0,True,0.383,20,False,right,-0.25065,1.0226,1.8897,0.8672,0.1976,0.7144,0.5168,A,0.27
126,0.50129,0.1,2,0.35091,0.22558,0.61826,126,2.10543,-0.18,-0.0919,0.40939,5,1D2U,2.0,False,0.492,16,False,right,0.08355,1.5201,2.2035,0.6834,0.1782,1.0367,0.8585,A,0.275
127,0.50129,0.1,1,0.259,0.41774,0.46787,127,2.24745,0.2,0.10026,0.60155,5,2D1U,2.0,False,0.283,20,False,right,-0.25065,0.1254,1.0008,0.8754,1.4594,1.9841,0.5247,A,0.275
128,0.50129,1.2,2,0.41774,0.30078,0.49294,128,2.33101,0.24,0.11697,0.61826,5,2D1U,1.0,False,0.111,21,True,left,0.08355,1.4483,2.3316,0.8834,0.2402,1.0895,0.8493,A,0.27
129,0.50129,1.2,2,0.30913,0.20052,0.43445,129,1.83807,-0.22,-0.10861,0.39268,5,1D2U,2.0,False,0.392,17,True,right,-0.25065,1.1195,1.7784,0.6589,0.3029,0.8195,0.5166,A,0.27
130,0.50129,0.1,1,0.41774,0.40103,0.45116,130,2.41455,0.28,0.14203,0.64333,5,2D1U,1.0,True,0.317,21,False,left,0.08355,0.2817,1.199,0.9173,1.4733,2.3315,0.8582,A,0.275
131,0.50129,0.1,1,0.30913,0.37597,0.53471,131,2.36443,0.28,0.14203,0.64333,5,2D1U,1.0,True,0.342,21,False,left,-0.25065,0.1721,1.0881,0.916,1.6131,2.1381,0.525,A,0.275
132,0.50129,1.2,2,0.28407,0.20887,0.52636,132,2.13885,0.24,0.11697,0.61826,5,2D1U,2.0,True,0.342,22,True,right,0.08355,1.3514,2.2429,0.8915,0.1095,0.9597,0.8501,A,0.27
133,0.50129,1.2,2,0.4261,0.24229,0.44281,133,1.98011,-0.26,-0.13368,0.36762,5,1D2U,1.0,True,0.409,17,False,left,-0.25065,1.243,1.8759,0.6329,0.4179,0.9346,0.5166,A,0.27
134,0.50129,0.1,2,0.20887,0.30078,0.88562,134,2.51482,0.24,0.11697,0.61826,5,2D1U,2.0,True,0.283,22,True,right,0.08355,1.6392,2.5384,0.8992,0.032,0.89,0.858,A,0.275
135,0.50129,0.1,1,0.34255,0.3342,0.63497,135,2.18063,-0.26,-0.13368,0.36762,5,1D2U,2.0,True,0.35,17,False,right,-0.25065,0.2064,0.8472,0.6409,1.4732,1.9978,0.5247,A,0.275
136,0.50129,1.2,2,0.23394,0.36762,0.50129,136,1.99682,-0.22,-0.10861,0.39268,5,1D2U,1.0,True,0.274,18,True,left,0.08355,1.2739,1.9322,0.6583,0.0577,0.9072,0.8494,A,0.27
137,0.50129,1.2,1,0.40103,0.24229,0.64333,137,2.38949,0.2,0.10026,0.60155,5,2D1U,1.0,True,0.433,22,False,left,-0.25065,0.2663,1.1326,0.8663,1.7652,2.2825,0.5172,A,0.27
138,0.50129,0.1,1,0.28407,0.35091,0.43445,138,1.9634,-0.22,-0.10861,0.39268,5,1D2U,2.0,True,0.25,18,True,right,0.08355,0.1534,0.8196,0.6662,1.0779,1.9367,0.8588,A,0.275
139,0.50129,0.1,1,0.30078,0.26736,0.78536,139,2.45634,0.2,0.10026,0.60155,5,2D1U,1.0,True,0.375,22,False,left,-0.25065,0.1646,1.0394,0.8748,1.8143,2.3394,0.5251,A,0.275
140,0.50129,1.2,2,0.24229,0.259,0.6851,140,2.09707,-0.18,-0.0919,0.40939,5,1D2U,2.0,False,0.309,18,False,right,0.08355,1.4639,2.1393,0.6754,0.0639,0.9138,0.8498,A,0.27
141,0.50129,1.2,1,0.30913,0.26736,0.70181,141,2.35608,0.16,0.08355,0.57649,5,2D1U,2.0,False,0.299,22,False,right,-0.25065,0.1711,1.0125,0.8414,1.7036,2.2212,0.5176,A,0.27
142,0.50129,0.1,1,0.23394,0.4261,0.48458,142,2.03859,-0.22,-0.10861,0.39268,5,1D2U,2.0,True,0.118,19,True,right,0.08355,0.1007,0.7672,0.6665,1.0756,1.9339,0.8583,A,0.275
143,0.50129,0.1,2,0.30913,0.27571,0.40939,143,1.8882,-0.22,-0.10861,0.39268,5,1D2U,1.0,True,0.316,19,True,left,-0.25065,1.0997,1.7664,0.6667,0.2995,0.8244,0.5248,A,0.275
144,0.50129,1.2,1,0.40103,0.37597,0.47623,144,2.16391,-0.18,-0.0919,0.40939,5,1D2U,2.0,True,0.318,20,True,right,0.08355,0.2668,0.9414,0.6746,1.2413,2.0911,0.8498,A,0.27
145,0.50129,1.2,2,0.22558,0.20887,0.63497,145,2.17226,0.2,0.10026,0.60155,5,2D1U,2.0,True,0.401,23,True,right,-0.25065,1.2346,2.1017,0.8671,0.2182,0.7347,0.5165,A,0.27
146,0.50129,0.1,1,0.38432,0.3342,0.83549,146,2.46469,-0.18,-0.0919,0.40939,5,1D2U,2.0,True,0.292,20,True,right,0.08355,0.2472,0.9308,0.6836,1.5885,2.4471,0.8586,A,0.275
147,0.50129,0.1,1,0.20887,0.24229,0.518,147,2.072,0.2,0.10026,0.60155,5,2D1U,2.0,False,0.333,23,True,right,-0.25065,0.0779,0.9523,0.8744,1.4605,1.9849,0.5244,A,0.275
148,0.50129,1.2,2,0.21723,0.3342,0.43445,148,1.91327,-0.14,-0.06684,0.4261,5,1D2U,1.0,True,0.325,20,False,left,0.08355,1.193,1.8845,0.6915,0.0425,0.893,0.8505,A,0.27
149,0.50129,1.2,1,0.30913,0.31749,0.71852,149,2.27253,-0.14,-0.06684,0.4261,5,1D2U,2.0,True,0.283,20,False,right,-0.25065,0.1747,0.8659,0.6911,1.5746,2.0914,0.5168,A,0.27
150,0.50129,0.1,2,0.4261,0.30078,0.71852,150,2.56495,0.24,0.11697,0.61826,5,2D1U,2.0,True,0.408,23,False,right,0.08355,1.6877,2.5853,0.8976,0.2456,1.104,0.8584,A,0.275
151,0.50129,0.1,1,0.30078,0.38432,0.5932,151,2.39785,0.24,0.11697,0.61826,5,2D1U,1.0,True,0.4,23,False,left,-0.25065,0.1637,1.0554,0.8916,1.6386,2.1637,0.525,A,0.275
152,0.50129,1.2,2,0.4261,0.23394,0.52636,152,2.13885,-0.1,-0.05013,0.45116,5,1D2U,2.0,False,0.349,20,False,right,0.08355,1.4895,2.2147,0.7251,0.2474,1.0986,0.8512,A,0.27
153,0.50129,1.2,1,0.27571,0.29242,0.40939,153,2.08036,0.2,0.10026,0.60155,5,2D1U,1.0,True,0.325,24,True,left,-0.25065,0.1389,1.0056,0.8667,1.405,1.9217,0.5167,A,0.27
154,0.50129,0.1,1,0.20052,0.30913,0.40939,154,1.84643,-0.14,-0.06684,0.4261,5,1D2U,1.0,False,0.292,21,True,left,0.08355,0.0636,0.7633,0.6997,0.997,1.8554,0.8585,A,0.275
155,0.50129,0.1,1,0.39268,0.43445,0.75194,155,2.68191,0.2,0.10026,0.60155,5,2D1U,1.0,True,0.293,24,True,left,-0.25065,0.2573,1.1323,0.8749,1.8746,2.3989,0.5243,A,0.275
156,0.50129,1.2,1,0.32584,0.43445,0.48458,156,2.15555,-0.18,-0.0919,0.40939,5,1D2U,2.0,True,0.324,21,False,right,0.08355,0.1878,0.8632,0.6754,1.1711,2.0211,0.85,A,0.27
157,0.50129,1.2,1,0.30078,0.23394,0.87726,157,2.32266,-0.18,-0.0919,0.40939,5,1D2U,2.0,True,0.374,21,False,right,-0.25065,0.1668,0.8418,0.675,1.7086,2.2253,0.5167,A,0.27
158,0.50129,0.1,2,0.27571,0.21723,0.66004,158,2.08037,-0.14,-0.06684,0.4261,5,1D2U,1.0,True,0.332,22,True,left,0.08355,1.4845,2.184,0.6995,0.1007,0.9594,0.8587,A,0.275
159,0.50129,0.1,1,0.29242,0.32584,0.84384,159,2.38949,-0.14,-0.06684,0.4261,5,1D2U,2.0,True,0.358,22,True,right,-0.25065,0.1563,0.8562,0.6998,1.69,2.2153,0.5254,A,0.275
160,0.50129,1.2,2,0.259,0.32584,0.6851,160,2.34772,0.16,0.08355,0.57649,5,2D1U,2.0,True,0.275,24,False,right,0.08355,1.4789,2.3205,0.8416,0.0791,0.9293,0.8502,A,0.27
161,0.50129,1.2,1,0.23394,0.27571,0.75194,161,2.21404,-0.1,-0.05013,0.45116,5,1D2U,2.0,True,0.316,22,False,right,-0.25065,0.1006,0.8174,0.7168,1.559,2.0761,0.517,A,0.27
162,0.50129,0.1,2,0.40103,0.35091,0.78536,162,2.61508,0.16,0.08355,0.57649,5,2D1U,2.0,True,0.284,24,False,right,0.08355,1.7304,2.5803,0.8499,0.2222,1.0804,0.8582,A,0.275
163,0.50129,0.1,2,0.43445,0.41774,0.43445,163,2.23909,-0.1,-0.05013,0.45116,5,1D2U,1.0,True,0.233,22,False,left,-0.25065,1.2517,1.9768,0.7251,0.4276,0.9517,0.5241,A,0.275
164,0.50129,1.2,1,0.36762,0.30913,0.43445,164,2.17227,0.12,0.05848,0.55978,5,2D1U,2.0,False,0.112,24,False,right,0.08355,0.2346,1.0596,0.825,1.3184,2.1678,0.8494,A,0.27
165,0.50129,1.2,1,0.40939,0.40103,0.82713,165,2.71533,0.16,0.08355,0.57649,5,2D1U,2.0,False,0.351,25,True,right,-0.25065,0.2781,1.1198,0.8416,1.9366,2.4533,0.5167,A,0.27
166,0.50129,0.1,2,0.38432,0.43445,0.83549,166,2.62342,-0.06,-0.03342,0.46787,5,1D2U,2.0,False,0.325,22,False,right,0.08355,1.7649,2.5057,0.7407,0.2058,1.064,0.8582,A,0.275
167,0.50129,0.1,1,0.35091,0.30078,0.47623,167,2.08037,-0.1,-0.05013,0.45116,5,1D2U,1.0,False,0.392,23,True,left,-0.25065,0.2118,0.9373,0.7255,1.404,1.9289,0.5249,A,0.275
168,0.50129,1.2,1,0.25065,0.36762,0.80207,168,2.52318,0.2,0.10026,0.60155,5,2D1U,2.0,False,0.284,25,False,right,0.08355,0.1149,0.9811,0.8662,1.6065,2.4562,0.8498,A,0.27
169,0.50129,1.2,1,0.3342,0.32584,0.84384,169,2.43127,-0.14,-0.06684,0.4261,5,1D2U,1.0,False,0.359,23,False,left,-0.25065,0.2009,0.8925,0.6916,1.7263,2.2428,0.5165,A,0.27
170,0.50129,0.1,1,0.3342,0.35926,0.73523,170,2.54824,0.24,0.11697,0.61826,5,2D1U,2.0,False,0.366,25,False,right,0.08355,0.197,1.0891,0.8921,1.6475,2.5057,0.8582,A,0.275
171,0.50129,0.1,2,0.34255,0.21723,0.79371,171,2.26417,-0.18,-0.0919,0.40939,5,1D2U,1.0,True,0.383,23,False,left,-0.25065,1.5121,2.195,0.6829,0.329,0.8532,0.5242,A,0.275
172,0.50129,1.2,1,0.40939,0.30078,0.71852,172,2.57331,0.28,0.14203,0.64333,5,2D1U,2.0,False,0.292,25,False,right,0.08355,0.274,1.182,0.908,1.724,2.5738,0.8498,A,0.27
173,0.50129,1.2,2,0.39268,0.23394,0.60155,173,2.3895,0.32,0.15874,0.66004,5,2D1U,1.0,False,0.408,25,False,left,-0.25065,1.3623,2.2872,0.9249,0.379,0.8952,0.5162,A,0.27
174,0.50129,0.1,1,0.39268,0.3342,0.84384,174,2.4814,-0.18,-0.0919,0.40939,5,1D2U,2.0,True,0.283,23,False,right,0.08355,0.2565,0.94,0.6834,1.6063,2.4651,0.8588,A,0.275
175,0.50129,0.1,1,0.35091,0.34255,0.49294,175,2.36444,0.36,0.18381,0.67675,5,2D1U,1.0,True,0.3,25,False,left,-0.25065,0.2147,1.1647,0.95,1.6479,2.1728,0.5249,A,0.275
176,0.50129,1.2,1,0.22558,0.30078,0.41774,176,2.12214,0.36,0.18381,0.67675,5,2D1U,2.0,False,0.282,25,False,right,0.08355,0.0893,1.031,0.9417,1.2722,2.1218,0.8496,A,0.27
177,0.50129,1.2,1,0.27571,0.39268,0.80207,177,2.67356,0.4,0.20052,0.70181,5,2D1U,1.0,True,0.301,25,False,left,-0.25065,0.1372,1.1045,0.9673,1.896,2.4128,0.5168,A,0.27
178,0.50129,0.1,1,0.29242,0.20887,0.65168,178,2.08036,-0.14,-0.06684,0.4261,5,1D2U,1.0,False,0.367,24,True,left,0.08355,0.1579,0.8574,0.6995,1.333,2.1913,0.8582,A,0.275
179,0.50129,0.1,2,0.25065,0.29242,0.75194,179,2.20569,-0.18,-0.0919,0.40939,5,1D2U,1.0,True,0.342,25,True,left,-0.25065,1.3804,2.064,0.6835,0.2392,0.7639,0.5247,A,0.275
180,0.50129,1.2,1,0.20887,0.32584,0.66839,180,2.4062,0.4,0.20052,0.70181,5,2D1U,1.0,True,0.358,25,False,left,0.08355,0.0755,1.0429,0.9674,1.5342,2.3842,0.85,A,0.27
181,0.50129,1.2,1,0.35926,0.30913,0.777,181,2.62343,0.36,0.18381,0.67675,5,2D1U,2.0,False,0.35,26,True,right,-0.25065,0.2262,1.1681,0.9419,1.9347,2.4512,0.5166,A,0.27
182,0.50129,0.1,1,0.3342,0.30913,0.5932,182,2.43963,0.4,0.20052,0.70181,5,2D1U,1.0,True,0.3,27,True,left,0.08355,0.1987,1.1734,0.9747,1.59,2.4573,0.8672,A,0.275
183,0.50129,0.1,2,0.30913,0.21723,0.52636,183,1.9634,-0.18,-0.0919,0.40939,5,1D2U,1.0,True,0.383,25,True,left,-0.25065,1.2135,1.897,0.6834,0.2966,0.8214,0.5248,A,0.275
184,0.50129,1.2,1,0.35091,0.35091,0.81042,184,2.43963,-0.14,-0.06684,0.4261,5,1D2U,2.0,True,0.358,26,True,right,0.08355,0.2181,0.9098,0.6917,1.543,2.3928,0.8498,A,0.27
185,0.50129,1.2,1,0.23394,0.20052,0.41774,185,2.0553,0.4,0.20052,0.70181,5,2D1U,1.0,True,0.308,27,True,left,-0.25065,0.103,1.0696,0.9665,1.4778,1.9946,0.5168,A,0.27
186,0.50129,0.1,2,0.30078,0.36762,0.518,186,2.11379,-0.14,-0.06684,0.4261,5,1D2U,1.0,True,0.316,26,True,left,0.08355,1.368,2.0679,0.6999,0.1263,0.9844,0.8581,A,0.275
187,0.50129,0.1,1,0.37597,0.21723,0.81042,187,2.58166,0.36,0.18381,0.67675,5,2D1U,1.0,True,0.433,28,True,left,-0.25065,0.2392,1.1897,0.9505,1.9889,2.5143,0.5254,A,0.275
188,0.50129,1.2,2,0.23394,0.21723,0.41774,188,1.82136,-0.1,-0.05013,0.45116,5,1D2U,2.0,False,0.349,26,False,right,0.08355,1.1871,1.904,0.7169,0.0538,0.9039,0.8501,A,0.27
189,0.50129,1.2,1,0.28407,0.32584,0.69346,189,2.48141,0.36,0.18381,0.67675,5,2D1U,2.0,False,0.308,28,True,right,-0.25065,0.1466,1.0885,0.9419,1.7715,2.2887,0.5172,A,0.27
190,0.50129,0.1,1,0.24229,0.40103,0.45116,190,2.29758,0.4,0.20052,0.70181,5,2D1U,2.0,False,0.717,29,True,right,0.08355,0.1068,1.082,0.9752,1.3569,2.2152,0.8583,A,0.275
191,0.50129,0.1,2,0.38432,0.35091,0.86055,191,2.52317,-0.14,-0.06684,0.4261,5,1D2U,1.0,True,0.333,27,True,left,-0.25065,1.6239,2.3241,0.7002,0.3741,0.8992,0.525,A,0.275
192,0.50129,1.2,2,0.4261,0.28407,0.8522,192,2.78218,0.44,0.21723,0.71852,5,2D1U,2.0,True,0.113,29,False,right,0.08355,1.8119,2.7989,0.987,0.2455,1.0951,0.8496,A,0.27
193,0.50129,1.2,2,0.24229,0.28407,0.67675,193,2.1305,-0.14,-0.06684,0.4261,5,1D2U,2.0,False,1.158,27,True,right,-0.25065,1.2884,1.9798,0.6914,0.2306,0.7472,0.5167,A,0.27
194,0.50129,0.1,2,0.31749,0.21723,0.44281,194,2.19734,0.44,0.21723,0.71852,5,2D1U,2.0,True,0.317,29,False,right,0.08355,1.3099,2.3097,0.9998,0.1428,1.0019,0.8592,A,0.275
195,0.50129,0.1,2,0.30078,0.44281,0.4261,195,2.37279,0.4,0.20052,0.70181,5,2D1U,2.0,True,0.35,30,True,right,-0.25065,1.1038,2.0795,0.9757,0.2878,0.8128,0.525,A,0.275
196,0.50129,1.2,2,0.30078,0.20887,0.76029,196,2.18062,-0.18,-0.0919,0.40939,5,1D2U,1.0,True,0.35,27,False,left,0.08355,1.5981,2.2732,0.675,0.1232,0.973,0.8498,A,0.27
197,0.50129,1.2,1,0.38432,0.23394,0.518,197,2.33936,0.4,0.20052,0.70181,5,2D1U,1.0,True,0.383,30,True,left,-0.25065,0.2463,1.2131,0.9667,1.7213,2.238,0.5167,A,0.27
198,0.50129,0.1,2,0.3342,0.25065,0.81042,198,2.57331,0.36,0.18381,0.67675,5,2D1U,2.0,True,0.317,30,False,right,0.08355,1.6945,2.6437,0.9492,0.1607,1.0196,0.8589,A,0.275
199,0.50129,0.1,2,0.22558,0.36762,0.64333,199,2.14721,-0.18,-0.0919,0.40939,5,1D2U,1.0,True,0.299,27,False,left,-0.25065,1.2473,1.9307,0.6834,0.2143,0.739,0.5248,A,0.275
200,0.50129,1.2,1,0.29242,0.25065,0.49294,200,1.9634,-0.14,-0.06684,0.4261,5,1D2U,1.0,False,0.333,28,True,left,0.08355,0.1552,0.8463,0.6911,1.1636,2.0137,0.8501,A,0.27
201,0.50129,1.2,2,0.26736,0.3342,0.87726,201,2.3895,-0.18,-0.0919,0.40939,5,1D2U,1.0,True,0.35,29,True,left,-0.25065,1.5126,2.1881,0.6755,0.2548,0.7714,0.5166,A,0.27
202,0.50129,0.1,1,0.20887,0.259,0.55978,202,2.20569,0.36,0.18381,0.67675,5,2D1U,1.0,True,0.351,30,False,left,0.08355,0.0719,1.0219,0.95,1.4051,2.2635,0.8584,A,0.275
203,0.50129,0.1,1,0.32584,0.23394,0.50129,203,2.2224,0.32,0.15874,0.66004,5,2D1U,2.0,False,0.658,30,False,right,-0.25065,0.1887,1.1218,0.9331,1.6133,2.1384,0.525,A,0.275
204,0.50129,1.2,2,0.35091,0.20887,0.55978,204,2.03024,-0.18,-0.0919,0.40939,5,1D2U,1.0,True,0.292,29,True,left,0.08355,1.4473,2.1222,0.6749,0.1722,1.0223,0.8501,A,0.27
205,0.50129,1.2,2,0.40939,0.40103,0.76865,205,2.50646,-0.14,-0.06684,0.4261,5,1D2U,2.0,False,0.333,30,True,right,-0.25065,1.5489,2.2405,0.6916,0.3989,0.9154,0.5165,A,0.27
206,0.50129,0.1,2,0.29242,0.27571,0.62662,206,2.37279,0.36,0.18381,0.67675,5,2D1U,2.0,True,0.133,31,True,right,0.08355,1.4671,2.4163,0.9493,0.117,0.9755,0.8585,A,0.275
207,0.50129,0.1,2,0.43445,0.40939,0.81878,207,2.5733,-0.18,-0.0919,0.40939,5,1D2U,1.0,True,0.351,31,True,left,-0.25065,1.6302,2.3134,0.6832,0.422,0.9459,0.5239,A,0.275
208,0.50129,1.2,1,0.26736,0.39268,0.777,208,2.61508,0.36,0.18381,0.67675,5,2D1U,1.0,True,0.292,31,True,left,0.08355,0.1341,1.0762,0.9421,1.6766,2.5261,0.8495,A,0.27
209,0.50129,1.2,2,0.26736,0.20887,0.45952,209,1.84643,-0.18,-0.0919,0.40939,5,1D2U,1.0,True,0.4,31,True,left,-0.25065,1.0973,1.773,0.6757,0.2567,0.7727,0.516,A,0.27
210,0.50129,0.1,1,0.37597,0.20887,0.81878,210,2.56495,0.32,0.15874,0.66004,5,2D1U,1.0,True,0.384,32,True,left,0.08355,0.2418,1.1749,0.9331,1.8163,2.6742,0.8579,A,0.275
211,0.50129,0.1,2,0.21723,0.259,0.56813,211,1.97175,-0.14,-0.06684,0.4261,5,1D2U,1.0,True,0.35,32,True,left,-0.25065,1.1655,1.8657,0.7002,0.2078,0.7322,0.5244,A,0.275
212,0.50129,1.2,2,0.26736,0.31749,0.87726,212,2.3895,-0.14,-0.06684,0.4261,5,1D2U,2.0,False,0.284,32,True,right,0.08355,1.6815,2.3728,0.6913,0.0896,0.9396,0.8501,A,0.27
213,0.50129,1.2,2,0.27571,0.36762,0.57649,213,2.38115,0.32,0.15874,0.66004,5,2D1U,1.0,False,0.375,32,True,left,-0.25065,1.2228,2.1479,0.925,0.2646,0.7812,0.5167,A,0.27
214,0.50129,0.1,2,0.34255,0.25065,0.55978,214,2.33102,0.36,0.18381,0.67675,5,2D1U,2.0,True,0.333,33,True,right,0.08355,1.4516,2.401,0.9494,0.1686,1.0266,0.858,A,0.275
215,0.50129,0.1,1,0.40103,0.45116,0.47623,215,2.50646,0.36,0.18381,0.67675,5,2D1U,1.0,True,0.3,33,True,left,-0.25065,0.2678,1.2187,0.9509,1.6854,2.2105,0.5251,A,0.275
216,0.50129,1.2,2,0.3342,0.30078,0.50965,216,2.05531,-0.18,-0.0919,0.40939,5,1D2U,1.0,True,0.283,33,True,left,0.08355,1.3793,2.0538,0.6745,0.154,1.0044,0.8504,A,0.27
217,0.50129,1.2,1,0.25065,0.20887,0.60155,217,2.2224,0.32,0.15874,0.66004,5,2D1U,2.0,False,0.384,34,True,right,-0.25065,0.1113,1.0371,0.9258,1.6286,2.1452,0.5165,A,0.27
218,0.50129,0.1,1,0.20887,0.44281,0.83549,218,2.66521,0.36,0.18381,0.67675,5,2D1U,1.0,True,0.283,35,True,left,0.08355,0.0774,1.0278,0.9504,1.6857,2.544,0.8583,A,0.275
219,0.50129,0.1,2,0.25065,0.40103,0.5932,219,2.42292,0.36,0.18381,0.67675,5,2D1U,2.0,True,0.301,35,True,right,-0.25065,1.2217,2.1718,0.9501,0.2384,0.7633,0.5249,A,0.275
220,0.50129,1.2,2,0.32584,0.25065,0.63497,220,2.12214,-0.18,-0.0919,0.40939,5,1D2U,1.0,True,0.308,33,True,left,0.08355,1.5019,2.177,0.675,0.1517,1.002,0.8503,A,0.27
221,0.50129,1.2,2,0.40939,0.29242,0.50965,221,2.13885,-0.14,-0.06684,0.4261,5,1D2U,1.0,True,0.359,34,True,left,-0.25065,1.2902,1.982,0.6918,0.3986,0.9153,0.5166,A,0.27
222,0.50129,0.1,2,0.40939,0.41774,0.88562,222,2.87408,0.32,0.15874,0.66004,5,2D1U,2.0,True,0.283,36,True,right,0.08355,1.8377,2.7703,0.9326,0.2298,1.0879,0.858,A,0.275
223,0.50129,0.1,1,0.28407,0.40103,0.86891,223,2.4814,-0.14,-0.06684,0.4261,5,1D2U,2.0,True,0.325,34,True,right,-0.25065,0.1524,0.8528,0.7004,1.7108,2.236,0.5252,A,0.275
224,0.50129,1.2,2,0.31749,0.30078,0.86055,224,2.64015,0.32,0.15874,0.66004,5,2D1U,2.0,True,0.368,36,True,right,0.08355,1.7139,2.6387,0.9248,0.139,0.9888,0.8498,A,0.27
225,0.50129,1.2,1,0.34255,0.35926,0.76029,225,2.41455,-0.1,-0.05013,0.45116,5,1D2U,1.0,False,0.333,34,False,left,-0.25065,0.2066,0.9231,0.7165,1.6732,2.1897,0.5166,A,0.27
226,0.50129,0.1,1,0.4261,0.3342,0.72688,226,2.41457,-0.14,-0.06684,0.4261,5,1D2U,2.0,True,0.334,35,True,right,0.08355,0.2916,0.9914,0.6998,1.542,2.4002,0.8581,A,0.275
227,0.50129,0.1,1,0.37597,0.45116,0.518,227,2.48975,0.28,0.14203,0.64333,5,2D1U,1.0,True,0.293,36,False,left,-0.25065,0.2386,1.1552,0.9166,1.6634,2.1886,0.5252,A,0.275
228,0.50129,1.2,1,0.28407,0.28407,0.72688,228,2.22241,-0.14,-0.06684,0.4261,5,1D2U,1.0,False,0.367,35,True,left,0.08355,0.1469,0.8385,0.6917,1.3877,2.238,0.8503,A,0.27
229,0.50129,1.2,2,0.259,0.23394,0.69346,229,2.09708,-0.18,-0.0919,0.40939,5,1D2U,1.0,True,0.367,35,False,left,-0.25065,1.326,2.0004,0.6745,0.2509,0.7678,0.5169,A,0.27
230,0.50129,0.1,2,0.40103,0.21723,0.63497,230,2.16391,-0.18,-0.0919,0.40939,5,1D2U,2.0,False,0.383,35,False,right,0.08355,1.5812,2.2737,0.6925,0.2224,1.0817,0.8593,A,0.275
231,0.50129,0.1,1,0.35091,0.27571,0.87726,231,2.39785,-0.22,-0.10861,0.39268,5,1D2U,2.0,True,0.384,35,False,right,-0.25065,0.2159,0.8822,0.6664,1.7486,2.2737,0.5251,A,0.275
232,0.50129,1.2,1,0.35926,0.31749,0.46787,232,2.28924,0.28,0.14203,0.64333,5,2D1U,1.0,True,0.275,36,False,left,0.08355,0.226,1.1344,0.9084,1.4263,2.2761,0.8498,A,0.27
233,0.50129,1.2,1,0.23394,0.32584,0.4261,233,1.87985,-0.22,-0.10861,0.39268,5,1D2U,2.0,True,0.3,35,False,right,-0.25065,0.0983,0.7567,0.6583,1.1723,1.6898,0.5175,A,0.27
234,0.50129,0.1,1,0.24229,0.22558,0.80207,234,2.38949,0.24,0.11697,0.61826,5,2D1U,2.0,False,0.425,36,False,right,0.08355,0.1064,0.9978,0.8914,1.6229,2.4897,0.8668,A,0.275
235,0.50129,0.1,1,0.27571,0.43445,0.82713,235,2.68191,0.28,0.14203,0.64333,5,2D1U,1.0,True,0.283,37,True,left,-0.25065,0.1377,1.0549,0.9172,1.8717,2.3968,0.525,A,0.275
236,0.50129,1.2,1,0.28407,0.3342,0.47623,236,2.00518,-0.18,-0.0919,0.40939,5,1D2U,1.0,False,0.334,36,True,left,0.08355,0.1487,0.8233,0.6745,1.1232,1.9736,0.8504,A,0.27
237,0.50129,1.2,1,0.41774,0.30078,0.40939,237,2.27253,0.28,0.14203,0.64333,5,2D1U,1.0,True,0.333,37,True,left,-0.25065,0.2798,1.1879,0.9081,1.5882,2.1041,0.5159,A,0.27
238,0.50129,0.1,2,0.3342,0.40939,0.53471,238,2.17227,-0.22,-0.10861,0.39268,5,1D2U,1.0,True,0.114,37,True,left,0.08355,1.4137,2.0799,0.6662,0.1551,1.0134,0.8584,A,0.275
239,0.50129,0.1,2,0.40939,0.41774,0.8522,239,2.5733,-0.22,-0.10861,0.39268,5,1D2U,1.0,True,0.408,37,True,left,-0.25065,1.6378,2.3044,0.6666,0.3963,0.9212,0.5249,A,0.275
240,0.50129,1.2,2,0.35926,0.38432,0.76029,240,2.62342,0.24,0.11697,0.61826,5,2D1U,2.0,True,0.341,38,True,right,0.08355,1.6598,2.543,0.8832,0.1848,1.0347,0.8499,A,0.27
241,0.50129,1.2,1,0.26736,0.26736,0.518,241,1.9634,-0.18,-0.0919,0.40939,5,1D2U,1.0,False,0.266,38,True,left,-0.25065,0.1318,0.8067,0.6748,1.3149,1.8316,0.5167,A,0.27
242,0.50129,0.1,1,0.3342,0.31749,0.63497,242,2.40621,0.24,0.11697,0.61826,5,2D1U,1.0,True,0.166,38,True,left,0.08355,0.1985,1.0897,0.8912,1.5478,2.4062,0.8584,A,0.275
243,0.50129,0.1,1,0.31749,0.29242,0.84384,243,2.34772,-0.22,-0.10861,0.39268,5,1D2U,2.0,True,0.375,39,True,right,-0.25065,0.1794,0.8457,0.6663,1.6793,2.204,0.5247,A,0.275
244,0.50129,1.2,2,0.28407,0.30078,0.47623,244,1.95505,-0.22,-0.10861,0.39268,5,1D2U,2.0,False,0.384,39,True,right,0.08355,1.2985,1.9566,0.6581,0.1069,0.957,0.8502,A,0.27
245,0.50129,1.2,2,0.20052,0.29242,0.45116,245,2.04694,0.2,0.10026,0.60155,5,2D1U,1.0,False,0.433,38,False,left,-0.25065,1.0276,1.8943,0.8668,0.1939,0.7111,0.5172,A,0.27
246,0.50129,0.1,2,0.35091,0.30078,0.62662,246,2.14722,-0.26,-0.13368,0.36762,5,1D2U,1.0,True,0.4,39,False,left,0.08355,1.522,2.1716,0.6497,0.1717,1.0301,0.8584,A,0.275
247,0.50129,0.1,2,0.35926,0.39268,0.53471,247,2.15556,-0.26,-0.13368,0.36762,5,1D2U,1.0,True,0.308,39,False,left,-0.25065,1.2762,1.9175,0.6412,0.3514,0.8766,0.5251,A,0.275
248,0.50129,1.2,1,0.20887,0.28407,0.72688,248,2.33937,0.24,0.11697,0.61826,5,2D1U,2.0,False,0.375,39,True,right,0.08355,0.0757,0.9601,0.8843,1.5097,2.3674,0.8576,A,0.27
249,0.50129,1.2,1,0.27571,0.44281,0.84384,249,2.70698,0.28,0.14203,0.64333,5,2D1U,1.0,True,0.25,39,False,left,-0.25065,0.1371,1.0454,0.9084,1.8791,2.3952,0.5161,A,0.27
250,0.50129,0.1,1,0.30913,0.29242,0.40103,250,1.89655,-0.22,-0.10861,0.39268,5,1D2U,2.0,True,0.113,40,True,right,0.08355,0.1732,0.8401,0.6669,1.0643,1.9312,0.867,A,0.275
251,0.50129,0.1,2,0.24229,0.21723,0.65168,251,2.00517,-0.22,-0.10861,0.39268,5,1D2U,1.0,True,0.401,40,True,left,-0.25065,1.2726,1.939,0.6664,0.2308,0.7553,0.5246,A,0.275
252,0.50129,1.2,1,0.30078,0.23394,0.76865,252,2.44799,0.28,0.14203,0.64333,5,2D1U,2.0,False,0.374,39,False,right,0.08355,0.1646,1.0724,0.9078,1.664,2.5138,0.8498,A,0.27
253,0.50129,1.2,1,0.43445,0.28407,0.76865,253,2.39785,-0.18,-0.0919,0.40939,5,1D2U,2.0,True,0.409,40,False,right,-0.25065,0.2964,0.9715,0.6751,1.7299,2.2461,0.5162,A,0.27
254,0.50129,0.1,2,0.36762,0.20887,0.83549,254,2.32266,-0.18,-0.0919,0.40939,5,1D2U,1.0,True,0.384,40,False,left,0.08355,1.7532,2.4366,0.6835,0.1951,1.0535,0.8584,A,0.275
255,0.50129,0.1,2,0.37597,0.25065,0.63497,255,2.42292,0.32,0.15874,0.66004,5,2D1U,2.0,True,0.359,39,False,right,-0.25065,1.3891,2.3225,0.9333,0.3643,0.889,0.5247,A,0.275
256,0.50129,1.2,1,0.23394,0.45116,0.60155,256,2.44798,0.32,0.15874,0.66004,5,2D1U,2.0,False,0.301,39,False,right,0.08355,0.0976,1.0224,0.9248,1.447,2.2974,0.8503,A,0.27
257,0.50129,1.2,1,0.24229,0.24229,0.777,257,2.43962,0.36,0.18381,0.67675,5,2D1U,1.0,True,0.366,39,False,left,-0.25065,0.1057,1.0478,0.9422,1.8142,2.3312,0.517,A,0.27
258,0.50129,0.1,2,0.30078,0.34255,0.518,258,2.08872,-0.14,-0.06684,0.4261,5,1D2U,1.0,True,0.282,40,False,left,0.08355,1.3705,2.0705,0.7,0.1289,0.9866,0.8577,A,0.275
259,0.50129,0.1,2,0.41774,0.26736,0.80207,259,2.66521,0.36,0.18381,0.67675,5,2D1U,2.0,True,0.317,39,False,right,-0.25065,1.5985,2.5482,0.9497,0.4069,0.9313,0.5245,A,0.275
260,0.50129,1.2,1,0.26736,0.23394,0.60991,260,2.27254,0.32,0.15874,0.66004,5,2D1U,2.0,False,0.408,40,True,right,0.08355,0.1289,1.0542,0.9253,1.4874,2.3377,0.8503,A,0.27
261,0.50129,1.2,1,0.31749,0.20052,0.53471,261,1.98011,-0.14,-0.06684,0.4261,5,1D2U,1.0,False,0.341,40,False,left,-0.25065,0.182,0.8736,0.6916,1.3992,1.9147,0.5155,A,0.27
262,0.50129,0.1,2,0.40939,0.39268,0.63497,262,2.34772,-0.18,-0.0919,0.40939,5,1D2U,1.0,True,0.251,41,True,left,0.08355,1.5873,2.2713,0.6839,0.2289,1.0876,0.8587,A,0.275
263,0.50129,0.1,2,0.35091,0.37597,0.50965,263,2.41457,0.36,0.18381,0.67675,5,2D1U,2.0,True,0.292,41,True,right,-0.25065,1.2371,2.1871,0.95,0.3374,0.8625,0.5251,A,0.275
264,0.50129,1.2,2,0.41774,0.36762,0.76029,264,2.45633,-0.18,-0.0919,0.40939,5,1D2U,1.0,True,0.233,41,True,left,0.08355,1.7118,2.3869,0.6751,0.2368,1.0868,0.8501,A,0.27
265,0.50129,1.2,1,0.25065,0.21723,0.60991,265,2.00518,-0.14,-0.06684,0.4261,5,1D2U,1.0,False,0.324,42,True,left,-0.25065,0.1127,0.8037,0.691,1.4043,1.9211,0.5168,A,0.27
266,0.50129,0.1,2,0.37597,0.40939,0.5932,266,2.5566,0.36,0.18381,0.67675,5,2D1U,2.0,True,0.592,41,True,right,0.08355,1.5174,2.4682,0.9507,0.2012,1.0595,0.8583,A,0.275
267,0.50129,0.1,2,0.20887,0.39268,0.74359,267,2.50647,0.32,0.15874,0.66004,5,2D1U,2.0,True,0.284,42,True,right,-0.25065,1.332,2.2652,0.9333,0.199,0.7227,0.5237,A,0.275
268,0.50129,1.2,1,0.34255,0.35926,0.49294,268,2.10543,-0.18,-0.0919,0.40939,5,1D2U,1.0,False,0.242,43,True,left,0.08355,0.2087,0.8839,0.6752,1.2007,2.0509,0.8502,A,0.27
269,0.50129,1.2,2,0.40939,0.35926,0.76865,269,2.69863,0.32,0.15874,0.66004,5,2D1U,2.0,True,0.275,42,True,right,-0.25065,1.5481,2.4725,0.9244,0.3978,0.9142,0.5164,A,0.27
270,0.50129,0.1,1,0.40939,0.34255,0.66839,270,2.3143,-0.22,-0.10861,0.39268,5,1D2U,2.0,True,0.416,43,False,right,0.08355,0.2738,0.9403,0.6666,1.4319,2.2904,0.8585,A,0.275
271,0.50129,0.1,1,0.35091,0.25065,0.78536,271,2.28089,-0.22,-0.10861,0.39268,5,1D2U,2.0,True,0.575,43,False,right,-0.25065,0.2153,0.8814,0.6662,1.6567,2.1813,0.5246,A,0.275
272,0.50129,1.2,2,0.40103,0.32584,0.60991,272,2.24746,-0.18,-0.0919,0.40939,5,1D2U,1.0,True,0.283,44,True,left,0.08355,1.5479,2.223,0.675,0.2229,1.073,0.8501,A,0.27
273,0.50129,1.2,1,0.20052,0.32584,0.45952,273,1.89656,-0.18,-0.0919,0.40939,5,1D2U,2.0,True,0.35,44,True,right,-0.25065,0.0677,0.7434,0.6758,1.1935,1.7097,0.5162,A,0.27
274,0.50129,0.1,2,0.31749,0.20887,0.70181,274,2.37279,0.28,0.14203,0.64333,5,2D1U,1.0,False,0.359,42,False,left,0.08355,1.564,2.4809,0.9168,0.1394,0.9974,0.858,A,0.275
275,0.50129,0.1,1,0.36762,0.39268,0.71852,275,2.40621,-0.14,-0.06684,0.4261,5,1D2U,1.0,False,0.409,44,False,left,-0.25065,0.2306,0.9305,0.6999,1.6388,2.1638,0.525,A,0.275
276,0.50129,1.2,1,0.25065,0.39268,0.57649,276,2.1305,-0.18,-0.0919,0.40939,5,1D2U,2.0,True,0.258,45,True,right,0.08355,0.1121,0.7867,0.6746,1.1872,2.0366,0.8493,A,0.27
277,0.50129,1.2,2,0.38432,0.40103,0.48458,277,2.43126,0.32,0.15874,0.66004,5,2D1U,2.0,True,0.392,43,True,right,-0.25065,1.2393,2.1642,0.9249,0.3728,0.8896,0.5168,A,0.27
278,0.50129,0.1,2,0.36762,0.31749,0.41774,278,2.01353,-0.18,-0.0919,0.40939,5,1D2U,1.0,True,0.4,45,True,left,0.08355,1.3284,2.012,0.6836,0.1868,1.045,0.8582,A,0.275
279,0.50129,0.1,2,0.24229,0.23394,0.777,279,2.41456,0.32,0.15874,0.66004,5,2D1U,2.0,True,0.367,43,True,right,-0.25065,1.3978,2.3312,0.9334,0.2309,0.7558,0.5248,A,0.275
280,0.50129,1.2,1,0.35926,0.20052,0.82713,280,2.53153,0.28,0.14203,0.64333,5,2D1U,1.0,True,0.359,44,True,left,0.08355,0.2265,1.1357,0.9092,1.7858,2.6359,0.8502,A,0.27
281,0.50129,1.2,1,0.21723,0.20887,0.48458,281,1.83807,-0.14,-0.06684,0.4261,5,1D2U,1.0,False,0.359,46,True,left,-0.25065,0.0849,0.777,0.6921,1.2516,1.768,0.5164,A,0.27
282,0.50129,0.1,2,0.24229,0.26736,0.75194,282,2.17227,-0.18,-0.0919,0.40939,5,1D2U,1.0,True,0.325,47,True,left,0.08355,1.5432,2.2265,0.6833,0.0677,0.9265,0.8588,A,0.275
283,0.50129,0.1,2,0.35091,0.20887,0.50129,283,2.20569,0.28,0.14203,0.64333,5,2D1U,2.0,True,0.3,44,True,right,-0.25065,1.2287,2.1453,0.9166,0.3371,0.8619,0.5249,A,0.275
284,0.50129,1.2,1,0.32584,0.29242,0.79371,284,2.32265,-0.18,-0.0919,0.40939,5,1D2U,2.0,True,0.534,47,True,right,0.08355,0.1914,0.8664,0.675,1.4827,2.3327,0.85,A,0.27
285,0.50129,1.2,2,0.30913,0.28407,0.73523,285,2.25582,-0.14,-0.06684,0.4261,5,1D2U,1.0,True,0.301,48,True,left,-0.25065,1.4171,2.1084,0.6914,0.3,0.8168,0.5168,A,0.27
286,0.50129,0.1,2,0.21723,0.30078,0.84384,286,2.4814,0.24,0.11697,0.61826,5,2D1U,2.0,True,0.25,44,False,right,0.08355,1.6055,2.4969,0.8914,0.0396,0.8973,0.8578,A,0.275
287,0.50129,0.1,1,0.35091,0.26736,0.50129,287,2.04695,-0.14,-0.06684,0.4261,5,1D2U,2.0,True,0.3,48,True,right,-0.25065,0.2204,0.9203,0.6998,1.4118,1.9373,0.5255,A,0.275
288,0.50129,1.2,1,0.28407,0.36762,0.8522,288,2.45634,-0.1,-0.05013,0.45116,5,1D2U,2.0,True,0.317,48,False,right,0.08355,0.1461,0.8623,0.7161,1.5376,2.3873,0.8497,A,0.27
289,0.50129,1.2,1,0.24229,0.40939,0.48458,289,2.25581,0.24,0.11697,0.61826,5,2D1U,1.0,True,0.325,44,False,left,-0.25065,0.1059,0.9887,0.8828,1.4637,1.9804,0.5167,A,0.27
290,0.50129,0.1,2,0.20052,0.37597,0.88562,290,2.56495,0.2,0.10026,0.60155,5,2D1U,2.0,True,0.308,44,False,right,0.08355,1.6305,2.5054,0.8749,0.0215,0.8805,0.859,A,0.275
291,0.50129,0.1,1,0.41774,0.37597,0.44281,291,2.33936,0.2,0.10026,0.60155,5,2D1U,1.0,True,0.242,44,False,left,-0.25065,0.2818,1.1565,0.8747,1.5896,2.1147,0.5251,A,0.275
292,0.50129,1.2,1,0.43445,0.36762,0.55142,292,2.30594,-0.1,-0.05013,0.45116,5,1D2U,2.0,True,0.267,48,False,right,0.08355,0.2978,1.014,0.7162,1.3896,2.2396,0.85,A,0.27
293,0.50129,1.2,1,0.44281,0.23394,0.74359,293,2.49812,0.16,0.08355,0.57649,5,2D1U,1.0,True,0.25,44,False,left,-0.25065,0.3073,1.1482,0.8409,1.8821,2.3988,0.5167,A,0.27
294,0.50129,0.1,1,0.31749,0.30078,0.41774,294,2.00517,-0.06,-0.03342,0.46787,5,1D2U,1.0,False,0.125,48,False,left,0.08355,0.1858,0.9275,0.7416,1.1691,2.0268,0.8577,A,0.275
295,0.50129,0.1,1,0.25065,0.35091,0.8522,295,2.40621,-0.1,-0.05013,0.45116,5,1D2U,2.0,True,0.3,49,True,right,-0.25065,0.1194,0.8451,0.7256,1.6867,2.2117,0.525,A,0.275
296,0.50129,1.2,1,0.22558,0.28407,0.56813,296,2.03023,-0.1,-0.05013,0.45116,5,1D2U,2.0,True,0.111,49,True,right,0.08355,0.0884,0.8052,0.7168,1.1966,2.0462,0.8496,A,0.27
297,0.50129,1.2,2,0.41774,0.28407,0.50965,297,2.28924,0.16,0.08355,0.57649,5,2D1U,2.0,True,0.325,44,False,right,-0.25065,1.2966,2.1381,0.8415,0.4061,0.9216,0.5155,A,0.27
298,0.50129,0.1,2,0.24229,0.3342,0.81878,298,2.45634,0.12,0.05848,0.55978,5,2D1U,2.0,True,0.35,44,False,right,0.08355,1.6044,2.4387,0.8342,0.0635,0.9223,0.8588,A,0.275
299,0.50129,0.1,2,0.30913,0.26736,0.40939,299,1.95504,-0.06,-0.03342,0.46787,5,1D2U,1.0,True,0.383,50,True,left,-0.25065,1.0967,1.8391,0.7424,0.2972,0.8214,0.5242,A,0.275
300,0.50129,1.2,1,0.24229,0.45116,0.67675,300,2.43127,0.12,0.05848,0.55978,5,2D1U,2.0,False,0.409,44,False,right,0.08355,0.1097,0.9347,0.825,1.435,2.2842,0.8492,A,0.27
301,0.50129,1.2,1,0.45116,0.31749,0.44281,301,2.28924,0.16,0.08355,0.57649,5,2D1U,1.0,True,0.409,45,True,left,-0.25065,0.32,1.1618,0.8418,1.5948,2.1114,0.5167,A,0.27
302,0.50129,0.1,2,0.3342,0.32584,0.65168,302,2.3895,0.16,0.08355,0.57649,5,2D1U,1.0,False,0.325,45,True,left,0.08355,1.535,2.3847,0.8498,0.1594,1.0176,0.8582,A,0.275
303,0.50129,0.1,2,0.40103,0.23394,0.76029,303,2.36442,-0.06,-0.03342,0.46787,5,1D2U,1.0,True,0.375,50,True,left,-0.25065,1.5444,2.2861,0.7417,0.3947,0.9195,0.5248,A,0.275
304,0.50129,1.2,1,0.40103,0.39268,0.6851,304,2.58165,0.2,0.10026,0.60155,5,2D1U,2.0,False,0.284,45,False,right,0.08355,0.2673,1.1341,0.8668,1.6424,2.4924,0.85,A,0.27
305,0.50129,1.2,1,0.36762,0.28407,0.71852,305,2.48976,0.24,0.11697,0.61826,5,2D1U,1.0,True,0.383,45,False,left,-0.25065,0.2314,1.1146,0.8832,1.8231,2.3398,0.5167,A,0.27
306,0.50129,0.1,2,0.43445,0.41774,0.64333,306,2.48975,-0.02,-0.00835,0.49294,5,1D2U,2.0,False,0.325,50,False,right,0.08355,1.6281,2.3946,0.7665,0.2605,1.1199,0.8594,A,0.275
307,0.50129,0.1,1,0.29242,0.23394,0.73523,307,2.23075,-0.06,-0.03342,0.46787,5,1D2U,1.0,False,0.366,51,True,left,-0.25065,0.1606,0.9018,0.7412,1.6267,2.1517,0.525,A,0.275
308,0.50129,1.2,2,0.32584,0.37597,0.71852,308,2.53988,0.24,0.11697,0.61826,5,2D1U,2.0,True,0.325,45,False,right,0.08355,1.5797,2.4629,0.8832,0.1465,0.9963,0.8498,A,0.27
309,0.50129,1.2,2,0.31749,0.36762,0.43445,309,2.2224,0.2,0.10026,0.60155,5,2D1U,1.0,False,0.292,46,True,left,-0.25065,1.1261,1.992,0.8658,0.3086,0.8258,0.5172,A,0.27
310,0.50129,0.1,1,0.39268,0.20887,0.58484,310,2.13884,-0.1,-0.05013,0.45116,5,1D2U,2.0,True,0.291,51,False,right,0.08355,0.2558,0.9815,0.7257,1.3893,2.2472,0.8579,A,0.275
311,0.50129,0.1,2,0.4261,0.29242,0.61826,311,2.28923,-0.1,-0.05013,0.45116,5,1D2U,2.0,False,0.383,51,False,right,-0.25065,1.4223,2.1474,0.7251,0.4142,0.9392,0.525,A,0.275
312,0.50129,1.2,2,0.21723,0.259,0.84384,312,2.43962,0.24,0.11697,0.61826,5,2D1U,2.0,True,0.112,47,True,right,0.08355,1.5981,2.4817,0.8836,0.0396,0.89,0.8504,A,0.27
313,0.50129,1.2,1,0.39268,0.3342,0.71852,313,2.37279,-0.14,-0.06684,0.4261,5,1D2U,2.0,True,0.3,51,False,right,-0.25065,0.2599,0.9514,0.6915,1.6598,2.1765,0.5167,A,0.27
314,0.50129,0.1,1,0.35926,0.34255,0.55142,314,2.37278,0.24,0.11697,0.61826,5,2D1U,1.0,True,0.274,47,True,left,0.08355,0.2225,1.1149,0.8924,1.4899,2.3481,0.8582,A,0.275
315,0.50129,0.1,1,0.20887,0.3342,0.52636,315,2.17227,0.2,0.10026,0.60155,5,2D1U,2.0,False,0.283,48,True,right,-0.25065,0.0719,0.947,0.8751,1.4636,1.9887,0.5251,A,0.275
316,0.50129,1.2,1,0.41774,0.31749,0.8522,316,2.51482,-0.14,-0.06684,0.4261,5,1D2U,2.0,True,0.333,51,False,right,0.08355,0.2799,0.9715,0.6916,1.6461,2.4964,0.8503,A,0.27
317,0.50129,1.2,2,0.44281,0.30078,0.81878,317,2.51482,-0.1,-0.05013,0.45116,5,1D2U,1.0,True,0.408,52,True,left,-0.25065,1.6367,2.3531,0.7164,0.4367,0.9531,0.5164,A,0.27
318,0.50129,0.1,1,0.41774,0.35926,0.60155,318,2.4981,0.24,0.11697,0.61826,5,2D1U,1.0,True,0.242,49,True,left,0.08355,0.2852,1.1773,0.8922,1.6023,2.4607,0.8583,A,0.275
319,0.50129,0.1,1,0.28407,0.45116,0.80207,319,2.65685,0.24,0.11697,0.61826,5,2D1U,1.0,True,0.334,49,True,left,-0.25065,0.1501,1.0416,0.8916,1.8325,2.3582,0.5257,A,0.275
320,0.50129,1.2,2,0.35091,0.38432,0.43445,320,2.12213,-0.1,-0.05013,0.45116,5,1D2U,1.0,True,0.267,52,True,left,0.08355,1.3247,2.0415,0.7168,0.1749,1.0247,0.8498,A,0.27
321,0.50129,1.2,1,0.21723,0.4261,0.55142,321,2.29759,0.2,0.10026,0.60155,5,2D1U,2.0,False,0.392,50,True,right,-0.25065,0.0864,0.9528,0.8665,1.494,2.0111,0.5171,A,0.27
322,0.50129,0.1,2,0.23394,0.27571,0.66839,322,2.1472,-0.06,-0.03342,0.46787,5,1D2U,1.0,True,0.117,52,False,left,0.08355,1.4464,2.1969,0.7505,0.0554,0.9136,0.8582,A,0.275
323,0.50129,0.1,1,0.32584,0.40939,0.48458,323,2.18897,-0.06,-0.03342,0.46787,5,1D2U,2.0,True,0.275,52,False,right,-0.25065,0.1944,0.9358,0.7414,1.4118,1.9361,0.5243,A,0.275
324,0.50129,1.2,2,0.37597,0.34255,0.63497,324,2.47304,0.24,0.11697,0.61826,5,2D1U,2.0,True,0.284,51,True,right,0.08355,1.5516,2.4348,0.8831,0.2013,1.0515,0.8501,A,0.27
325,0.50129,1.2,1,0.38432,0.39268,0.50129,325,2.39784,0.24,0.11697,0.61826,5,2D1U,2.0,False,0.716,51,True,right,-0.25065,0.2516,1.1347,0.8831,1.6264,2.1427,0.5163,A,0.27
326,0.50129,0.1,2,0.35926,0.30078,0.8522,326,2.65686,0.28,0.14203,0.64333,5,2D1U,2.0,True,0.333,51,False,right,0.08355,1.7611,2.6857,0.9246,0.1855,1.044,0.8585,A,0.275
327,0.50129,0.1,1,0.41774,0.31749,0.82713,327,2.55659,-0.02,-0.00835,0.49294,5,1D2U,1.0,False,0.35,52,False,left,-0.25065,0.2844,1.0514,0.767,1.8681,2.3929,0.5248,A,0.275
328,0.50129,1.2,1,0.36762,0.39268,0.86891,328,2.77383,0.28,0.14203,0.64333,5,2D1U,1.0,True,0.484,51,False,left,0.08355,0.2286,1.1369,0.9083,1.8285,2.6787,0.8502,A,0.27
329,0.50129,1.2,2,0.34255,0.43445,0.41774,329,2.31429,0.24,0.11697,0.61826,5,2D1U,2.0,True,0.316,52,True,right,-0.25065,1.1304,2.0143,0.8839,0.3306,0.8476,0.517,A,0.27
330,0.50129,0.1,1,0.26736,0.31749,0.49294,330,2.04695,-0.06,-0.03342,0.46787,5,1D2U,2.0,True,0.609,53,True,right,0.08355,0.1333,0.8754,0.7421,1.1906,2.0495,0.8589,A,0.275
331,0.50129,0.1,2,0.3342,0.35926,0.55142,331,2.21404,-0.06,-0.03342,0.46787,5,1D2U,1.0,True,0.292,53,True,left,-0.25065,1.2654,2.0067,0.7413,0.3234,0.8481,0.5247,A,0.275
332,0.50129,1.2,1,0.27571,0.34255,0.90233,332,2.51482,-0.02,-0.00835,0.49294,5,1D2U,2.0,True,0.325,54,True,right,0.08355,0.144,0.9025,0.7585,1.6282,2.4777,0.8495,A,0.27
333,0.50129,1.2,1,0.26736,0.30913,0.54307,333,2.23911,0.24,0.11697,0.61826,5,2D1U,1.0,True,0.341,52,True,left,-0.25065,0.1303,1.0136,0.8833,1.5469,2.0641,0.5172,A,0.27
334,0.50129,0.1,1,0.37597,0.38432,0.83549,334,2.59001,-0.02,-0.00835,0.49294,5,1D2U,1.0,False,0.333,54,True,left,0.08355,0.2406,1.0074,0.7668,1.6652,2.5244,0.8592,A,0.275
335,0.50129,0.1,2,0.259,0.40103,0.56813,335,2.19732,-0.06,-0.03342,0.46787,5,1D2U,1.0,True,0.3,55,True,left,-0.25065,1.2086,1.9504,0.7418,0.2501,0.7746,0.5245,A,0.275
336,0.50129,1.2,2,0.39268,0.259,0.65168,336,2.27252,-0.06,-0.03342,0.46787,5,1D2U,2.0,False,0.358,55,True,right,0.08355,1.5794,2.3123,0.7329,0.2131,1.063,0.8498,A,0.27
337,0.50129,1.2,1,0.34255,0.38432,0.53471,337,2.36442,0.2,0.10026,0.60155,5,2D1U,2.0,False,0.375,52,False,right,-0.25065,0.2112,1.0792,0.8679,1.6043,2.1206,0.5162,A,0.27
338,0.50129,0.1,2,0.28407,0.43445,0.8522,338,2.52317,-0.1,-0.05013,0.45116,5,1D2U,1.0,True,0.425,55,False,left,0.08355,1.6872,2.4114,0.7242,0.1111,0.97,0.8589,A,0.275
339,0.50129,0.1,2,0.20052,0.26736,0.49294,339,2.08037,0.24,0.11697,0.61826,5,2D1U,2.0,True,0.349,53,True,right,-0.25065,1.0779,1.9695,0.8916,0.1945,0.7199,0.5254,A,0.275
340,0.50129,1.2,2,0.23394,0.39268,0.71017,340,2.45634,0.24,0.11697,0.61826,5,2D1U,2.0,True,0.342,53,True,right,0.08355,1.4797,2.3631,0.8833,0.0545,0.9047,0.8503,A,0.27
341,0.50129,1.2,1,0.35091,0.39268,0.81878,341,2.51482,-0.1,-0.05013,0.45116,5,1D2U,2.0,True,0.434,55,False,right,-0.25065,0.2159,0.9326,0.7167,1.7403,2.2576,0.5174,A,0.27
342,0.50129,0.1,1,0.23394,0.38432,0.56813,342,2.28923,0.2,0.10026,0.60155,5,2D1U,1.0,True,0.292,54,True,left,0.08355,0.0991,0.9742,0.8751,1.3656,2.224,0.8584,A,0.275
343,0.50129,0.1,2,0.31749,0.23394,0.55142,343,2.07201,-0.06,-0.03342,0.46787,5,1D2U,2.0,False,0.4,56,True,right,-0.25065,1.2454,1.9871,0.7418,0.3035,0.8288,0.5253,A,0.275
344,0.50129,1.2,2,0.29242,0.21723,0.46787,344,1.92997,-0.1,-0.05013,0.45116,5,1D2U,1.0,True,0.275,57,True,left,0.08355,1.3033,2.0194,0.7162,0.1198,0.9699,0.85,A,0.27
345,0.50129,1.2,1,0.38432,0.41774,0.78536,345,2.53987,-0.1,-0.05013,0.45116,5,1D2U,2.0,True,0.316,57,True,right,-0.25065,0.251,0.9683,0.7172,1.7431,2.2601,0.517,A,0.27
346,0.50129,0.1,1,0.40103,0.29242,0.81878,346,2.48139,-0.06,-0.03342,0.46787,5,1D2U,2.0,True,0.3,58,True,right,0.08355,0.268,1.0096,0.7416,1.6516,2.5096,0.858,A,0.275
347,0.50129,0.1,1,0.38432,0.259,0.61826,347,2.23074,-0.06,-0.03342,0.46787,5,1D2U,2.0,True,0.308,58,True,right,-0.25065,0.2478,0.9903,0.7424,1.598,2.1233,0.5253,A,0.275
348,0.50129,1.2,2,0.40103,0.3342,0.73523,348,2.46469,-0.02,-0.00835,0.49294,5,1D2U,2.0,False,0.45,58,False,right,0.08355,1.6758,2.4341,0.7583,0.2253,1.0762,0.8509,A,0.27
349,0.50129,1.2,1,0.39268,0.41774,0.69346,349,2.47304,-0.06,-0.03342,0.46787,5,1D2U,2.0,True,0.258,59,True,right,-0.25065,0.2595,0.9924,0.7329,1.6766,2.1928,0.5162,A,0.27
350,0.50129,0.1,1,0.23394,0.20887,0.44281,350,1.85478,-0.06,-0.03342,0.46787,5,1D2U,2.0,True,1.075,59,True,right,0.08355,0.0963,0.839,0.7426,1.1052,1.9636,0.8585,A,0.275
351,0.50129,0.1,2,0.37597,0.3342,0.8522,351,2.5566,-0.02,-0.00835,0.49294,5,1D2U,1.0,True,0.284,60,True,left,-0.25065,1.605,2.3716,0.7665,0.363,0.888,0.525,A,0.275
