,standardDur,audNoise,order,preDur,postDur,isiDur,trial_num,totalDur,delta_dur_percents,deltaDurS,testDurS,intensities,current_stair,responses,is_correct,response_rts,stair_num_reversal,stair_is_reversal,response_keys,conflictDur,recordedOnsetVisualTest,recordedOffsetVisualTest,recordedDurVisualTest,recordedOnsetVisualStandard,recordedOffsetVisualStandard,recordedDurVisualStandard,modalityCue
0,0.49781,1.2,1,0.29869,0.35677,0.82139,0,2.02444,-0.9,-0.44803,0.04978,5,lapse_rate,2.0,True,3.318,0,False,right,0.16594,0.2137,0.4389,0.2252,1.0972,1.9387,0.8416,A
1,0.49781,1.2,1,0.34847,0.29039,0.71353,1,2.67159,0.65,0.32358,0.82139,5,2D1U,1.0,True,0.618,0,False,left,-0.08297,0.2651,1.2653,1.0002,1.9401,2.5318,0.5917,A
2,0.49781,1.2,2,0.33188,0.34017,0.73013,2,2.07423,-0.65,-0.32358,0.17424,5,2U1D,1.0,True,0.519,0,False,left,0.16594,1.8223,1.9055,0.0832,0.1642,1.0057,0.8415,A
3,0.49781,0.1,2,0.22402,0.2655,0.77991,3,2.72138,0.9,0.44803,0.95414,5,lapse_rate,2.0,True,0.109,0,False,right,-0.08297,1.4979,2.4403,0.9424,0.2487,0.698,0.4493,A
4,0.49781,0.1,1,0.31528,0.21572,0.7965,4,2.6467,0.65,0.32358,0.82139,5,2D1U,1.0,True,0.483,0,False,left,0.16594,0.3013,1.1594,0.858,1.8598,2.5596,0.6998,A
5,0.49781,0.1,2,0.43144,0.44803,0.43974,5,1.99126,-0.65,-0.32358,0.17424,5,2U1D,1.0,True,0.282,0,False,left,-0.08297,1.362,1.5212,0.1591,0.4536,0.9034,0.4498,A
6,0.49781,1.2,1,0.35677,0.20742,0.58908,6,2.42269,0.55,0.2738,0.77161,5,2D1U,1.0,True,0.337,0,False,left,0.16594,0.2739,1.224,0.9501,1.6492,999,997.3508,A
7,0.49781,1.2,2,0.41485,0.40655,0.87118,7,2.24017,-0.9,-0.44803,0.04978,5,lapse_rate,1.0,True,0.342,0,False,left,-0.08297,1.9223,1.8801,-0.0422,0.3722,0.9636,0.5914,A
8,0.49781,0.1,2,0.43144,0.43974,0.43974,8,1.85851,-0.9,-0.44803,0.04978,5,lapse_rate,1.0,True,0.276,0,False,left,0.16594,1.4895,1.5213,0.0319,0.3304,1.0294,0.699,A
9,0.49781,1.2,2,0.43974,0.36506,0.68035,9,2.20698,-0.55,-0.2738,0.22402,5,2U1D,1.0,True,0.242,0,False,left,-0.08297,1.7604,1.8938,0.1334,0.4015,0.9933,0.5918,A
10,0.49781,0.1,1,0.31528,0.2572,0.70524,10,2.54714,0.55,0.2738,0.77161,5,2D1U,1.0,True,0.277,0,False,left,0.16594,0.2964,1.1039,0.8075,1.7129,2.4123,0.6994,A
11,0.49781,0.1,1,0.2572,0.40655,0.58078,11,1.79212,-0.9,-0.44803,0.04978,5,lapse_rate,2.0,True,1.092,0,False,right,-0.08297,0.2375,0.3211,0.0836,0.9289,1.3788,0.4499,A
12,0.49781,0.1,1,0.32358,0.2572,0.69694,12,1.99955,-0.55,-0.2738,0.22402,5,2U1D,2.0,True,0.225,0,False,right,0.16594,0.3103,0.5685,0.2582,1.1691,1.8685,0.6993,A
13,0.49781,1.2,2,0.34847,0.2655,0.70524,13,2.53885,0.45,0.22402,0.72183,5,2D1U,2.0,True,0.242,0,False,right,-0.08297,1.6896,2.3228,0.6332,0.3062,0.898,0.5919,A
14,0.49781,1.2,2,0.20742,0.20742,0.72183,14,2.35631,0.45,0.22402,0.72183,5,2D1U,1.0,False,0.368,0,False,left,0.16594,1.6896,2.3228,0.6332,0.0397,0.8816,0.842,A
15,0.49781,0.1,2,0.36506,0.37336,0.55589,15,2.06592,-0.45,-0.22402,0.2738,5,2U1D,1.0,True,0.267,0,False,left,-0.08297,1.4135,1.6718,0.2582,0.3884,0.839,0.4506,A
16,0.49781,1.2,2,0.2738,0.21572,0.43974,16,1.47685,-0.9,-0.44803,0.04978,5,lapse_rate,1.0,True,0.439,0,False,left,0.16594,1.4712,1.4296,-0.0416,0.1048,0.9475,0.8427,A
17,0.49781,0.1,2,0.43974,0.35677,0.48952,17,2.53886,0.51,0.2572,0.75502,5,2D1U,2.0,True,0.225,1,True,right,-0.08297,1.4232,2.1648,0.7416,0.465,0.9149,0.4499,A
18,0.49781,1.2,1,0.2738,0.36506,0.58908,18,1.99955,-0.45,-0.22402,0.2738,5,2U1D,2.0,True,0.375,0,False,right,0.16594,0.1894,0.6393,0.4499,1.0643,1.9061,0.8418,A
19,0.49781,1.2,2,0.29869,0.34017,0.59738,19,1.78383,-0.9,-0.44803,0.04978,5,lapse_rate,1.0,True,0.359,0,False,left,-0.08297,1.5314,1.4899,-0.0415,0.2566,0.8482,0.5916,A
20,0.49781,1.2,2,0.39825,0.38166,0.77991,20,2.81265,0.51,0.2572,0.75502,5,2D1U,2.0,True,0.382,1,True,right,0.16594,1.9389,2.6054,0.6665,0.2302,1.072,0.8418,A
21,0.49781,0.1,1,0.31528,0.38995,0.63057,21,2.15719,-0.35,-0.17424,0.32358,5,2U1D,2.0,True,0.206,0,False,right,-0.08297,0.3002,0.6585,0.3582,1.3162,1.7669,0.4506,A
22,0.49781,0.1,1,0.40655,0.2738,0.46463,22,2.59693,0.9,0.44803,0.95414,5,lapse_rate,1.0,True,0.314,0,False,left,0.16594,0.3894,1.3799,0.9905,1.7465,2.4464,0.7,A
23,0.49781,0.1,2,0.28209,0.33188,0.48952,23,2.33972,0.474,0.24061,0.73842,5,2D1U,2.0,True,0.275,2,True,right,-0.08297,1.2678,1.9936,0.7258,0.3098,0.7597,0.4498,A
24,0.49781,1.2,2,0.35677,0.39825,0.58078,24,2.15719,-0.35,-0.17424,0.32358,5,2U1D,1.0,True,0.492,0,False,left,0.16594,1.6999,1.9331,0.2332,0.1919,1.0332,0.8414,A
25,0.49781,0.1,1,0.38166,0.36506,0.63886,25,2.83753,0.9,0.44803,0.95414,5,lapse_rate,1.0,True,0.233,0,False,left,-0.08297,0.3627,1.3549,0.9922,2.0216,2.4717,0.4501,A
26,0.49781,1.2,2,0.36506,0.31528,0.89607,26,2.81264,0.474,0.24061,0.73842,5,2D1U,1.0,False,0.283,2,True,left,0.16594,2.026,2.676,0.65,0.2011,1.0421,0.841,A
27,0.49781,0.1,1,0.29039,0.22402,0.47292,27,1.8585,-0.25,-0.12445,0.37336,5,2U1D,1.0,False,0.435,0,False,left,-0.08297,0.2736,0.682,0.4084,1.1819,1.6321,0.4502,A
28,0.49781,1.2,1,0.32358,0.38166,0.89607,28,3.05326,0.9,0.44803,0.95414,5,lapse_rate,1.0,True,0.308,0,False,left,0.16594,0.2393,1.3722,1.133,2.1062,2.9477,0.8415,A
29,0.49781,0.1,1,0.2572,0.30699,0.82969,29,2.64671,0.51,0.2572,0.75502,5,2D1U,1.0,True,0.209,3,True,left,-0.08297,0.2402,1.0318,0.7916,1.8896,2.3402,0.4506,A
30,0.49781,1.2,1,0.44803,0.2738,0.48122,30,2.04933,-0.31,-0.15764,0.34847,5,2U1D,1.0,False,0.417,1,True,left,0.16594,0.3678,0.8922,0.5244,1.2103,2.0513,0.841,A
31,0.49781,0.1,1,0.40655,0.28209,0.531,31,2.67159,0.9,0.44803,0.95414,5,lapse_rate,1.0,True,0.218,0,False,left,-0.08297,0.3905,1.3818,0.9913,1.9402,2.3903,0.4501,A
32,0.49781,1.2,1,0.33188,0.38166,0.8048,32,2.77117,0.51,0.2572,0.75502,5,2D1U,1.0,True,0.2,3,True,left,0.16594,0.2515,1.1843,0.9329,1.8264,2.668,0.8416,A
33,0.49781,0.1,1,0.30699,0.41485,0.59738,33,1.86681,-0.9,-0.44803,0.04978,5,lapse_rate,2.0,True,0.52,0,False,right,-0.08297,0.2878,0.3712,0.0833,0.9963,1.4464,0.4501,A
34,0.49781,0.1,2,0.43144,0.38995,0.60567,34,2.24015,-0.37,-0.18253,0.31528,5,2U1D,1.0,True,0.217,1,False,left,0.16594,1.6589,1.9588,0.2999,0.3333,1.0339,0.7006,A
35,0.49781,0.1,2,0.34847,0.33188,0.40655,35,2.53885,0.9,0.44803,0.95414,5,lapse_rate,2.0,True,0.113,0,False,right,-0.08297,1.2485,2.1899,0.9413,0.3734,0.8236,0.4502,A
36,0.49781,0.1,1,0.34847,0.37336,0.5393,36,2.49736,0.474,0.24061,0.73842,5,2D1U,1.0,True,0.234,4,True,left,0.16594,0.3326,1.1072,0.7747,1.5491,2.2487,0.6996,A
37,0.49781,1.2,1,0.34017,0.30699,0.73013,37,2.19038,-0.37,-0.18253,0.31528,5,2U1D,2.0,True,0.252,1,False,right,-0.08297,0.2578,0.7496,0.4918,1.4411,2.0327,0.5916,A
38,0.49781,1.2,1,0.28209,0.21572,0.43144,38,2.3812,0.9,0.44803,0.95414,5,lapse_rate,1.0,True,0.242,0,False,left,0.16594,0.2017,1.3351,1.1334,1.6016,999,997.3984,A
39,0.49781,1.2,2,0.24061,0.44803,0.76332,39,2.68819,0.474,0.24061,0.73842,5,2D1U,1.0,False,0.192,4,True,left,-0.08297,1.6401,2.2899,0.6498,0.1985,0.79,0.5915,A
40,0.49781,0.1,2,0.21572,0.23231,0.48122,40,1.75894,-0.334,-0.16594,0.33188,5,2U1D,1.0,True,0.326,2,True,left,0.16594,1.3204,1.6371,0.3167,0.1208,0.82,0.6993,A
41,0.49781,0.1,2,0.42314,0.22402,0.55589,41,1.75064,-0.9,-0.44803,0.04978,5,lapse_rate,1.0,True,0.356,0,False,left,-0.08297,1.4757,1.5092,0.0335,0.4509,0.9009,0.45,A
42,0.49781,0.1,1,0.35677,0.24061,0.77161,42,2.19868,-0.334,-0.16594,0.33188,5,2U1D,2.0,True,0.293,2,True,right,0.16594,0.3451,0.7124,0.3672,1.3867,2.0869,0.7002,A
43,0.49781,1.2,2,0.35677,0.34847,0.59738,43,2.55545,0.51,0.2572,0.75502,5,2D1U,2.0,True,0.113,5,True,right,-0.08297,1.5888,2.2558,0.6669,0.3142,0.9058,0.5916,A
44,0.49781,1.2,2,0.29039,0.36506,0.87118,44,2.77946,0.51,0.2572,0.75502,5,2D1U,1.0,False,0.359,5,True,left,0.16594,1.9206,2.5872,0.6666,0.1205,0.9624,0.8418,A
45,0.49781,1.2,2,0.2655,0.30699,0.8131,45,1.93318,-0.9,-0.44803,0.04978,5,lapse_rate,1.0,True,0.375,0,False,left,-0.08297,1.7181,1.6764,-0.0417,0.2263,0.8179,0.5916,A
46,0.49781,0.1,1,0.44803,0.33188,0.68864,46,2.31483,-0.298,-0.14934,0.34847,5,2U1D,2.0,True,0.112,2,False,right,0.16594,0.4346,0.8178,0.3832,1.4093,2.1096,0.7003,A
47,0.49781,0.1,2,0.2655,0.41485,0.43974,47,2.38951,0.546,0.2738,0.77161,5,2D1U,2.0,True,0.157,5,False,right,-0.08297,1.1958,1.9541,0.7583,0.2869,0.7375,0.4506,A
48,0.49781,1.2,1,0.2738,0.35677,0.41485,48,2.49737,0.9,0.44803,0.95414,5,lapse_rate,1.0,True,0.347,0,False,left,0.16594,0.188,1.3213,1.1333,1.5709,2.413,0.8421,A
49,0.49781,1.2,2,0.35677,0.22402,0.82139,49,2.24846,-0.298,-0.14934,0.34847,5,2U1D,1.0,True,0.352,2,False,left,-0.08297,1.8142,2.0725,0.2583,0.314,0.9058,0.5918,A
50,0.49781,0.1,1,0.30699,0.35677,0.8131,50,2.92881,0.9,0.44803,0.95414,5,lapse_rate,1.0,True,0.114,0,False,left,0.16594,0.2949,1.2861,0.9912,2.0025,2.7029,0.7004,A
51,0.49781,1.2,2,0.31528,0.22402,0.77161,51,2.58033,0.546,0.2738,0.77161,5,2D1U,1.0,False,0.531,5,False,left,-0.08297,1.7261,2.4089,0.6828,0.2762,0.8677,0.5915,A
52,0.49781,0.1,2,0.28209,0.43974,0.59738,52,2.18208,-0.262,-0.13275,0.36506,5,2U1D,1.0,True,0.241,2,False,left,0.16594,1.4954,1.8458,0.3504,0.1791,0.8789,0.6998,A
53,0.49781,0.1,2,0.23231,0.32358,0.83799,53,2.6799,0.582,0.29039,0.78821,5,2D1U,1.0,False,0.343,5,False,left,-0.08297,1.5644,2.3394,0.775,0.2562,0.7063,0.4501,A
54,0.49781,1.2,2,0.2572,0.40655,0.58078,54,1.79212,-0.9,-0.44803,0.04978,5,lapse_rate,1.0,True,0.524,0,False,left,0.16594,1.5983,1.5567,-0.0416,0.0897,0.9315,0.8418,A
55,0.49781,1.2,1,0.42314,0.2738,0.47292,55,2.03273,-0.262,-0.13275,0.36506,5,2U1D,2.0,True,0.358,2,False,right,-0.08297,0.3375,0.8785,0.541,1.3124,1.904,0.5916,A
56,0.49781,1.2,1,0.32358,0.42314,0.58908,56,2.78775,0.9,0.44803,0.95414,5,lapse_rate,1.0,True,0.292,0,False,left,0.16594,0.2388,1.3728,1.134,1.7976,2.6395,0.8419,A
57,0.49781,1.2,2,0.39825,0.38995,0.60567,57,2.28163,-0.226,-0.11616,0.38995,5,2U1D,1.0,True,0.233,2,False,left,-0.08297,1.641,1.9409,0.2999,0.3575,0.9487,0.5912,A
58,0.49781,0.1,2,0.31528,0.35677,0.58078,58,2.56374,0.618,0.30699,0.8131,5,2D1U,1.0,False,0.233,5,False,left,0.16594,1.518,2.3182,0.8002,0.2172,0.9181,0.7009,A
59,0.49781,1.2,1,0.32358,0.38995,0.85458,59,2.1157,-0.9,-0.44803,0.04978,5,lapse_rate,2.0,True,0.112,0,False,right,-0.08297,0.2386,0.4636,0.225,1.2803,1.872,0.5917,A
60,0.49781,0.1,1,0.21572,0.39825,0.75502,60,2.69649,0.654,0.32358,0.82969,5,2D1U,1.0,True,0.303,5,False,left,0.16594,0.197,1.0633,0.8664,1.723,2.4223,0.6994,A
61,0.49781,1.2,1,0.22402,0.43974,0.8131,61,2.36462,-0.226,-0.11616,0.38995,5,2U1D,1.0,False,0.506,2,False,left,-0.08297,0.138,0.7045,0.5665,1.4794,2.0712,0.5918,A
62,0.49781,0.1,2,0.23231,0.41485,0.52271,62,1.71746,-0.9,-0.44803,0.04978,5,lapse_rate,1.0,True,0.25,0,False,left,0.16594,1.3727,1.406,0.0334,0.131,0.8309,0.6999,A
63,0.49781,1.2,2,0.29869,0.43974,0.52271,63,2.58864,0.654,0.32358,0.82969,5,2D1U,1.0,False,0.445,5,False,left,-0.08297,1.454,2.1956,0.7416,0.2543,0.8457,0.5915,A
64,0.49781,0.1,1,0.2572,0.21572,0.47292,64,1.80871,-0.262,-0.13275,0.36506,5,2U1D,2.0,True,0.258,3,True,right,0.16594,0.2436,0.6439,0.4003,1.0191,1.719,0.6999,A
65,0.49781,1.2,2,0.24891,0.44803,0.63057,65,1.8751,-0.9,-0.44803,0.04978,5,lapse_rate,1.0,True,0.343,0,False,left,-0.08297,1.5139,1.4723,-0.0416,0.2054,0.7966,0.5913,A
66,0.49781,0.1,2,0.29039,0.39825,0.46463,66,2.49736,0.69,0.34847,0.84628,5,2D1U,2.0,True,0.263,5,False,right,0.16594,1.3746,2.2079,0.8333,0.1917,0.8913,0.6995,A
67,0.49781,1.2,1,0.43144,0.39825,0.48952,67,2.18208,-0.262,-0.13275,0.36506,5,2U1D,2.0,True,0.249,3,True,right,-0.08297,0.3474,0.8897,0.5423,1.3399,1.9313,0.5914,A
68,0.49781,1.2,1,0.41485,0.35677,0.75502,68,2.07423,-0.9,-0.44803,0.04978,5,lapse_rate,2.0,True,0.125,0,False,right,0.16594,0.3307,0.5559,0.2252,1.1476,1.9893,0.8417,A
69,0.49781,1.2,2,0.2655,0.30699,0.45633,69,2.37291,0.69,0.34847,0.84628,5,2D1U,2.0,True,0.111,5,False,right,-0.08297,1.3565,2.1148,0.7584,0.2232,0.8149,0.5917,A
70,0.49781,0.1,2,0.28209,0.43974,0.67205,70,2.28164,-0.226,-0.11616,0.38995,5,2U1D,1.0,True,0.19,4,True,left,0.16594,1.5721,1.947,0.375,0.1803,0.8803,0.6999,A
71,0.49781,0.1,2,0.24061,0.23231,0.77161,71,2.57203,0.654,0.32358,0.82969,5,2D1U,2.0,True,0.351,6,True,right,-0.08297,1.5046,2.3211,0.8165,0.2627,0.7127,0.45,A
72,0.49781,1.2,1,0.40655,0.24061,0.84628,72,2.3812,-0.226,-0.11616,0.38995,5,2U1D,2.0,True,0.547,4,True,right,0.16594,0.3218,0.8883,0.5665,1.5715,999,997.4285,A
73,0.49781,0.1,2,0.23231,0.29039,0.51441,73,2.48906,0.9,0.44803,0.95414,5,lapse_rate,2.0,True,0.6,0,False,right,-0.08297,1.2443,2.186,0.9417,0.2607,0.7116,0.451,A
74,0.49781,1.2,1,0.42314,0.38995,0.51441,74,2.655,0.654,0.32358,0.82969,5,2D1U,2.0,False,0.528,6,True,right,0.16594,0.3387,1.3468,1.0081,1.6967,2.5387,0.842,A
75,0.49781,0.1,2,0.28209,0.23231,0.66375,75,2.08251,-0.19,-0.09127,0.40655,5,2U1D,1.0,True,0.3,4,False,left,-0.08297,1.4384,1.8304,0.392,0.3051,0.7556,0.4505,A
76,0.49781,1.2,2,0.31528,0.2572,0.77991,76,2.80434,0.9,0.44803,0.95414,5,lapse_rate,2.0,True,0.701,0,False,right,0.16594,1.8564,2.7231,0.8667,0.1483,0.9902,0.842,A
77,0.49781,0.1,2,0.22402,0.38995,0.58908,77,2.54714,0.69,0.34847,0.84628,5,2D1U,2.0,True,0.491,7,True,right,-0.08297,1.3112,2.1446,0.8334,0.253,0.7026,0.4497,A
78,0.49781,1.2,1,0.34017,0.2738,0.70524,78,2.22357,-0.19,-0.09127,0.40655,5,2U1D,1.0,False,0.65,4,False,left,0.16594,0.2613,0.8449,0.5836,1.3867,2.2281,0.8415,A
79,0.49781,0.1,2,0.29039,0.24891,0.68864,79,1.77553,-0.9,-0.44803,0.04978,5,lapse_rate,1.0,True,0.357,0,False,left,-0.08297,1.4767,1.5099,0.0331,0.318,0.7685,0.4505,A
80,0.49781,1.2,2,0.29039,0.2738,0.84628,80,2.29823,-0.226,-0.11616,0.38995,5,2U1D,1.0,True,0.283,5,True,left,0.16594,1.8995,2.1998,0.3004,0.1247,0.9664,0.8417,A
81,0.49781,1.2,1,0.24061,0.29039,0.56419,81,2.54714,0.9,0.44803,0.95414,5,lapse_rate,1.0,True,0.241,0,False,left,-0.08297,0.1615,1.2946,1.1331,1.8191,2.4111,0.592,A
82,0.49781,0.1,1,0.2572,0.22402,0.82969,82,2.655,0.69,0.34847,0.84628,5,2D1U,1.0,True,0.288,7,True,left,0.16594,0.2405,1.1235,0.8829,1.8567,2.557,0.7003,A
83,0.49781,0.1,2,0.22402,0.38166,0.49781,83,1.99125,-0.226,-0.11616,0.38995,5,2U1D,1.0,True,0.183,5,True,left,-0.08297,1.2136,1.5887,0.3751,0.2472,0.697,0.4498,A
84,0.49781,1.2,1,0.30699,0.2655,0.72183,84,2.74627,0.9,0.44803,0.95414,5,lapse_rate,1.0,True,0.249,0,False,left,0.16594,0.2231,1.3564,1.1332,1.9152,2.7634,0.8482,A
85,0.49781,1.2,1,0.38166,0.24891,0.70524,85,2.66331,0.654,0.32358,0.82969,5,2D1U,1.0,True,0.255,8,True,left,-0.08297,0.2978,1.3062,1.0085,1.9726,2.5644,0.5918,A
86,0.49781,0.1,2,0.32358,0.41485,0.8131,86,3.00348,0.9,0.44803,0.95414,5,lapse_rate,2.0,True,0.431,0,False,right,0.16594,1.7549,2.6969,0.9421,0.2216,0.9216,0.7,A
87,0.49781,1.2,2,0.21572,0.38995,0.49781,87,2.43098,0.654,0.32358,0.82969,5,2D1U,1.0,False,0.192,8,True,left,-0.08297,1.3513,2.0935,0.7422,0.1766,0.769,0.5924,A
88,0.49781,0.1,2,0.28209,0.36506,0.61397,88,2.16548,-0.19,-0.09127,0.40655,5,2U1D,1.0,True,0.142,6,True,left,0.16594,1.513,1.9049,0.3919,0.1799,0.8799,0.6999,A
89,0.49781,0.1,2,0.32358,0.39825,0.68035,89,2.30654,-0.19,-0.09127,0.40655,5,2U1D,1.0,True,0.318,6,True,left,-0.08297,1.5013,1.8933,0.3919,0.3513,0.8012,0.45,A
90,0.49781,0.1,1,0.2655,0.39825,0.5393,90,2.655,0.9,0.44803,0.95414,5,lapse_rate,1.0,True,0.225,0,False,left,0.16594,0.2471,1.2394,0.9924,1.6809,2.381,0.7002,A
91,0.49781,1.2,1,0.31528,0.31528,0.77161,91,2.74626,0.69,0.34847,0.84628,5,2D1U,1.0,True,0.225,9,True,left,-0.08297,0.2349,1.2591,1.0243,1.993,2.5847,0.5917,A
92,0.49781,1.2,2,0.40655,0.38166,0.59738,92,2.72968,0.69,0.34847,0.84628,5,2D1U,1.0,False,0.266,9,True,left,0.16594,1.7645,2.5222,0.7577,0.2392,1.0813,0.8421,A
93,0.49781,1.2,1,0.32358,0.21572,0.5393,93,1.62619,-0.9,-0.44803,0.04978,5,lapse_rate,2.0,True,0.195,0,False,right,-0.08297,0.2444,0.47,0.2255,0.9701,1.5612,0.5911,A
94,0.49781,0.1,1,0.36506,0.24061,0.5393,94,2.06592,-0.154,-0.07467,0.42314,5,2U1D,1.0,False,0.522,6,False,left,0.16594,0.3467,0.805,0.4582,1.2471,1.9464,0.6993,A
95,0.49781,0.1,2,0.42314,0.42314,0.43974,95,2.19038,-0.19,-0.09127,0.40655,5,2U1D,1.0,True,0.2,7,True,left,-0.08297,1.3568,1.7486,0.3918,0.448,0.8986,0.4506,A
96,0.49781,1.2,2,0.29039,0.40655,0.48122,96,2.53885,0.726,0.36506,0.86288,5,2D1U,2.0,True,0.701,9,False,right,0.16594,1.5318,2.3068,0.775,0.1238,0.9651,0.8413,A
97,0.49781,1.2,1,0.39825,0.32358,0.8048,97,2.97858,0.9,0.44803,0.95414,5,lapse_rate,2.0,False,0.554,0,False,right,-0.08297,0.3147,1.4481,1.1334,2.2148,2.8069,0.5921,A
98,0.49781,1.2,1,0.2738,0.2655,0.74672,98,2.19038,-0.19,-0.09127,0.40655,5,2U1D,1.0,False,0.774,7,True,left,0.16594,0.1894,0.7727,0.5833,1.356,2.1978,0.8417,A
99,0.49781,0.1,1,0.33188,0.33188,0.42314,99,2.44759,0.726,0.36506,0.86288,5,2D1U,1.0,True,0.242,9,False,left,-0.08297,0.3161,1.2154,0.8994,1.6655,2.116,0.4505,A
100,0.49781,0.1,1,0.38166,0.33188,0.82969,100,2.99518,0.9,0.44803,0.95414,5,lapse_rate,1.0,True,0.272,0,False,left,0.16594,0.3666,1.3582,0.9916,2.0912,2.7918,0.7006,A
101,0.49781,0.1,2,0.35677,0.38995,0.71353,101,2.34801,-0.226,-0.11616,0.38995,5,2U1D,1.0,True,0.186,7,False,left,-0.08297,1.5625,1.9368,0.3743,0.3789,0.8292,0.4502,A
102,0.49781,1.2,1,0.34017,0.39825,0.48122,102,2.67159,0.9,0.44803,0.95414,5,lapse_rate,1.0,True,0.342,0,False,left,0.16594,0.2605,1.3938,1.1333,1.7103,2.552,0.8417,A
103,0.49781,1.2,2,0.42314,0.36506,0.8131,103,2.94539,0.69,0.34847,0.84628,5,2D1U,1.0,False,0.425,10,True,left,-0.08297,1.8731,2.6315,0.7584,0.3812,0.9731,0.5918,A
104,0.49781,0.1,2,0.31528,0.35677,0.74672,104,2.87072,0.9,0.44803,0.95414,5,lapse_rate,1.0,False,0.273,0,False,left,0.16594,1.6795,2.6212,0.9416,0.2124,0.9129,0.7005,A
105,0.49781,1.2,1,0.29039,0.2655,0.43974,105,1.88339,-0.226,-0.11616,0.38995,5,2U1D,1.0,False,0.116,7,False,left,-0.08297,0.2061,0.7727,0.5666,1.1727,1.7644,0.5917,A
106,0.49781,0.1,1,0.43144,0.41485,0.5476,106,2.75458,0.726,0.36506,0.86288,5,2D1U,1.0,True,0.111,11,True,left,0.16594,0.4153,1.315,0.8997,1.765,2.4653,0.7003,A
107,0.49781,0.1,1,0.31528,0.29039,0.87947,107,2.84583,0.726,0.36506,0.86288,5,2D1U,1.0,True,0.19,11,True,left,-0.08297,0.2979,1.1973,0.8994,2.1061,2.5567,0.4506,A
108,0.49781,0.1,2,0.29039,0.40655,0.5476,108,1.79213,-0.9,-0.44803,0.04978,5,lapse_rate,1.0,True,0.231,0,False,left,0.16594,1.4595,1.4929,0.0334,0.1931,0.8929,0.6998,A
109,0.49781,1.2,2,0.30699,0.29039,0.63057,109,2.09082,-0.262,-0.13275,0.36506,5,2U1D,1.0,True,0.274,7,False,left,-0.08297,1.5761,1.8513,0.2752,0.2681,0.8594,0.5913,A
110,0.49781,1.2,2,0.2655,0.20742,0.64716,110,1.98295,-0.262,-0.13275,0.36506,5,2U1D,1.0,True,0.273,7,False,left,0.16594,1.6765,1.9517,0.2752,0.1019,0.9432,0.8413,A
111,0.49781,0.1,2,0.30699,0.28209,0.69694,111,2.63011,0.69,0.34847,0.84628,5,2D1U,2.0,True,0.192,12,True,right,-0.08297,1.5017,2.335,0.8333,0.3351,0.7855,0.4504,A
112,0.49781,1.2,2,0.36506,0.37336,0.42314,112,2.61351,0.9,0.44803,0.95414,5,lapse_rate,2.0,True,0.258,0,False,right,0.16594,1.549,2.4154,0.8665,0.1989,1.0407,0.8417,A
113,0.49781,1.2,1,0.31528,0.37336,0.83799,113,2.97858,0.9,0.44803,0.95414,5,lapse_rate,1.0,True,0.266,0,False,left,-0.08297,0.2304,1.3638,1.1334,2.1637,2.7553,0.5916,A
114,0.49781,0.1,2,0.44803,0.39825,0.41485,114,2.60522,0.69,0.34847,0.84628,5,2D1U,1.0,False,0.224,12,True,left,0.16594,1.4852,2.318,0.8328,0.3515,1.0515,0.7,A
115,0.49781,1.2,1,0.20742,0.39825,0.82139,115,2.31482,-0.226,-0.11616,0.38995,5,2U1D,1.0,False,0.251,8,True,left,-0.08297,0.1277,0.6942,0.5665,1.4774,2.069,0.5916,A
116,0.49781,1.2,2,0.34847,0.32358,0.58908,116,2.62182,0.726,0.36506,0.86288,5,2D1U,1.0,False,0.163,13,True,left,0.16594,1.6959,2.471,0.7751,0.1791,1.0208,0.8417,A
117,0.49781,0.1,2,0.43144,0.21572,0.65546,117,1.85021,-0.9,-0.44803,0.04978,5,lapse_rate,1.0,True,0.417,0,False,left,-0.08297,1.5817,1.6151,0.0334,0.4568,0.9068,0.45,A
118,0.49781,0.1,2,0.31528,0.43144,0.48952,118,2.09911,-0.262,-0.13275,0.36506,5,2U1D,1.0,True,0.111,9,True,left,0.16594,1.4257,1.7755,0.3498,0.2172,0.9172,0.7,A
119,0.49781,0.1,2,0.29869,0.34847,0.45633,119,1.96636,-0.262,-0.13275,0.36506,5,2U1D,1.0,True,0.193,9,True,left,-0.08297,1.247,1.5969,0.35,0.3228,0.7724,0.4496,A
120,0.49781,0.1,2,0.38166,0.35677,0.67205,120,1.95807,-0.9,-0.44803,0.04978,5,lapse_rate,1.0,True,0.248,0,False,left,0.16594,1.675,1.7085,0.0335,0.2835,0.9834,0.6999,A
121,0.49781,1.2,1,0.34847,0.24891,0.61397,121,2.58863,0.762,0.38166,0.87947,5,2D1U,1.0,True,0.382,13,False,left,-0.08297,0.2633,1.3208,1.0575,1.8957,2.4874,0.5917,A
122,0.49781,1.2,1,0.22402,0.30699,0.63886,122,2.54715,0.762,0.38166,0.87947,5,2D1U,1.0,True,0.201,13,False,left,0.16594,0.1429,1.2015,1.0585,1.6767,2.5181,0.8414,A
123,0.49781,1.2,2,0.24891,0.33188,0.7965,123,2.82924,0.9,0.44803,0.95414,5,lapse_rate,1.0,False,0.267,0,False,left,-0.08297,1.6817,2.549,0.8673,0.2073,0.7992,0.5918,A
124,0.49781,0.1,1,0.31528,0.38166,0.67205,124,2.25675,-0.226,-0.11616,0.38995,5,2U1D,1.0,False,0.342,10,True,left,0.16594,0.3027,0.7278,0.4251,1.3021,2.0029,0.7007,A
125,0.49781,0.1,1,0.42314,0.43144,0.68035,125,2.3978,-0.262,-0.13275,0.36506,5,2U1D,1.0,False,0.114,11,True,left,-0.08297,0.4066,0.8067,0.4001,1.515,1.9651,0.4501,A
126,0.49781,1.2,1,0.2738,0.36506,0.65546,126,2.65501,0.726,0.36506,0.86288,5,2D1U,2.0,False,0.449,14,True,right,0.16594,0.1883,1.2299,1.0417,1.7216,2.5632,0.8416,A
127,0.49781,1.2,1,0.42314,0.34847,0.41485,127,1.73405,-0.9,-0.44803,0.04978,5,lapse_rate,2.0,True,0.621,0,False,right,-0.08297,0.3389,0.5637,0.2249,0.9391,1.5304,0.5913,A
128,0.49781,1.2,2,0.31528,0.36506,0.43144,128,2.48906,0.762,0.38166,0.87947,5,2D1U,2.0,True,1.226,15,True,right,0.16594,1.5086,2.3004,0.7918,0.1507,0.9919,0.8413,A
129,0.49781,0.1,1,0.42314,0.35677,0.84628,129,2.47247,-0.298,-0.14934,0.34847,5,2U1D,2.0,True,0.295,11,False,right,-0.08297,0.4074,0.7913,0.3839,1.6659,2.1158,0.4499,A
130,0.49781,0.1,1,0.38166,0.42314,0.65546,130,2.00785,-0.9,-0.44803,0.04978,5,lapse_rate,2.0,True,0.614,0,False,right,0.16594,0.362,0.446,0.084,1.0039,1.7047,0.7009,A
131,0.49781,0.1,2,0.23231,0.2738,0.69694,131,2.04933,-0.298,-0.14934,0.34847,5,2U1D,1.0,True,0.303,11,False,left,-0.08297,1.4257,1.759,0.3333,0.259,0.7095,0.4505,A
132,0.49781,1.2,2,0.24891,0.33188,0.40655,132,2.36462,0.762,0.38166,0.87947,5,2D1U,2.0,True,1.079,15,True,right,0.16594,1.4156,2.2076,0.792,0.0824,0.9241,0.8417,A
133,0.49781,0.1,1,0.38995,0.21572,0.58078,133,1.73404,-0.9,-0.44803,0.04978,5,lapse_rate,2.0,True,0.372,0,False,right,-0.08297,0.371,0.454,0.0831,1.0627,1.5121,0.4495,A
134,0.49781,1.2,2,0.42314,0.34017,0.78821,134,2.91221,0.726,0.36506,0.86288,5,2D1U,2.0,True,0.308,16,True,right,0.16594,1.9769,2.7523,0.7754,0.2604,1.1018,0.8414,A
135,0.49781,0.1,2,0.2572,0.43974,0.86288,135,2.10741,-0.9,-0.44803,0.04978,5,lapse_rate,1.0,True,0.25,0,False,left,-0.08297,1.6164,1.6497,0.0332,0.2828,0.7328,0.45,A
136,0.49781,0.1,1,0.42314,0.19913,0.86288,136,2.34802,-0.262,-0.13275,0.36506,5,2U1D,2.0,True,0.36,12,True,right,0.16594,0.4071,0.8067,0.3996,1.5736,2.2736,0.7,A
137,0.49781,0.1,2,0.41485,0.34017,0.60567,137,2.72138,0.726,0.36506,0.86288,5,2D1U,2.0,True,0.225,16,True,right,-0.08297,1.5181,2.3684,0.8503,0.4431,0.8933,0.4502,A
138,0.49781,1.2,1,0.29869,0.21572,0.5393,138,1.6013,-0.9,-0.44803,0.04978,5,lapse_rate,2.0,True,0.416,0,False,right,0.16594,0.2188,0.4439,0.2251,0.8189,999,998.1811,A
139,0.49781,1.2,2,0.2572,0.22402,0.87947,139,2.22356,-0.262,-0.13275,0.36506,5,2U1D,1.0,True,0.374,12,True,left,-0.08297,1.776,2.0512,0.2752,0.2178,0.8095,0.5917,A
140,0.49781,1.2,2,0.34847,0.28209,0.64716,140,2.62181,0.69,0.34847,0.84628,5,2D1U,1.0,False,0.167,16,False,left,0.16594,1.7555,2.5139,0.7583,0.1807,1.0217,0.841,A
141,0.49781,0.1,2,0.43974,0.40655,0.43974,141,2.17379,-0.226,-0.11616,0.38995,5,2U1D,1.0,True,0.251,12,False,left,-0.08297,1.3719,1.7469,0.375,0.4635,0.9137,0.4501,A
142,0.49781,0.1,1,0.43144,0.2738,0.68864,142,1.94147,-0.9,-0.44803,0.04978,5,lapse_rate,2.0,True,0.42,0,False,right,0.16594,0.4139,0.4966,0.0828,1.0886,1.7887,0.7002,A
143,0.49781,0.1,2,0.29869,0.42314,0.56419,143,2.17378,-0.226,-0.11616,0.38995,5,2U1D,1.0,True,0.204,12,False,left,-0.08297,1.3543,1.7295,0.3751,0.3204,0.7711,0.4506,A
144,0.49781,1.2,2,0.2572,0.42314,0.78821,144,2.82924,0.726,0.36506,0.86288,5,2D1U,2.0,True,0.283,17,True,right,0.16594,1.8059,2.5812,0.7753,0.0899,0.9315,0.8416,A
145,0.49781,1.2,2,0.2655,0.34017,0.74672,145,2.80434,0.9,0.44803,0.95414,5,lapse_rate,2.0,True,0.429,0,False,right,-0.08297,1.6482,2.515,0.8668,0.2226,0.8148,0.5922,A
146,0.49781,0.1,2,0.28209,0.41485,0.61397,146,2.76286,0.9,0.44803,0.95414,5,lapse_rate,2.0,True,0.264,0,False,right,0.16594,1.5142,2.4558,0.9416,0.1812,0.881,0.6998,A
147,0.49781,1.2,2,0.22402,0.34847,0.5476,147,2.48078,0.726,0.36506,0.86288,5,2D1U,2.0,True,0.308,17,True,right,-0.08297,1.4085,2.1833,0.7749,0.1834,0.7751,0.5917,A
148,0.49781,0.1,2,0.36506,0.38166,0.72183,148,2.37291,-0.19,-0.09127,0.40655,5,2U1D,1.0,True,0.309,12,False,left,0.16594,1.7061,2.0979,0.3918,0.2644,0.9642,0.6998,A
149,0.49781,0.1,1,0.39825,0.22402,0.39825,149,1.92488,-0.19,-0.09127,0.40655,5,2U1D,2.0,True,0.242,12,False,right,-0.08297,0.3853,0.8266,0.4412,1.2518,1.702,0.4503,A
150,0.49781,1.2,1,0.38166,0.44803,0.84628,150,2.22356,-0.9,-0.44803,0.04978,5,lapse_rate,2.0,True,0.3,0,False,right,0.16594,0.3032,0.5283,0.2251,1.2114,2.0528,0.8414,A
151,0.49781,1.2,2,0.38995,0.19913,0.89607,151,2.82924,0.69,0.34847,0.84628,5,2D1U,2.0,True,0.751,18,True,right,-0.08297,1.9211,2.6794,0.7583,0.346,0.9378,0.5918,A
152,0.49781,1.2,2,0.2655,0.36506,0.58078,152,2.13229,-0.154,-0.07467,0.42314,5,2U1D,1.0,True,0.317,12,False,left,0.16594,1.6092,1.9423,0.3332,0.1008,0.9427,0.8419,A
153,0.49781,1.2,2,0.43144,0.29039,0.84628,153,2.1157,-0.9,-0.44803,0.04978,5,lapse_rate,1.0,True,0.365,0,False,left,-0.08297,1.9138,1.8719,-0.0419,0.3887,0.9804,0.5917,A
154,0.49781,0.1,1,0.41485,0.43144,0.63057,154,2.82095,0.69,0.34847,0.84628,5,2D1U,1.0,True,0.113,18,True,left,0.16594,0.3954,1.279,0.8835,1.8122,2.5122,0.7,A
155,0.49781,0.1,2,0.24061,0.32358,0.70524,155,2.59693,0.654,0.32358,0.82969,5,2D1U,1.0,False,0.193,18,False,left,-0.08297,1.4429,2.2598,0.8169,0.2682,0.7182,0.45,A
156,0.49781,1.2,2,0.20742,0.30699,0.87947,156,2.31483,-0.154,-0.07467,0.42314,5,2U1D,1.0,True,0.534,12,False,left,0.16594,1.8533,2.1868,0.3335,0.0445,0.8868,0.8423,A
157,0.49781,0.1,2,0.32358,0.37336,0.66375,157,2.81264,0.9,0.44803,0.95414,5,lapse_rate,2.0,True,0.292,0,False,right,-0.08297,1.4861,2.4278,0.9417,0.3532,0.8029,0.4498,A
158,0.49781,1.2,1,0.43974,0.41485,0.55589,158,2.34803,-0.118,-0.05808,0.43974,5,2U1D,2.0,True,0.308,12,False,right,0.16594,0.3555,0.9719,0.6165,1.3637,2.2053,0.8416,A
159,0.49781,0.1,2,0.24061,0.21572,0.44803,159,1.45195,-0.9,-0.44803,0.04978,5,lapse_rate,1.0,True,0.266,0,False,left,-0.08297,1.1822,1.2156,0.0334,0.2655,0.7155,0.4499,A
160,0.49781,0.1,1,0.24891,0.41485,0.82139,160,2.82924,0.69,0.34847,0.84628,5,2D1U,1.0,True,0.224,19,True,left,0.16594,0.232,1.115,0.883,1.8406,2.5399,0.6993,A
161,0.49781,0.1,2,0.39825,0.22402,0.67205,161,2.63841,0.69,0.34847,0.84628,5,2D1U,2.0,True,0.263,19,True,right,-0.08297,1.5633,2.3964,0.8331,0.4215,0.8713,0.4498,A
162,0.49781,1.2,1,0.29869,0.44803,0.63886,162,2.83753,0.9,0.44803,0.95414,5,lapse_rate,1.0,True,0.293,0,False,left,0.16594,0.218,1.3509,1.1329,1.8263,2.6675,0.8412,A
163,0.49781,1.2,1,0.21572,0.34017,0.68035,163,2.17379,-0.118,-0.05808,0.43974,5,2U1D,1.0,False,0.334,12,False,left,-0.08297,0.1355,0.7521,0.6167,1.3943,1.9857,0.5914,A
164,0.49781,0.1,1,0.43144,0.38166,0.82969,164,3.09474,0.9,0.44803,0.95414,5,lapse_rate,1.0,True,0.31,0,False,left,0.16594,0.4159,1.4072,0.9913,2.1405,2.8406,0.7,A
165,0.49781,1.2,2,0.2655,0.36506,0.50611,165,2.05762,-0.154,-0.07467,0.42314,5,2U1D,1.0,True,0.283,13,True,left,-0.08297,1.4113,1.7447,0.3334,0.2283,0.82,0.5917,A
166,0.49781,0.1,1,0.43144,0.34017,0.58908,166,2.68819,0.654,0.32358,0.82969,5,2D1U,1.0,True,0.112,20,True,left,0.16594,0.4203,1.2868,0.8665,1.7786,2.4786,0.6999,A
167,0.49781,0.1,1,0.30699,0.28209,0.76332,167,2.6799,0.654,0.32358,0.82969,5,2D1U,1.0,True,0.275,20,True,left,-0.08297,0.2887,1.1548,0.8661,1.9462,2.3963,0.4501,A
168,0.49781,1.2,1,0.43974,0.44803,0.531,168,2.33972,-0.154,-0.07467,0.42314,5,2U1D,1.0,False,0.551,13,True,left,0.16594,0.3622,0.9616,0.5994,1.3286,2.1704,0.8418,A
169,0.49781,1.2,2,0.40655,0.43144,0.82969,169,2.57204,-0.19,-0.09127,0.40655,5,2U1D,1.0,True,0.524,13,False,left,-0.08297,1.8721,2.1889,0.3168,0.364,0.9553,0.5913,A
170,0.49781,0.1,2,0.43974,0.44803,0.72183,170,2.92051,0.618,0.30699,0.8131,5,2D1U,2.0,True,0.208,20,False,right,0.16594,1.7853,2.5851,0.7998,0.3428,1.0432,0.7005,A
171,0.49781,0.1,1,0.2655,0.24891,0.69694,171,2.11571,-0.19,-0.09127,0.40655,5,2U1D,2.0,True,0.583,13,False,right,-0.08297,0.2514,0.6932,0.4418,1.4181,1.8681,0.45,A
172,0.49781,1.2,1,0.20742,0.42314,0.77161,172,2.32312,-0.154,-0.07467,0.42314,5,2U1D,2.0,True,0.369,14,True,right,0.16594,0.1225,0.7222,0.5997,1.3306,2.1727,0.842,A
173,0.49781,1.2,1,0.28209,0.38995,0.56419,173,2.15718,-0.154,-0.07467,0.42314,5,2U1D,2.0,True,0.267,14,True,right,-0.08297,0.196,0.7953,0.5993,1.3207,1.9125,0.5919,A
174,0.49781,0.1,2,0.24061,0.28209,0.60567,174,2.43928,0.618,0.30699,0.8131,5,2D1U,2.0,True,0.141,20,False,right,0.16594,1.4648,2.2641,0.7993,0.1397,0.84,0.7003,A
175,0.49781,0.1,2,0.24891,0.34847,0.47292,175,2.35632,0.582,0.29039,0.78821,5,2D1U,2.0,True,0.214,20,False,right,-0.08297,1.2148,1.9897,0.7749,0.2734,0.7234,0.45,A
176,0.49781,1.2,1,0.43974,0.41485,0.50611,176,2.29825,-0.118,-0.05808,0.43974,5,2U1D,1.0,False,0.232,14,False,left,0.16594,0.3552,0.9719,0.6167,1.3132,2.1551,0.8419,A
177,0.49781,1.2,2,0.24891,0.42314,0.85458,177,2.81265,0.582,0.29039,0.78821,5,2D1U,1.0,False,0.234,20,False,left,-0.08297,1.7432,2.4434,0.7001,0.2101,0.8015,0.5914,A
178,0.49781,0.1,2,0.33188,0.43974,0.85458,178,2.93711,0.618,0.30699,0.8131,5,2D1U,2.0,True,0.149,21,True,right,0.16594,1.8057,2.6064,0.8007,0.2306,0.9305,0.6998,A
179,0.49781,0.1,2,0.43144,0.32358,0.45633,179,2.52226,0.618,0.30699,0.8131,5,2D1U,2.0,True,0.11,21,True,right,-0.08297,1.3813,2.1811,0.7998,0.4562,0.9061,0.4499,A
180,0.49781,1.2,1,0.28209,0.29869,0.63886,180,2.14059,-0.154,-0.07467,0.42314,5,2U1D,2.0,True,0.256,15,True,right,0.16594,0.1952,0.7955,0.6002,1.2705,2.1125,0.842,A
181,0.49781,1.2,2,0.32358,0.37336,0.60567,181,2.22356,-0.154,-0.07467,0.42314,5,2U1D,1.0,True,0.22,15,True,left,-0.08297,1.5632,1.8963,0.3331,0.2797,0.8714,0.5917,A
182,0.49781,0.1,1,0.28209,0.41485,0.84628,182,2.48077,-0.118,-0.05808,0.43974,5,2U1D,1.0,False,0.209,16,True,left,0.16594,0.2656,0.7399,0.4743,1.491,2.1903,0.6993,A
183,0.49781,0.1,2,0.41485,0.21572,0.58908,183,2.50567,0.582,0.29039,0.78821,5,2D1U,2.0,True,0.259,22,True,right,-0.08297,1.497,2.2716,0.7746,0.4381,0.889,0.4509,A
184,0.49781,1.2,2,0.35677,0.38995,0.70524,184,2.37291,-0.154,-0.07467,0.42314,5,2U1D,1.0,True,0.21,17,True,left,0.16594,1.8259,2.1599,0.3339,0.1934,1.0349,0.8415,A
185,0.49781,1.2,2,0.28209,0.43144,0.58908,185,2.22356,-0.154,-0.07467,0.42314,5,2U1D,1.0,True,0.178,17,True,left,-0.08297,1.5055,1.8385,0.333,0.2386,0.8304,0.5918,A
186,0.49781,0.1,2,0.33188,0.36506,0.82969,186,2.81265,0.582,0.29039,0.78821,5,2D1U,2.0,True,0.417,22,True,right,0.16594,1.7833,2.5577,0.7745,0.2326,0.9333,0.7006,A
187,0.49781,0.1,1,0.34017,0.38166,0.68864,187,2.67989,0.546,0.2738,0.77161,5,2D1U,1.0,True,0.267,22,False,left,-0.08297,0.3262,1.1342,0.808,1.851,2.3013,0.4503,A
188,0.49781,1.2,1,0.29869,0.32358,0.531,188,2.09082,-0.118,-0.05808,0.43974,5,2U1D,1.0,False,0.301,18,True,left,0.16594,0.2149,0.8314,0.6165,1.198,2.0397,0.8417,A
189,0.49781,1.2,2,0.34847,0.28209,0.51441,189,2.06592,-0.154,-0.07467,0.42314,5,2U1D,1.0,True,0.3,19,True,left,-0.08297,1.5016,1.8355,0.3339,0.3102,0.9021,0.5919,A
190,0.49781,0.1,1,0.21572,0.2655,0.76332,190,2.51396,0.546,0.2738,0.77161,5,2D1U,1.0,True,0.324,22,False,left,0.16594,0.1996,1.0074,0.8078,1.6737,2.374,0.7002,A
191,0.49781,0.1,2,0.28209,0.22402,0.42314,191,2.18208,0.51,0.2572,0.75502,5,2D1U,2.0,True,0.271,22,False,right,-0.08297,1.1982,1.9399,0.7416,0.3067,0.7564,0.4497,A
192,0.49781,1.2,2,0.40655,0.24891,0.67205,192,2.24846,-0.154,-0.07467,0.42314,5,2U1D,1.0,True,0.291,19,True,left,0.16594,1.8393,2.1728,0.3335,0.2395,1.0813,0.8418,A
193,0.49781,1.2,2,0.42314,0.23231,0.46463,193,2.05763,-0.118,-0.05808,0.43974,5,2U1D,1.0,True,0.538,20,True,left,-0.08297,1.5228,1.8729,0.3501,0.3812,0.973,0.5918,A
194,0.49781,0.1,1,0.36506,0.23231,0.67205,194,2.52225,0.51,0.2572,0.75502,5,2D1U,1.0,True,0.388,22,False,left,0.16594,0.3481,1.1396,0.7915,1.7146,2.4145,0.6999,A
195,0.49781,0.1,1,0.2655,0.40655,0.5476,195,2.1572,-0.118,-0.05808,0.43974,5,2U1D,2.0,True,0.571,20,True,right,-0.08297,0.2525,0.7276,0.4751,1.3024,1.7525,0.4501,A
196,0.49781,1.2,1,0.34017,0.29039,0.63057,196,2.49736,0.474,0.24061,0.73842,5,2D1U,1.0,True,0.401,22,False,left,0.16594,0.2567,1.1734,0.9167,1.6402,2.4819,0.8417,A
197,0.49781,1.2,1,0.41485,0.41485,0.64716,197,2.431,-0.082,-0.04148,0.45633,5,2U1D,2.0,True,0.55,20,False,right,-0.08297,0.3315,0.9648,0.6333,1.5733,2.1641,0.5908,A
198,0.49781,0.1,1,0.20742,0.32358,0.8048,198,2.57203,0.474,0.24061,0.73842,5,2D1U,1.0,True,0.317,22,False,left,0.16594,0.1885,0.964,0.7756,1.672,2.3723,0.7003,A
199,0.49781,0.1,1,0.43974,0.29869,0.84628,199,2.80435,0.438,0.21572,0.72183,5,2D1U,1.0,True,0.375,22,False,left,-0.08297,0.4239,1.182,0.7581,2.0568,2.5066,0.4499,A
200,0.49781,1.2,2,0.36506,0.20742,0.77161,200,2.56373,0.438,0.21572,0.72183,5,2D1U,1.0,False,0.578,22,False,left,0.16594,1.9,2.5335,0.6335,0.1999,1.0416,0.8418,A
201,0.49781,1.2,1,0.22402,0.42314,0.63057,201,2.23187,-0.082,-0.04148,0.45633,5,2U1D,2.0,True,0.391,20,False,right,-0.08297,0.1376,0.7715,0.6339,1.3632,1.955,0.5918,A
202,0.49781,0.1,1,0.32358,0.43974,0.8131,202,2.54715,-0.046,-0.02489,0.47292,5,2U1D,2.0,True,0.375,20,False,right,0.16594,0.3047,0.8126,0.5078,1.5294,2.2296,0.7002,A
203,0.49781,0.1,2,0.31528,0.2572,0.62227,203,2.43098,0.474,0.24061,0.73842,5,2D1U,2.0,True,0.113,23,True,right,-0.08297,1.437,2.1617,0.7248,0.3449,0.7943,0.4494,A
204,0.49781,1.2,1,0.38995,0.38995,0.63057,204,2.3812,-0.046,-0.02489,0.47292,5,2U1D,1.0,False,0.463,20,False,left,0.16594,0.306,0.9558,0.6497,1.4227,2.2644,0.8417,A
205,0.49781,1.2,2,0.24061,0.2655,0.52271,205,2.26505,0.474,0.24061,0.73842,5,2D1U,2.0,True,0.251,23,True,right,-0.08297,1.4031,2.0536,0.6505,0.2034,0.7949,0.5915,A
206,0.49781,0.1,1,0.23231,0.42314,0.82139,206,2.43098,-0.082,-0.04148,0.45633,5,2U1D,1.0,False,0.367,21,True,left,0.16594,0.2133,0.705,0.4917,1.4303,2.1299,0.6995,A
207,0.49781,0.1,1,0.44803,0.22402,0.82969,207,2.43929,-0.118,-0.05808,0.43974,5,2U1D,1.0,False,0.25,21,False,left,-0.08297,0.4361,0.9113,0.4751,1.7695,2.2195,0.45,A
208,0.49781,1.2,2,0.34017,0.21572,0.52271,208,2.29824,0.438,0.21572,0.72183,5,2D1U,1.0,False,0.342,24,True,left,0.16594,1.6204,2.2533,0.6329,0.1694,1.0114,0.842,A
209,0.49781,1.2,1,0.38166,0.33188,0.83799,209,2.47248,-0.154,-0.07467,0.42314,5,2U1D,2.0,True,0.449,21,False,right,-0.08297,0.2984,0.8984,0.6,1.6985,2.2903,0.5918,A
210,0.49781,0.1,2,0.34847,0.36506,0.66375,210,2.29823,-0.154,-0.07467,0.42314,5,2U1D,1.0,True,0.337,21,False,left,0.16594,1.6328,2.0413,0.4084,0.2496,0.9494,0.6998,A
211,0.49781,0.1,2,0.23231,0.31528,0.5476,211,2.33142,0.474,0.24061,0.73842,5,2D1U,2.0,True,0.334,25,True,right,-0.08297,1.2751,2.0002,0.7252,0.2581,0.7083,0.4502,A
212,0.49781,1.2,1,0.32358,0.39825,0.87118,212,2.53056,-0.118,-0.05808,0.43974,5,2U1D,2.0,True,0.309,22,True,right,0.16594,0.2394,0.8561,0.6167,1.5638,2.4061,0.8423,A
213,0.49781,1.2,1,0.37336,0.28209,0.60567,213,2.49735,0.474,0.24061,0.73842,5,2D1U,2.0,False,0.317,25,True,right,-0.08297,0.2915,1.2082,0.9167,1.7749,2.3672,0.5923,A
214,0.49781,0.1,1,0.44803,0.43974,0.42314,214,2.56374,0.51,0.2572,0.75502,5,2D1U,2.0,False,0.112,25,False,right,0.16594,0.4299,1.2216,0.7916,1.5461,2.2467,0.7006,A
215,0.49781,0.1,1,0.29869,0.43974,0.67205,215,2.6799,0.546,0.2738,0.77161,5,2D1U,1.0,True,0.331,25,False,left,-0.08297,0.2828,1.0914,0.8086,1.7912,2.241,0.4499,A
216,0.49781,1.2,2,0.24061,0.29869,0.85458,216,2.6633,0.546,0.2738,0.77161,5,2D1U,2.0,True,0.466,25,False,right,0.16594,1.8544,2.538,0.6835,0.0711,0.9128,0.8417,A
217,0.49781,1.2,1,0.30699,0.33188,0.56419,217,2.14061,-0.118,-0.05808,0.43974,5,2U1D,1.0,False,0.284,22,True,left,-0.08297,0.2223,0.8395,0.6172,1.3649,1.9561,0.5913,A
218,0.49781,0.1,2,0.40655,0.24891,0.87118,218,2.77947,0.51,0.2572,0.75502,5,2D1U,2.0,True,0.275,26,True,right,0.16594,1.8955,2.6373,0.7418,0.304,1.0041,0.7002,A
219,0.49781,0.1,2,0.31528,0.24061,0.87947,219,2.68819,0.51,0.2572,0.75502,5,2D1U,1.0,False,0.408,26,True,left,-0.08297,1.6883,2.4301,0.7417,0.3387,0.7884,0.4496,A
220,0.49781,1.2,1,0.21572,0.28209,0.63886,220,2.05762,-0.154,-0.07467,0.42314,5,2U1D,1.0,False,0.25,23,True,left,0.16594,0.1312,0.7311,0.6,1.2061,2.0479,0.8417,A
221,0.49781,1.2,2,0.32358,0.31528,0.65546,221,2.19868,-0.19,-0.09127,0.40655,5,2U1D,1.0,True,0.342,23,False,left,-0.08297,1.6166,1.934,0.3174,0.2837,0.8754,0.5918,A
222,0.49781,0.1,2,0.36506,0.33188,0.46463,222,2.06593,-0.19,-0.09127,0.40655,5,2U1D,1.0,True,0.334,23,False,left,0.16594,1.4525,1.8435,0.391,0.2691,0.9694,0.7003,A
223,0.49781,0.1,2,0.34847,0.2655,0.40655,223,2.28994,0.546,0.2738,0.77161,5,2D1U,2.0,True,0.308,27,True,right,-0.08297,1.2465,2.0048,0.7583,0.3716,0.8216,0.45,A
224,0.49781,1.2,2,0.41485,0.2738,0.61397,224,2.22357,-0.154,-0.07467,0.42314,5,2U1D,1.0,True,0.348,24,True,left,0.16594,1.7877,2.1211,0.3334,0.2463,1.0877,0.8415,A
225,0.49781,1.2,1,0.38995,0.43144,0.63057,225,2.37291,-0.154,-0.07467,0.42314,5,2U1D,1.0,False,0.217,24,True,left,-0.08297,0.311,0.9115,0.6005,1.5037,2.0944,0.5907,A
226,0.49781,0.1,1,0.44803,0.41485,0.89607,226,3.02837,0.546,0.2738,0.77161,5,2D1U,1.0,True,0.412,27,True,left,0.16594,0.4303,1.2384,0.8081,2.0381,2.7382,0.7,A
227,0.49781,0.1,2,0.32358,0.41485,0.56419,227,2.55545,0.51,0.2572,0.75502,5,2D1U,2.0,True,0.246,28,True,right,-0.08297,1.3808,2.1222,0.7414,0.3478,0.7977,0.4499,A
228,0.49781,1.2,1,0.32358,0.42314,0.44803,228,2.44758,0.51,0.2572,0.75502,5,2D1U,2.0,False,0.517,28,True,right,0.16594,0.2373,1.1706,0.9333,1.4539,2.2953,0.8414,A
229,0.49781,1.2,1,0.39825,0.31528,0.40655,229,2.02444,-0.19,-0.09127,0.40655,5,2U1D,1.0,False,0.214,25,True,left,-0.08297,0.3139,0.8966,0.5827,1.2633,1.8554,0.5921,A
230,0.49781,0.1,2,0.38166,0.37336,0.48122,230,2.124,-0.226,-0.11616,0.38995,5,2U1D,1.0,True,0.344,25,False,left,0.16594,1.4815,1.8564,0.3749,0.282,0.9815,0.6995,A
231,0.49781,0.1,1,0.20742,0.2572,0.84628,231,2.58032,0.546,0.2738,0.77161,5,2D1U,1.0,True,0.267,29,True,left,-0.08297,0.1901,0.9985,0.8084,1.8733,2.3237,0.4504,A
232,0.49781,1.2,1,0.30699,0.31528,0.60567,232,2.1157,-0.226,-0.11616,0.38995,5,2U1D,1.0,False,0.218,25,False,left,0.16594,0.225,0.7916,0.5667,1.2338,2.0749,0.8411,A
233,0.49781,1.2,2,0.29039,0.21572,0.84628,233,2.21526,-0.262,-0.13275,0.36506,5,2U1D,1.0,True,0.35,25,False,left,-0.08297,1.7724,2.0474,0.275,0.2474,0.839,0.5917,A
234,0.49781,0.1,2,0.40655,0.34017,0.85458,234,2.87072,0.546,0.2738,0.77161,5,2D1U,2.0,True,0.308,29,True,right,0.16594,1.8792,2.6375,0.7583,0.3043,1.0042,0.6999,A
235,0.49781,0.1,2,0.35677,0.33188,0.75502,235,2.6965,0.51,0.2572,0.75502,5,2D1U,2.0,True,0.262,30,True,right,-0.08297,1.6058,2.3476,0.7418,0.3814,0.831,0.4496,A
236,0.49781,1.2,1,0.30699,0.30699,0.48952,236,2.35633,0.51,0.2572,0.75502,5,2D1U,1.0,True,0.476,30,True,left,0.16594,0.2251,1.1593,0.9342,1.4845,2.3257,0.8412,A
237,0.49781,1.2,1,0.19913,0.42314,0.56419,237,2.04933,-0.262,-0.13275,0.36506,5,2U1D,1.0,False,0.241,25,False,left,-0.08297,0.1152,0.6559,0.5407,1.1811,1.7728,0.5917,A
238,0.49781,0.1,1,0.22402,0.28209,0.70524,238,2.44758,0.474,0.24061,0.73842,5,2D1U,1.0,True,0.237,30,False,left,0.16594,0.2051,0.9808,0.7756,1.5881,2.2887,0.7006,A
239,0.49781,0.1,2,0.34847,0.2572,0.78821,239,2.24016,-0.298,-0.14934,0.34847,5,2U1D,1.0,True,0.225,25,False,left,-0.08297,1.6283,1.9623,0.334,0.3706,0.8205,0.4499,A
240,0.49781,1.2,1,0.44803,0.41485,0.42314,240,2.1323,-0.298,-0.14934,0.34847,5,2U1D,2.0,True,0.258,25,False,right,0.16594,0.3657,0.8901,0.5244,1.1489,1.991,0.8421,A
241,0.49781,1.2,1,0.2655,0.35677,0.72183,241,2.58033,0.474,0.24061,0.73842,5,2D1U,1.0,True,0.233,30,False,left,-0.08297,0.1814,1.0976,0.9162,1.781,2.3731,0.5921,A
242,0.49781,0.1,2,0.42314,0.43974,0.5476,242,2.63012,0.438,0.21572,0.72183,5,2D1U,2.0,True,0.122,30,False,right,0.16594,1.5927,2.3008,0.7081,0.3258,1.026,0.7002,A
243,0.49781,0.1,1,0.23231,0.2572,0.43974,243,1.79212,-0.262,-0.13275,0.36506,5,2U1D,2.0,True,0.129,26,True,right,-0.08297,0.2125,0.6123,0.3998,1.079,1.5291,0.4501,A
244,0.49781,1.2,1,0.43974,0.31528,0.59738,244,2.21527,-0.262,-0.13275,0.36506,5,2U1D,2.0,True,0.186,26,True,right,0.16594,0.3561,0.8977,0.5416,1.3312,2.1729,0.8417,A
245,0.49781,1.2,2,0.43974,0.31528,0.68864,245,2.33142,-0.226,-0.11616,0.38995,5,2U1D,1.0,True,0.142,26,False,left,-0.08297,1.7661,2.0659,0.2998,0.3993,0.9912,0.5919,A
246,0.49781,0.1,1,0.28209,0.29869,0.52271,246,2.32313,0.438,0.21572,0.72183,5,2D1U,1.0,True,0.2,30,False,left,0.16594,0.2674,1.0259,0.7584,1.4512,2.1509,0.6997,A
247,0.49781,0.1,1,0.35677,0.2655,0.62227,247,2.43929,0.402,0.19913,0.69694,5,2D1U,1.0,True,0.45,30,False,left,-0.08297,0.3393,1.0724,0.7331,1.7224,2.1724,0.4501,A
248,0.49781,1.2,2,0.36506,0.34847,0.48122,248,2.3895,0.402,0.19913,0.69694,5,2D1U,2.0,True,0.242,30,False,right,0.16594,1.6061,2.214,0.6079,0.1973,1.0391,0.8418,A
249,0.49781,1.2,2,0.40655,0.34017,0.59738,249,2.23186,-0.226,-0.11616,0.38995,5,2U1D,1.0,True,0.234,26,False,left,-0.08297,1.6391,1.9391,0.3,0.364,0.9555,0.5915,A
250,0.49781,0.1,1,0.43974,0.35677,0.56419,250,2.53886,0.366,0.18253,0.68035,5,2D1U,1.0,True,0.483,30,False,left,0.16594,0.4235,1.1394,0.7159,1.6067,2.3065,0.6997,A
251,0.49781,0.1,1,0.20742,0.43144,0.62227,251,2.43929,0.366,0.18253,0.68035,5,2D1U,1.0,True,0.148,30,False,left,-0.08297,0.1913,0.9078,0.7165,1.5579,2.008,0.4501,A
252,0.49781,1.2,2,0.43974,0.24061,0.68864,252,2.27335,-0.19,-0.09127,0.40655,5,2U1D,1.0,True,0.289,26,False,left,0.16594,1.893,2.2098,0.3167,0.276,1.1184,0.8423,A
253,0.49781,1.2,2,0.44803,0.29039,0.87118,253,2.51396,-0.19,-0.09127,0.40655,5,2U1D,1.0,True,0.23,26,False,left,-0.08297,1.9596,2.2762,0.3166,0.4095,1.0013,0.5918,A
254,0.49781,0.1,2,0.37336,0.29039,0.57249,254,2.3978,0.33,0.16594,0.66375,5,2D1U,2.0,True,0.114,30,False,right,0.16594,1.5637,2.2137,0.65,0.2716,0.9718,0.7001,A
255,0.49781,0.1,1,0.22402,0.42314,0.40655,255,1.97466,-0.154,-0.07467,0.42314,5,2U1D,1.0,False,0.334,26,False,left,-0.08297,0.2067,0.6649,0.4582,1.0984,1.5477,0.4494,A
256,0.49781,1.2,1,0.24061,0.30699,0.49781,256,1.94977,-0.19,-0.09127,0.40655,5,2U1D,1.0,False,0.232,27,True,left,0.16594,0.1547,0.7377,0.5831,1.0709,1.9129,0.842,A
257,0.49781,1.2,2,0.21572,0.43144,0.85458,257,2.3895,-0.226,-0.11616,0.38995,5,2U1D,1.0,True,0.234,27,False,left,-0.08297,1.7095,2.009,0.2995,0.1763,0.7678,0.5915,A
258,0.49781,0.1,2,0.24061,0.24891,0.87947,258,2.53055,0.33,0.16594,0.66375,5,2D1U,1.0,False,0.274,30,False,left,0.16594,1.7381,2.3881,0.65,0.1405,0.8378,0.6973,A
259,0.49781,0.1,2,0.38166,0.24061,0.84628,259,2.35631,-0.226,-0.11616,0.38995,5,2U1D,1.0,True,0.384,27,False,left,-0.08297,1.7233,2.0984,0.3751,0.4061,0.8569,0.4508,A
260,0.49781,1.2,2,0.41485,0.2572,0.58078,260,2.43099,0.366,0.18253,0.68035,5,2D1U,1.0,False,0.258,31,True,left,0.16594,1.7547,2.3472,0.5924,0.2468,1.0885,0.8417,A
261,0.49781,1.2,2,0.43974,0.42314,0.83799,261,2.60523,-0.19,-0.09127,0.40655,5,2U1D,1.0,True,0.226,28,True,left,-0.08297,1.9191,2.2357,0.3166,0.4028,0.9939,0.5912,A
262,0.49781,0.1,1,0.29039,0.38995,0.43144,262,2.30653,0.402,0.19913,0.69694,5,2D1U,1.0,True,0.684,31,False,left,0.16594,0.276,1.0094,0.7334,1.3426,2.0422,0.6995,A
263,0.49781,0.1,2,0.37336,0.20742,0.60567,263,2.09081,-0.19,-0.09127,0.40655,5,2U1D,1.0,True,0.326,28,True,left,-0.08297,1.4759,1.8672,0.3914,0.4008,0.8504,0.4497,A
264,0.49781,1.2,1,0.33188,0.35677,0.49781,264,2.38121,0.402,0.19913,0.69694,5,2D1U,1.0,True,0.341,31,False,left,0.16594,0.2486,1.1236,0.8749,1.4568,2.2987,0.8419,A
265,0.49781,1.2,2,0.30699,0.42314,0.77161,265,2.6799,0.366,0.18253,0.68035,5,2D1U,1.0,False,0.259,32,True,left,-0.08297,1.7141,2.3064,0.5923,0.2644,0.8566,0.5922,A
266,0.49781,0.1,1,0.43974,0.42314,0.82139,266,2.87902,0.402,0.19913,0.69694,5,2D1U,2.0,False,0.111,33,True,right,0.16594,0.4205,1.1543,0.7339,1.8794,2.5792,0.6998,A
267,0.49781,0.1,1,0.39825,0.38995,0.43974,267,2.14889,-0.154,-0.07467,0.42314,5,2U1D,1.0,False,0.114,28,False,left,-0.08297,0.3807,0.8392,0.4585,1.3057,1.7559,0.4502,A
268,0.49781,1.2,2,0.29039,0.21572,0.87947,268,2.28994,-0.19,-0.09127,0.40655,5,2U1D,1.0,True,0.367,29,True,left,0.16594,1.9299,2.2464,0.3165,0.1216,0.9633,0.8417,A
269,0.49781,1.2,1,0.21572,0.24061,0.50611,269,2.18208,0.438,0.21572,0.72183,5,2D1U,1.0,True,0.331,33,False,left,-0.08297,0.1317,1.0318,0.9001,1.4986,2.0905,0.5919,A
270,0.49781,0.1,2,0.43974,0.40655,0.44803,270,2.19868,-0.19,-0.09127,0.40655,5,2U1D,1.0,True,0.113,29,True,left,0.16594,1.5081,1.8998,0.3917,0.3414,1.0408,0.6995,A
271,0.49781,0.1,2,0.24061,0.43974,0.51441,271,2.11571,-0.154,-0.07467,0.42314,5,2U1D,1.0,True,0.259,30,True,left,-0.08297,1.2527,1.6611,0.4084,0.27,0.7199,0.45,A
272,0.49781,1.2,1,0.35677,0.34017,0.48952,272,2.10741,-0.154,-0.07467,0.42314,5,2U1D,2.0,True,0.383,30,True,right,0.16594,0.2722,0.8728,0.6006,1.1971,2.0385,0.8414,A
273,0.49781,1.2,2,0.35677,0.24061,0.48122,273,2.01615,-0.118,-0.05808,0.43974,5,2U1D,1.0,True,0.299,30,False,left,-0.08297,1.4801,1.8299,0.3497,0.3239,0.9134,0.5895,A
274,0.49781,0.1,1,0.2655,0.30699,0.62227,274,2.4144,0.438,0.21572,0.72183,5,2D1U,1.0,True,0.305,33,False,left,0.16594,0.2484,1.0067,0.7583,1.5316,2.2317,0.7,A
275,0.49781,0.1,2,0.2572,0.42314,0.531,275,2.14889,-0.118,-0.05808,0.43974,5,2U1D,1.0,True,0.159,30,False,left,-0.08297,1.2854,1.7108,0.4254,0.2857,0.7357,0.45,A
276,0.49781,1.2,2,0.33188,0.43974,0.60567,276,2.57204,0.402,0.19913,0.69694,5,2D1U,1.0,False,0.198,34,True,left,0.16594,1.6979,2.306,0.6081,0.1648,1.0064,0.8416,A
277,0.49781,1.2,1,0.37336,0.2572,0.8048,277,2.3895,-0.082,-0.04148,0.45633,5,2U1D,1.0,False,0.392,30,False,left,-0.08297,0.2869,0.9208,0.634,1.6874,2.279,0.5916,A
278,0.49781,0.1,2,0.36506,0.40655,0.48122,278,2.19038,-0.118,-0.05808,0.43974,5,2U1D,1.0,True,0.35,31,True,left,0.16594,1.4634,1.8886,0.4252,0.2634,0.9633,0.6998,A
279,0.49781,0.1,1,0.38166,0.35677,0.75502,279,2.71309,0.438,0.21572,0.72183,5,2D1U,1.0,True,0.209,35,True,left,-0.08297,0.3695,1.1277,0.7582,1.9111,2.3606,0.4495,A
280,0.49781,1.2,2,0.24061,0.19913,0.84628,280,2.50566,0.438,0.21572,0.72183,5,2D1U,1.0,False,0.456,35,True,left,0.16594,1.8487,2.4819,0.6331,0.073,0.9154,0.8424,A
281,0.49781,1.2,1,0.20742,0.29039,0.64716,281,2.08252,-0.118,-0.05808,0.43974,5,2U1D,1.0,False,0.35,31,True,left,-0.08297,0.1264,0.7429,0.6164,1.3507,1.9426,0.5919,A
282,0.49781,0.1,2,0.39825,0.28209,0.85458,282,2.45587,-0.154,-0.07467,0.42314,5,2U1D,1.0,True,0.137,31,False,left,0.16594,1.872,2.281,0.4089,0.2975,0.9978,0.7003,A
283,0.49781,0.1,1,0.32358,0.35677,0.49781,283,2.41439,0.474,0.24061,0.73842,5,2D1U,1.0,True,0.408,35,False,left,-0.08297,0.3048,1.0795,0.7747,1.6044,2.0544,0.45,A
284,0.49781,1.2,1,0.21572,0.34847,0.62227,284,2.10741,-0.154,-0.07467,0.42314,5,2U1D,1.0,False,0.25,31,False,left,0.16594,0.1338,0.7341,0.6004,1.1923,2.0343,0.842,A
285,0.49781,1.2,1,0.39825,0.30699,0.77991,285,2.72138,0.474,0.24061,0.73842,5,2D1U,1.0,True,0.209,35,False,left,-0.08297,0.3179,1.234,0.9161,1.9762,2.5677,0.5915,A
286,0.49781,0.1,2,0.28209,0.20742,0.66375,286,2.05762,-0.19,-0.09127,0.40655,5,2U1D,1.0,True,0.292,31,False,left,0.16594,1.5651,1.9571,0.3919,0.1819,0.8819,0.7,A
287,0.49781,0.1,1,0.43974,0.43974,0.57249,287,2.67161,0.438,0.21572,0.72183,5,2D1U,1.0,True,0.342,36,True,left,-0.08297,0.4271,1.1854,0.7583,1.7855,2.2354,0.4499,A
288,0.49781,1.2,2,0.43974,0.34847,0.85458,288,2.54715,-0.19,-0.09127,0.40655,5,2U1D,1.0,True,0.246,31,False,left,0.16594,2.0594,2.3763,0.3169,0.2759,1.1178,0.8418,A
289,0.49781,1.2,2,0.2572,0.24891,0.531,289,1.95806,-0.154,-0.07467,0.42314,5,2U1D,1.0,True,0.252,32,True,left,-0.08297,1.4217,1.7554,0.3337,0.2137,0.8055,0.5918,A
290,0.49781,0.1,2,0.34847,0.2738,0.77161,290,2.31483,-0.154,-0.07467,0.42314,5,2U1D,1.0,True,0.249,32,True,left,0.16594,1.7427,2.1511,0.4085,0.2513,0.9505,0.6993,A
291,0.49781,0.1,2,0.36506,0.24061,0.8131,291,2.35632,-0.118,-0.05808,0.43974,5,2U1D,1.0,True,0.226,32,False,left,-0.08297,1.6749,2.1004,0.4255,0.3924,0.8422,0.4498,A
292,0.49781,1.2,2,0.33188,0.21572,0.8131,292,2.58034,0.438,0.21572,0.72183,5,2D1U,1.0,False,0.263,36,True,left,0.16594,1.9071,2.5402,0.6331,0.1653,1.0072,0.8419,A
293,0.49781,1.2,1,0.33188,0.39825,0.78821,293,2.45589,-0.118,-0.05808,0.43974,5,2U1D,1.0,False,0.109,32,False,left,-0.08297,0.2485,0.8652,0.6167,1.6156,2.2065,0.5909,A
294,0.49781,0.1,1,0.43144,0.2655,0.85458,294,2.47247,-0.154,-0.07467,0.42314,5,2U1D,1.0,False,0.239,33,True,left,0.16594,0.4138,0.8727,0.4589,1.6306,2.331,0.7004,A
295,0.49781,0.1,2,0.42314,0.35677,0.82969,295,2.84583,0.474,0.24061,0.73842,5,2D1U,1.0,False,0.309,37,True,left,-0.08297,1.7529,2.4781,0.7251,0.4528,0.9021,0.4493,A
296,0.49781,1.2,2,0.21572,0.30699,0.82139,296,2.24846,-0.19,-0.09127,0.40655,5,2U1D,1.0,True,0.342,33,False,left,0.16594,1.7965,2.1132,0.3166,0.0466,0.888,0.8414,A
297,0.49781,1.2,1,0.35677,0.34847,0.73842,297,2.69649,0.51,0.2572,0.75502,5,2D1U,2.0,False,0.271,37,False,right,-0.08297,0.2748,1.2083,0.9335,1.9075,2.4998,0.5923,A
298,0.49781,0.1,2,0.41485,0.31528,0.49781,298,2.49736,0.546,0.2738,0.77161,5,2D1U,2.0,True,0.113,37,False,right,0.16594,1.5324,2.2906,0.7582,0.3156,1.0155,0.6999,A
299,0.49781,0.1,1,0.40655,0.43974,0.55589,299,2.30654,-0.19,-0.09127,0.40655,5,2U1D,1.0,False,0.933,33,False,left,-0.08297,0.3941,0.8354,0.4414,1.4189,1.8691,0.4502,A
300,0.49781,1.2,1,0.21572,0.21572,0.84628,300,2.54714,0.546,0.2738,0.77161,5,2D1U,1.0,True,1.024,37,False,left,0.16594,0.1343,1.0841,0.9499,1.7676,999,997.2324,A
301,0.49781,1.2,1,0.31528,0.33188,0.78821,301,2.32313,-0.226,-0.11616,0.38995,5,2U1D,1.0,False,0.317,33,False,left,-0.08297,0.2324,0.7996,0.5672,1.5495,2.1408,0.5912,A
302,0.49781,0.1,2,0.43974,0.38995,0.68035,302,2.37291,-0.262,-0.13275,0.36506,5,2U1D,1.0,True,0.224,33,False,left,0.16594,1.7435,2.0934,0.3498,0.3435,1.0435,0.7,A
303,0.49781,0.1,2,0.34847,0.20742,0.43974,303,1.8585,-0.262,-0.13275,0.36506,5,2U1D,1.0,True,0.245,33,False,left,-0.08297,1.2802,1.6303,0.3501,0.3721,0.8214,0.4493,A
304,0.49781,1.2,2,0.36506,0.23231,0.48952,304,2.33972,0.51,0.2572,0.75502,5,2D1U,2.0,True,0.591,38,True,right,0.16594,1.6204,2.2864,0.6659,0.2024,1.0452,0.8428,A
305,0.49781,1.2,1,0.2738,0.28209,0.64716,305,2.45588,0.51,0.2572,0.75502,5,2D1U,1.0,True,0.352,38,True,left,-0.08297,0.1885,1.1217,0.9332,1.7298,2.322,0.5922,A
306,0.49781,0.1,1,0.38166,0.35677,0.74672,306,2.72138,0.474,0.24061,0.73842,5,2D1U,1.0,True,0.123,38,False,left,0.16594,0.3625,1.1374,0.775,1.7878,2.4878,0.7,A
307,0.49781,0.1,2,0.29039,0.28209,0.86288,307,2.32312,-0.226,-0.11616,0.38995,5,2U1D,1.0,True,0.234,34,True,left,-0.08297,1.6484,2.0237,0.3753,0.3149,0.7651,0.4501,A
308,0.49781,1.2,2,0.34847,0.33188,0.8131,308,2.72968,0.474,0.24061,0.73842,5,2D1U,2.0,True,0.399,38,False,right,0.16594,1.9225,2.5724,0.6498,0.1806,1.0223,0.8417,A
309,0.49781,1.2,1,0.40655,0.38166,0.63057,309,2.30654,-0.226,-0.11616,0.38995,5,2U1D,1.0,False,0.409,34,True,left,-0.08297,0.3232,0.8898,0.5667,1.4818,2.0725,0.5907,A
310,0.49781,0.1,1,0.33188,0.28209,0.73013,310,2.20697,-0.262,-0.13275,0.36506,5,2U1D,2.0,True,0.385,35,True,right,0.16594,0.3165,0.7172,0.4007,1.3505,2.0499,0.6994,A
311,0.49781,0.1,1,0.42314,0.30699,0.58078,311,2.53055,0.438,0.21572,0.72183,5,2D1U,1.0,True,0.242,38,False,left,-0.08297,0.4072,1.1656,0.7584,1.774,2.2239,0.45,A
312,0.49781,1.2,2,0.37336,0.35677,0.65546,312,2.24846,-0.262,-0.13275,0.36506,5,2U1D,1.0,True,0.334,35,True,left,0.16594,1.7909,2.0662,0.2753,0.2072,1.0492,0.842,A
313,0.49781,1.2,2,0.29039,0.20742,0.77991,313,2.49736,0.438,0.21572,0.72183,5,2D1U,2.0,True,0.368,38,False,right,-0.08297,1.7102,2.3432,0.633,0.252,0.8443,0.5923,A
314,0.49781,0.1,1,0.24891,0.29869,0.58908,314,2.02444,-0.226,-0.11616,0.38995,5,2U1D,1.0,False,0.11,36,True,left,0.16594,0.2293,0.6536,0.4243,1.1461,1.8457,0.6996,A
315,0.49781,0.1,2,0.32358,0.20742,0.63886,315,2.03273,-0.262,-0.13275,0.36506,5,2U1D,1.0,True,0.3,37,True,left,-0.08297,1.4593,1.8091,0.3498,0.3512,0.801,0.4498,A
316,0.49781,1.2,1,0.33188,0.19913,0.62227,316,2.34803,0.402,0.19913,0.69694,5,2D1U,1.0,True,0.437,38,False,left,0.16594,0.2471,1.122,0.875,1.5798,999,997.4202,A
317,0.49781,1.2,1,0.43144,0.32358,0.56419,317,2.51396,0.402,0.19913,0.69694,5,2D1U,1.0,True,0.41,38,False,left,-0.08297,0.3463,1.2218,0.8755,1.7465,2.3379,0.5914,A
318,0.49781,0.1,1,0.2738,0.29869,0.84628,318,2.59693,0.366,0.18253,0.68035,5,2D1U,1.0,True,0.226,38,False,left,0.16594,0.2542,0.9708,0.7166,1.7216,2.4214,0.6998,A
319,0.49781,0.1,2,0.29869,0.43144,0.51441,319,2.10741,-0.262,-0.13275,0.36506,5,2U1D,1.0,True,0.483,37,True,left,-0.08297,1.3054,1.6555,0.3501,0.3222,0.7721,0.4499,A
320,0.49781,1.2,2,0.24891,0.33188,0.87947,320,2.34802,-0.226,-0.11616,0.38995,5,2U1D,1.0,True,0.349,38,True,left,0.16594,1.8884,2.1888,0.3004,0.0801,0.9212,0.8412,A
321,0.49781,1.2,1,0.33188,0.36506,0.82139,321,2.40609,-0.226,-0.11616,0.38995,5,2U1D,1.0,False,0.286,38,True,left,-0.08297,0.2492,0.8155,0.5664,1.5993,2.1906,0.5913,A
322,0.49781,0.1,2,0.21572,0.34847,0.78821,322,2.53056,0.366,0.18253,0.68035,5,2D1U,2.0,True,0.325,38,False,right,0.16594,1.6273,2.2935,0.6662,0.1189,0.8189,0.7,A
323,0.49781,0.1,1,0.34017,0.31528,0.8131,323,2.63011,0.33,0.16594,0.66375,5,2D1U,1.0,True,0.467,38,False,left,-0.08297,0.321,1.0211,0.7,1.8628,2.3125,0.4497,A
324,0.49781,1.2,1,0.33188,0.30699,0.83799,324,2.33973,-0.262,-0.13275,0.36506,5,2U1D,2.0,True,0.386,39,True,right,0.16594,0.2494,0.7907,0.5413,1.4662,2.3078,0.8416,A
325,0.49781,1.2,2,0.34017,0.37336,0.77161,325,2.34801,-0.262,-0.13275,0.36506,5,2U1D,1.0,True,0.284,39,True,left,-0.08297,1.7519,2.0278,0.2758,0.3027,0.8943,0.5916,A
326,0.49781,0.1,2,0.31528,0.38166,0.43144,326,2.01614,-0.226,-0.11616,0.38995,5,2U1D,1.0,True,0.224,40,True,left,0.16594,1.3631,1.7375,0.3745,0.2125,0.9126,0.7001,A
327,0.49781,0.1,1,0.22402,0.34017,0.77991,327,2.23186,-0.226,-0.11616,0.38995,5,2U1D,2.0,True,0.358,40,True,right,-0.08297,0.206,0.631,0.425,1.4392,1.8891,0.4499,A
328,0.49781,1.2,1,0.32358,0.2655,0.5393,328,2.28994,0.33,0.16594,0.66375,5,2D1U,1.0,True,0.113,38,False,left,0.16594,0.2445,1.0863,0.8419,1.4613,2.306,0.8447,A
329,0.49781,1.2,1,0.43974,0.37336,0.44803,329,2.4061,0.294,0.14934,0.64716,5,2D1U,1.0,True,0.292,38,False,left,-0.08297,0.3603,1.1851,0.8248,1.5939,2.1852,0.5913,A
330,0.49781,0.1,1,0.41485,0.21572,0.63057,330,2.1655,-0.19,-0.09127,0.40655,5,2U1D,1.0,False,0.358,40,False,left,0.16594,0.4007,0.843,0.4423,1.3763,2.0763,0.7,A
331,0.49781,0.1,2,0.29039,0.24061,0.86288,331,2.53885,0.294,0.14934,0.64716,5,2D1U,1.0,False,0.279,38,False,left,-0.08297,1.6484,2.2816,0.6332,0.3142,0.765,0.4509,A
332,0.49781,1.2,2,0.23231,0.38995,0.52271,332,2.03273,-0.226,-0.11616,0.38995,5,2U1D,1.0,True,0.26,41,True,left,0.16594,1.5134,1.8129,0.2995,0.0629,0.9052,0.8424,A
333,0.49781,1.2,2,0.34847,0.21572,0.47292,333,2.19867,0.33,0.16594,0.66375,5,2D1U,1.0,False,0.209,39,True,left,-0.08297,1.46,2.0346,0.5746,0.3097,0.9016,0.5919,A
334,0.49781,0.1,2,0.2738,0.29869,0.74672,334,2.20697,-0.226,-0.11616,0.38995,5,2U1D,1.0,True,0.243,41,True,left,0.16594,1.6397,2.0146,0.3749,0.1733,0.8736,0.7003,A
335,0.49781,0.1,2,0.21572,0.37336,0.51441,335,2.28165,0.366,0.18253,0.68035,5,2D1U,2.0,True,0.292,39,False,right,-0.08297,1.2276,1.8946,0.667,0.2437,0.6943,0.4506,A
336,0.49781,1.2,2,0.43974,0.23231,0.47292,336,2.04933,-0.19,-0.09127,0.40655,5,2U1D,1.0,True,0.319,42,True,left,0.16594,1.6733,1.99,0.3166,0.2733,1.1151,0.8418,A
337,0.49781,1.2,1,0.34017,0.37336,0.69694,337,2.58863,0.366,0.18253,0.68035,5,2D1U,2.0,False,0.918,39,False,right,-0.08297,0.2547,1.113,0.8583,1.7715,2.3627,0.5912,A
338,0.49781,0.1,1,0.41485,0.20742,0.69694,338,2.51396,0.402,0.19913,0.69694,5,2D1U,1.0,True,0.396,39,False,left,0.16594,0.4003,1.1337,0.7334,1.7337,2.4337,0.7,A
339,0.49781,0.1,1,0.43974,0.42314,0.78821,339,2.55545,-0.19,-0.09127,0.40655,5,2U1D,1.0,False,0.111,42,True,left,-0.08297,0.4216,0.8634,0.4418,1.68,2.1294,0.4494,A
340,0.49781,1.2,2,0.20742,0.35677,0.45633,340,1.90828,-0.226,-0.11616,0.38995,5,2U1D,1.0,True,0.362,43,True,left,0.16594,1.4236,1.7242,0.3006,0.0407,0.8823,0.8416,A
341,0.49781,1.2,2,0.35677,0.42314,0.63886,341,2.61352,0.402,0.19913,0.69694,5,2D1U,2.0,True,0.298,39,False,right,-0.08297,1.6313,2.2399,0.6086,0.3149,0.9062,0.5912,A
342,0.49781,0.1,1,0.40655,0.30699,0.40655,342,2.29825,0.366,0.18253,0.68035,5,2D1U,1.0,True,0.237,40,True,left,0.16594,0.3933,1.1105,0.7171,1.4188,2.1186,0.6998,A
343,0.49781,0.1,2,0.24061,0.24061,0.85458,343,2.22356,-0.226,-0.11616,0.38995,5,2U1D,1.0,True,0.267,43,True,left,-0.08297,1.5897,1.9644,0.3747,0.2646,0.7147,0.4501,A
344,0.49781,1.2,1,0.31528,0.2572,0.87118,344,2.34802,-0.19,-0.09127,0.40655,5,2U1D,2.0,True,0.283,44,True,right,0.16594,0.2322,0.8155,0.5833,1.5239,999,997.4761,A
345,0.49781,1.2,1,0.34847,0.23231,0.73013,345,2.48907,0.366,0.18253,0.68035,5,2D1U,1.0,True,0.552,40,True,left,-0.08297,0.2631,1.1215,0.8584,1.8129,2.4045,0.5917,A
346,0.49781,0.1,2,0.22402,0.43144,0.75502,346,2.31484,-0.19,-0.09127,0.40655,5,2U1D,1.0,True,0.112,44,True,left,0.16594,1.5991,1.991,0.3919,0.1236,0.8241,0.7004,A
347,0.49781,0.1,1,0.24061,0.42314,0.86288,347,2.44758,-0.154,-0.07467,0.42314,5,2U1D,1.0,False,0.16,44,False,left,-0.08297,0.2222,0.6809,0.4587,1.5721,2.0221,0.45,A
348,0.49781,1.2,2,0.24061,0.2655,0.47292,348,1.88339,-0.19,-0.09127,0.40655,5,2U1D,1.0,True,0.331,45,True,left,0.16594,1.4724,1.789,0.3166,0.0724,0.914,0.8416,A
349,0.49781,1.2,2,0.39825,0.23231,0.63886,349,2.43098,0.33,0.16594,0.66375,5,2D1U,1.0,False,0.143,40,False,left,-0.08297,1.6758,2.2503,0.5745,0.3594,0.9508,0.5914,A
350,0.49781,0.1,1,0.2655,0.32358,0.58078,350,2.07422,-0.19,-0.09127,0.40655,5,2U1D,1.0,False,0.123,45,True,left,0.16594,0.251,0.6929,0.4418,1.1762,1.8762,0.7,A
351,0.49781,0.1,2,0.31528,0.24061,0.83799,351,2.57204,0.366,0.18253,0.68035,5,2D1U,2.0,True,0.314,41,True,right,-0.08297,1.6488,2.3153,0.6666,0.3401,0.7907,0.4506,A
352,0.49781,1.2,2,0.24891,0.39825,0.7965,352,2.62182,0.366,0.18253,0.68035,5,2D1U,2.0,True,0.275,41,True,right,0.16594,1.8062,2.3987,0.5925,0.082,0.9236,0.8415,A
353,0.49781,1.2,2,0.34847,0.2655,0.52271,353,2.02444,-0.226,-0.11616,0.38995,5,2U1D,1.0,True,0.237,45,False,left,-0.08297,1.5072,1.8072,0.3,0.3065,0.8987,0.5922,A
354,0.49781,0.1,2,0.2738,0.20742,0.8048,354,2.44758,0.33,0.16594,0.66375,5,2D1U,2.0,True,0.322,42,True,right,0.16594,1.701,2.3508,0.6498,0.176,0.8761,0.7001,A
355,0.49781,0.1,1,0.42314,0.38166,0.63886,355,2.33142,-0.226,-0.11616,0.38995,5,2U1D,2.0,True,0.126,45,False,right,-0.08297,0.4083,0.8336,0.4253,1.4994,1.9494,0.45,A
356,0.49781,1.2,1,0.2572,0.20742,0.61397,356,2.24015,0.33,0.16594,0.66375,5,2D1U,1.0,True,0.342,42,True,left,0.16594,0.1746,1.016,0.8414,1.4657,999,997.5343,A
357,0.49781,1.2,2,0.30699,0.42314,0.41485,357,2.04934,-0.19,-0.09127,0.40655,5,2U1D,1.0,True,0.2,46,True,left,-0.08297,1.3571,1.6732,0.3161,0.2651,0.8566,0.5915,A
358,0.49781,0.1,1,0.24061,0.28209,0.62227,358,2.04933,-0.19,-0.09127,0.40655,5,2U1D,2.0,True,0.224,46,True,right,0.16594,0.2231,0.665,0.4419,1.1899,1.8904,0.7005,A
359,0.49781,0.1,2,0.23231,0.2572,0.61397,359,2.02443,-0.154,-0.07467,0.42314,5,2U1D,1.0,True,0.298,46,False,left,-0.08297,1.3372,1.7455,0.4083,0.2541,0.7037,0.4496,A
360,0.49781,1.2,2,0.39825,0.42314,0.46463,360,2.20697,-0.154,-0.07467,0.42314,5,2U1D,1.0,True,0.154,46,False,left,0.16594,1.6208,1.954,0.3333,0.2292,1.0706,0.8414,A
361,0.49781,1.2,2,0.30699,0.41485,0.7965,361,2.66331,0.294,0.14934,0.64716,5,2D1U,1.0,False,0.258,42,False,left,-0.08297,1.7421,2.3006,0.5586,0.2669,0.8597,0.5927,A
362,0.49781,0.1,1,0.42314,0.44803,0.51441,362,2.54714,0.33,0.16594,0.66375,5,2D1U,1.0,True,0.433,43,True,left,0.16594,0.4043,1.1036,0.6993,1.5209,2.221,0.7001,A
363,0.49781,0.1,1,0.32358,0.32358,0.43974,363,2.02445,-0.118,-0.05808,0.43974,5,2U1D,1.0,False,0.257,46,False,left,-0.08297,0.304,0.7796,0.4755,1.2462,1.6956,0.4495,A
364,0.49781,1.2,1,0.38166,0.29039,0.89607,364,2.48907,-0.154,-0.07467,0.42314,5,2U1D,1.0,False,0.284,47,True,left,0.16594,0.2969,0.8974,0.6005,1.6312,2.4723,0.8411,A
365,0.49781,1.2,1,0.29039,0.31528,0.68864,365,2.45587,0.33,0.16594,0.66375,5,2D1U,1.0,True,0.475,43,True,left,-0.08297,0.2096,1.0514,0.8418,1.7014,2.2932,0.5918,A
366,0.49781,0.1,2,0.20742,0.24061,0.8131,366,2.16549,-0.19,-0.09127,0.40655,5,2U1D,1.0,True,0.309,47,False,left,0.16594,1.6436,2.0356,0.392,0.1108,0.8105,0.6997,A
367,0.49781,0.1,2,0.33188,0.43974,0.77991,367,2.6965,0.294,0.14934,0.64716,5,2D1U,1.0,False,0.15,44,True,left,-0.08297,1.6072,2.24,0.6328,0.357,0.807,0.45,A
368,0.49781,1.2,1,0.2738,0.43144,0.59738,368,2.46418,0.33,0.16594,0.66375,5,2D1U,1.0,True,0.114,45,True,left,0.16594,0.1913,1.0329,0.8416,1.4669,2.3084,0.8415,A
369,0.49781,1.2,1,0.31528,0.37336,0.71353,369,2.56373,0.33,0.16594,0.66375,5,2D1U,1.0,True,0.333,45,True,left,-0.08297,0.2289,1.0702,0.8413,1.7455,2.3373,0.5918,A
370,0.49781,0.1,1,0.21572,0.30699,0.66375,370,2.09082,-0.19,-0.09127,0.40655,5,2U1D,2.0,True,0.333,47,False,right,0.16594,0.1984,0.6401,0.4417,1.2068,1.9063,0.6995,A
371,0.49781,0.1,1,0.34017,0.40655,0.77991,371,2.44758,-0.154,-0.07467,0.42314,5,2U1D,1.0,False,0.347,48,True,left,-0.08297,0.3246,0.7818,0.4572,1.5911,2.0411,0.4501,A
372,0.49781,1.2,2,0.43144,0.40655,0.67205,372,2.65501,0.294,0.14934,0.64716,5,2D1U,2.0,True,0.383,46,True,right,0.16594,1.8628,2.4211,0.5583,0.2627,1.1049,0.8422,A
373,0.49781,1.2,2,0.23231,0.41485,0.46463,373,2.25676,0.294,0.14934,0.64716,5,2D1U,2.0,True,0.223,46,True,right,-0.08297,1.3288,1.8871,0.5583,0.1872,0.779,0.5918,A
374,0.49781,0.1,2,0.19913,0.29039,0.48122,374,2.09912,0.258,0.13275,0.63057,5,2D1U,2.0,True,0.242,46,False,right,0.16594,1.2975,1.9144,0.6169,0.097,0.7978,0.7008,A
375,0.49781,0.1,1,0.34847,0.21572,0.88777,375,2.35632,-0.19,-0.09127,0.40655,5,2U1D,2.0,True,0.462,49,True,right,-0.08297,0.3296,0.7716,0.442,1.6872,2.1376,0.4504,A
376,0.49781,1.2,2,0.34017,0.21572,0.60567,376,2.06592,-0.19,-0.09127,0.40655,5,2U1D,1.0,True,0.341,49,True,left,0.16594,1.7053,2.022,0.3167,0.1722,1.014,0.8417,A
377,0.49781,1.2,2,0.28209,0.33188,0.8048,377,2.33972,-0.154,-0.07467,0.42314,5,2U1D,1.0,True,0.26,50,True,left,-0.08297,1.7262,2.0593,0.3331,0.2416,0.8345,0.5929,A
378,0.49781,0.1,2,0.2655,0.24061,0.73842,378,2.37291,0.258,0.13275,0.63057,5,2D1U,1.0,False,0.162,46,False,left,0.16594,1.6231,2.2401,0.6171,0.1648,0.8649,0.7001,A
379,0.49781,0.1,2,0.24891,0.23231,0.48122,379,2.10741,0.294,0.14934,0.64716,5,2D1U,1.0,False,0.291,47,True,left,-0.08297,1.2214,1.8548,0.6335,0.2717,0.7221,0.4504,A
380,0.49781,1.2,1,0.28209,0.38995,0.58078,380,2.41438,0.33,0.16594,0.66375,5,2D1U,2.0,False,0.431,47,False,right,0.16594,0.1972,1.0389,0.8417,1.4556,2.2973,0.8417,A
381,0.49781,1.2,2,0.24891,0.21572,0.45633,381,1.84191,-0.154,-0.07467,0.42314,5,2U1D,1.0,True,0.264,50,True,left,-0.08297,1.3377,1.6706,0.3329,0.2044,0.7958,0.5914,A
382,0.49781,0.1,2,0.20742,0.20742,0.43974,382,2.03274,0.366,0.18253,0.68035,5,2D1U,2.0,True,0.182,47,False,right,0.16594,1.2684,1.9351,0.6668,0.1095,0.8099,0.7004,A
383,0.49781,0.1,1,0.35677,0.2655,0.87118,383,2.431,-0.118,-0.05808,0.43974,5,2U1D,2.0,True,0.112,50,False,right,-0.08297,0.3428,0.8178,0.475,1.7177,2.1674,0.4497,A
384,0.49781,1.2,1,0.39825,0.43144,0.77161,384,2.53885,-0.118,-0.05808,0.43974,5,2U1D,2.0,True,0.367,50,False,right,0.16594,0.3196,0.9362,0.6166,1.5444,2.3861,0.8417,A
385,0.49781,1.2,2,0.2655,0.21572,0.61397,385,2.27335,0.366,0.18253,0.68035,5,2D1U,1.0,False,0.559,47,False,left,-0.08297,1.5195,2.1111,0.5917,0.2282,0.8194,0.5912,A
386,0.49781,0.1,1,0.31528,0.34017,0.50611,386,2.1157,-0.082,-0.04148,0.45633,5,2U1D,1.0,False,0.503,50,False,left,0.16594,0.3013,0.7929,0.4917,1.2016,1.901,0.6994,A
387,0.49781,0.1,2,0.36506,0.43144,0.73013,387,2.46418,-0.118,-0.05808,0.43974,5,2U1D,1.0,True,0.134,51,True,left,-0.08297,1.5888,2.0135,0.4247,0.389,0.8389,0.4499,A
388,0.49781,1.2,2,0.30699,0.29039,0.60567,388,2.3978,0.402,0.19913,0.69694,5,2D1U,1.0,False,0.31,47,False,left,0.16594,1.6704,2.2788,0.6085,0.1371,0.9788,0.8417,A
389,0.49781,1.2,1,0.40655,0.36506,0.40655,389,2.11571,-0.118,-0.05808,0.43974,5,2U1D,1.0,False,0.249,51,True,left,-0.08297,0.3261,0.9426,0.6166,1.3094,1.9012,0.5918,A
390,0.49781,0.1,1,0.43974,0.22402,0.84628,390,2.72968,0.438,0.21572,0.72183,5,2D1U,1.0,True,0.283,47,False,left,0.16594,0.4223,1.181,0.7587,1.9311,2.631,0.6999,A
391,0.49781,0.1,2,0.43144,0.20742,0.67205,391,2.53055,0.438,0.21572,0.72183,5,2D1U,1.0,False,0.55,47,False,left,-0.08297,1.5961,2.3047,0.7086,0.4541,0.9043,0.4501,A
392,0.49781,1.2,2,0.19913,0.29039,0.51441,392,2.24016,0.474,0.24061,0.73842,5,2D1U,2.0,True,0.376,47,False,right,0.16594,1.4763,2.1264,0.6501,0.0344,0.8764,0.842,A
393,0.49781,1.2,2,0.28209,0.2655,0.64716,393,2.1157,-0.154,-0.07467,0.42314,5,2U1D,1.0,True,0.491,51,False,left,-0.08297,1.5643,1.8972,0.3329,0.239,0.8307,0.5916,A
394,0.49781,0.1,2,0.44803,0.37336,0.73842,394,2.79604,0.474,0.24061,0.73842,5,2D1U,2.0,True,0.333,47,False,right,0.16594,1.8052,2.5297,0.7245,0.3468,1.0469,0.7001,A
395,0.49781,0.1,2,0.24891,0.38995,0.44803,395,2.00784,-0.154,-0.07467,0.42314,5,2U1D,1.0,True,0.275,51,False,left,-0.08297,1.1884,1.5965,0.4081,0.272,0.7215,0.4495,A
396,0.49781,1.2,1,0.28209,0.43974,0.51441,396,2.17379,-0.118,-0.05808,0.43974,5,2U1D,1.0,False,0.341,52,True,left,0.16594,0.1975,0.8136,0.6161,1.1635,2.0054,0.8419,A
397,0.49781,1.2,2,0.21572,0.34017,0.48952,397,2.26505,0.438,0.21572,0.72183,5,2D1U,1.0,False,0.217,48,True,left,-0.08297,1.339,1.9724,0.6333,0.1725,0.7645,0.592,A
398,0.49781,0.1,1,0.41485,0.42314,0.66375,398,2.73797,0.474,0.24061,0.73842,5,2D1U,1.0,True,0.468,49,True,left,0.16594,0.401,1.1758,0.7748,1.7423,2.4424,0.7001,A
399,0.49781,0.1,2,0.28209,0.32358,0.5393,399,2.3812,0.474,0.24061,0.73842,5,2D1U,1.0,False,0.292,49,True,left,-0.08297,1.3153,2.0402,0.7248,0.3067,0.7568,0.4501,A
400,0.49781,1.2,1,0.41485,0.34017,0.62227,400,2.29824,-0.154,-0.07467,0.42314,5,2U1D,1.0,False,0.47,53,True,left,0.16594,0.329,0.9285,0.5995,1.3873,2.2289,0.8416,A
401,0.49781,1.2,1,0.39825,0.29869,0.531,401,2.48077,0.51,0.2572,0.75502,5,2D1U,1.0,True,0.258,49,False,left,-0.08297,0.3178,1.251,0.9332,1.7429,2.3346,0.5918,A
402,0.49781,0.1,2,0.38995,0.39825,0.59738,402,2.28994,-0.19,-0.09127,0.40655,5,2U1D,1.0,True,0.173,53,False,left,0.16594,1.6102,2.0019,0.3917,0.2939,0.9934,0.6995,A
403,0.49781,0.1,2,0.42314,0.38995,0.47292,403,2.53884,0.51,0.2572,0.75502,5,2D1U,2.0,True,0.35,49,False,right,-0.08297,1.3874,2.1291,0.7417,0.4458,0.8958,0.45,A
404,0.49781,1.2,1,0.43144,0.41485,0.48122,404,2.56374,0.474,0.24061,0.73842,5,2D1U,1.0,True,0.309,50,True,left,0.16594,0.3511,1.2676,0.9166,1.5844,2.4261,0.8418,A
405,0.49781,1.2,2,0.39825,0.24061,0.75502,405,2.29824,-0.19,-0.09127,0.40655,5,2U1D,1.0,True,0.392,53,False,left,-0.08297,1.7934,2.1101,0.3166,0.3603,0.9518,0.5916,A
406,0.49781,0.1,2,0.21572,0.2655,0.50611,406,2.22356,0.474,0.24061,0.73842,5,2D1U,2.0,True,0.325,50,True,right,0.16594,1.3439,2.0687,0.7248,0.1185,0.8185,0.7001,A
407,0.49781,0.1,1,0.43144,0.39825,0.63886,407,2.68819,0.438,0.21572,0.72183,5,2D1U,1.0,True,0.46,50,False,left,-0.08297,0.4167,1.175,0.7583,1.8416,2.2918,0.4502,A
408,0.49781,1.2,1,0.43144,0.33188,0.7965,408,2.77946,0.438,0.21572,0.72183,5,2D1U,1.0,True,0.277,50,False,left,0.16594,0.3456,1.2448,0.8992,1.8789,2.72,0.841,A
409,0.49781,1.2,1,0.44803,0.44803,0.63886,409,2.45587,-0.154,-0.07467,0.42314,5,2U1D,2.0,True,0.355,54,True,right,-0.08297,0.3649,0.9652,0.6003,1.5648,2.1564,0.5915,A
410,0.49781,0.1,2,0.40655,0.24061,0.42314,410,1.99125,-0.154,-0.07467,0.42314,5,2U1D,1.0,True,0.111,54,True,left,0.16594,1.4516,1.86,0.4084,0.3098,1.0099,0.7001,A
411,0.49781,0.1,1,0.33188,0.28209,0.5476,411,2.35632,0.402,0.19913,0.69694,5,2D1U,1.0,True,0.767,50,False,left,-0.08297,0.3127,1.046,0.7334,1.621,2.0709,0.4499,A
412,0.49781,1.2,1,0.23231,0.24891,0.59738,412,2.27335,0.402,0.19913,0.69694,5,2D1U,2.0,False,0.634,50,False,right,0.16594,0.1441,1.0189,0.8749,1.4523,999,997.5477,A
413,0.49781,1.2,1,0.29039,0.23231,0.58908,413,2.33142,0.438,0.21572,0.72183,5,2D1U,1.0,True,0.356,51,True,left,-0.08297,0.2054,1.1056,0.9002,1.6556,2.2472,0.5916,A
414,0.49781,0.1,1,0.37336,0.29039,0.8131,414,2.4144,-0.118,-0.05808,0.43974,5,2U1D,1.0,False,0.298,54,False,left,0.16594,0.3578,0.8332,0.4755,1.5499,2.25,0.7001,A
415,0.49781,0.1,2,0.2572,0.36506,0.43974,415,1.98295,-0.154,-0.07467,0.42314,5,2U1D,1.0,True,0.257,55,True,left,-0.08297,1.1927,1.6009,0.4082,0.2851,0.7349,0.4498,A
416,0.49781,1.2,2,0.38995,0.34847,0.84628,416,2.80434,0.438,0.21572,0.72183,5,2D1U,2.0,True,0.57,51,True,right,0.16594,1.997,2.6303,0.6333,0.2221,1.0637,0.8416,A
417,0.49781,1.2,2,0.24891,0.29039,0.51441,417,1.97466,-0.154,-0.07467,0.42314,5,2U1D,1.0,True,0.368,55,True,left,-0.08297,1.3957,1.7291,0.3334,0.204,0.7957,0.5917,A
418,0.49781,0.1,1,0.33188,0.29039,0.87118,418,2.6882,0.402,0.19913,0.69694,5,2D1U,1.0,True,0.336,52,True,left,0.16594,0.3123,1.0456,0.7333,1.8208,2.5208,0.7,A
419,0.49781,0.1,1,0.29039,0.20742,0.8048,419,2.24016,-0.118,-0.05808,0.43974,5,2U1D,2.0,True,0.358,56,True,right,-0.08297,0.2711,0.746,0.4749,1.5794,2.0296,0.4502,A
420,0.49781,1.2,1,0.43974,0.29869,0.84628,420,2.52226,-0.118,-0.05808,0.43974,5,2U1D,1.0,False,0.464,56,True,left,0.16594,0.3565,0.9731,0.6166,1.6565,2.4979,0.8413,A
421,0.49781,1.2,2,0.23231,0.24891,0.52271,421,2.19868,0.402,0.19913,0.69694,5,2D1U,2.0,True,0.412,52,True,right,-0.08297,1.3872,1.9958,0.6085,0.1873,0.779,0.5916,A
422,0.49781,0.1,1,0.35677,0.42314,0.52271,422,2.48078,0.366,0.18253,0.68035,5,2D1U,1.0,True,0.111,52,False,left,0.16594,0.3439,1.0607,0.7167,1.4859,2.1858,0.7,A
423,0.49781,0.1,2,0.24891,0.34847,0.87118,423,2.38951,-0.154,-0.07467,0.42314,5,2U1D,1.0,True,0.258,57,True,left,-0.08297,1.6118,2.0203,0.4085,0.2702,0.7204,0.4502,A
424,0.49781,1.2,2,0.2655,0.2655,0.42314,424,2.1323,0.366,0.18253,0.68035,5,2D1U,1.0,False,0.259,52,False,left,0.16594,1.4499,2.0417,0.5918,0.0999,0.9418,0.8419,A
425,0.49781,1.2,1,0.35677,0.20742,0.60567,425,2.09081,-0.154,-0.07467,0.42314,5,2U1D,1.0,False,0.375,57,True,left,-0.08297,0.2739,0.8741,0.6002,1.4407,2.0323,0.5915,A
426,0.49781,0.1,2,0.35677,0.30699,0.68864,426,2.54715,0.402,0.19913,0.69694,5,2D1U,2.0,True,0.287,53,True,right,0.16594,1.6646,2.348,0.6833,0.2564,0.9563,0.6998,A
427,0.49781,0.1,2,0.38166,0.34847,0.42314,427,2.05763,-0.19,-0.09127,0.40655,5,2U1D,1.0,True,0.458,57,False,left,-0.08297,1.3011,1.6932,0.392,0.4095,0.8594,0.45,A
428,0.49781,1.2,1,0.22402,0.34017,0.60567,428,2.36461,0.402,0.19913,0.69694,5,2D1U,2.0,False,0.625,53,True,right,0.16594,0.1419,1.0171,0.8752,1.4586,2.3004,0.8418,A
429,0.49781,1.2,2,0.32358,0.38995,0.63057,429,2.56374,0.438,0.21572,0.72183,5,2D1U,1.0,False,0.109,53,False,left,-0.08297,1.5898,2.2232,0.6333,0.2814,0.8731,0.5917,A
430,0.49781,0.1,2,0.41485,0.29039,0.68864,430,2.29824,-0.19,-0.09127,0.40655,5,2U1D,1.0,True,2.233,57,False,left,0.16594,1.7219,2.1135,0.3917,0.3135,1.0136,0.7001,A
431,0.49781,0.1,1,0.38995,0.38995,0.68035,431,2.3812,-0.154,-0.07467,0.42314,5,2U1D,2.0,True,0.275,58,True,right,-0.08297,0.3753,0.8337,0.4584,1.5421,1.9921,0.45,A
432,0.49781,1.2,2,0.41485,0.38995,0.82139,432,2.86242,0.474,0.24061,0.73842,5,2D1U,2.0,True,0.279,53,False,right,0.16594,1.9977,2.6476,0.65,0.2474,1.0894,0.842,A
433,0.49781,1.2,2,0.21572,0.2738,0.40655,433,2.1323,0.474,0.24061,0.73842,5,2D1U,1.0,False,0.11,53,False,left,-0.08297,1.255,1.905,0.65,0.1717,0.7636,0.5919,A
434,0.49781,0.1,2,0.24061,0.44803,0.82139,434,2.76286,0.51,0.2572,0.75502,5,2D1U,2.0,True,0.151,53,False,right,0.16594,1.685,2.427,0.742,0.1434,0.8436,0.7002,A
435,0.49781,0.1,1,0.23231,0.21572,0.61397,435,2.31483,0.51,0.2572,0.75502,5,2D1U,2.0,False,0.229,53,False,right,-0.08297,0.2139,1.0054,0.7915,1.6471,2.097,0.4499,A
436,0.49781,1.2,2,0.29039,0.34847,0.44803,436,2.00784,-0.154,-0.07467,0.42314,5,2U1D,1.0,True,0.192,58,True,left,0.16594,1.4973,1.8306,0.3333,0.1223,0.964,0.8417,A
437,0.49781,1.2,2,0.2738,0.43974,0.46463,437,2.11572,-0.118,-0.05808,0.43974,5,2U1D,1.0,True,0.171,58,False,left,-0.08297,1.3706,1.7206,0.3499,0.2291,0.8205,0.5914,A
438,0.49781,0.1,2,0.37336,0.19913,0.48952,438,2.33143,0.546,0.2738,0.77161,5,2D1U,2.0,True,0.142,53,False,right,0.16594,1.4774,2.2357,0.7583,0.269,0.9691,0.7,A
439,0.49781,0.1,2,0.23231,0.2572,0.58908,439,2.01614,-0.118,-0.05808,0.43974,5,2U1D,1.0,True,0.236,58,False,left,-0.08297,1.3118,1.7369,0.4251,0.2534,0.7035,0.45,A
440,0.49781,1.2,2,0.44803,0.43974,0.8131,440,2.97029,0.546,0.2738,0.77161,5,2D1U,1.0,False,0.275,53,False,left,0.16594,2.0268,2.7102,0.6834,0.2853,1.1269,0.8416,A
441,0.49781,1.2,1,0.42314,0.38995,0.71353,441,2.48076,-0.082,-0.04148,0.45633,5,2U1D,1.0,False,0.342,58,False,left,-0.08297,0.343,0.9766,0.6336,1.6515,2.2432,0.5917,A
442,0.49781,0.1,1,0.24891,0.28209,0.8048,442,2.62182,0.582,0.29039,0.78821,5,2D1U,1.0,True,0.175,53,False,left,0.16594,0.2274,1.0527,0.8252,1.761,2.461,0.7,A
443,0.49781,0.1,1,0.38995,0.35677,0.82139,443,2.85413,0.582,0.29039,0.78821,5,2D1U,1.0,True,0.11,53,False,left,-0.08297,0.3727,1.1976,0.825,2.0475,2.4978,0.4503,A
444,0.49781,1.2,1,0.42314,0.41485,0.60567,444,2.38121,-0.118,-0.05808,0.43974,5,2U1D,1.0,False,0.111,59,True,left,0.16594,0.3392,0.9557,0.6165,1.3975,2.2391,0.8417,A
445,0.49781,1.2,2,0.23231,0.35677,0.69694,445,2.20697,-0.154,-0.07467,0.42314,5,2U1D,1.0,True,0.295,59,False,left,-0.08297,1.5645,1.8984,0.3339,0.1895,0.7813,0.5919,A
446,0.49781,0.1,1,0.23231,0.34847,0.61397,446,2.46417,0.546,0.2738,0.77161,5,2D1U,1.0,True,0.11,54,True,left,0.16594,0.216,1.0242,0.8083,1.5406,2.2406,0.7001,A
447,0.49781,0.1,2,0.2572,0.34847,0.73013,447,2.25675,-0.154,-0.07467,0.42314,5,2U1D,1.0,True,0.283,59,False,left,-0.08297,1.4806,1.8889,0.4083,0.2807,0.7308,0.4501,A
448,0.49781,1.2,2,0.24061,0.37336,0.84628,448,2.72967,0.546,0.2738,0.77161,5,2D1U,2.0,True,0.267,54,True,right,0.16594,1.8523,2.5363,0.684,0.0773,0.919,0.8417,A
449,0.49781,1.2,2,0.43974,0.30699,0.69694,449,2.38122,-0.118,-0.05808,0.43974,5,2U1D,1.0,True,0.296,60,True,left,-0.08297,1.7758,2.1259,0.3502,0.401,0.9929,0.5919,A
450,0.49781,0.1,2,0.28209,0.28209,0.71353,450,2.21526,-0.118,-0.05808,0.43974,5,2U1D,1.0,True,0.291,60,True,left,0.16594,1.6125,2.0371,0.4246,0.1793,0.8788,0.6994,A
451,0.49781,0.1,1,0.28209,0.23231,0.69694,451,2.46417,0.51,0.2572,0.75502,5,2D1U,1.0,True,0.584,54,False,left,-0.08297,0.2678,1.0593,0.7916,1.7844,2.2345,0.4501,A
452,0.49781,1.2,2,0.43144,0.38995,0.42314,452,2.19867,-0.082,-0.04148,0.45633,5,2U1D,1.0,True,0.217,60,False,left,0.16594,1.6139,1.9808,0.3669,0.2643,1.1055,0.8412,A
453,0.49781,1.2,2,0.2572,0.20742,0.55589,453,2.27334,0.51,0.2572,0.75502,5,2D1U,1.0,False,0.298,54,False,left,-0.08297,1.4531,2.1196,0.6665,0.2196,0.8113,0.5917,A
454,0.49781,0.1,1,0.23231,0.38995,0.46463,454,2.04103,-0.082,-0.04148,0.45633,5,2U1D,2.0,True,0.111,60,False,right,0.16594,0.2153,0.7071,0.4918,1.0735,1.7735,0.6999,A
455,0.49781,0.1,2,0.41485,0.30699,0.7965,455,2.78776,0.546,0.2738,0.77161,5,2D1U,2.0,True,0.635,55,True,right,-0.08297,1.7118,2.4702,0.7583,0.4454,0.8951,0.4497,A
456,0.49781,1.2,2,0.31528,0.39825,0.59738,456,2.58033,0.546,0.2738,0.77161,5,2D1U,2.0,True,0.333,55,True,right,0.16594,1.6711,2.3545,0.6834,0.1462,0.9878,0.8416,A
457,0.49781,1.2,2,0.22402,0.29869,0.48952,457,1.98296,-0.046,-0.02489,0.47292,5,2U1D,1.0,True,0.257,60,False,left,-0.08297,1.3463,1.7303,0.384,0.1804,0.772,0.5917,A
458,0.49781,0.1,1,0.29869,0.38995,0.82969,458,2.48906,-0.046,-0.02489,0.47292,5,2U1D,2.0,True,0.216,60,False,right,0.16594,0.2795,0.7878,0.5083,1.5212,2.2212,0.7,A
459,0.49781,0.1,2,0.35677,0.31528,0.41485,459,2.08252,-0.01,-0.0083,0.49781,5,2U1D,1.0,False,0.116,60,False,left,-0.08297,1.2644,1.7474,0.4831,0.381,0.8311,0.4501,A
460,0.49781,1.2,1,0.29039,0.43974,0.44803,460,2.43099,0.51,0.2572,0.75502,5,2D1U,2.0,False,0.217,56,True,right,0.16594,0.2064,1.1397,0.9333,1.4231,2.2648,0.8416,A
461,0.49781,1.2,2,0.38166,0.39825,0.89607,461,2.64671,-0.046,-0.02489,0.47292,5,2U1D,2.0,False,0.239,61,True,right,-0.08297,1.9157,2.299,0.3833,0.3404,0.9321,0.5917,A
462,0.49781,0.1,2,0.31528,0.28209,0.72183,462,2.27334,-0.082,-0.04148,0.45633,5,2U1D,1.0,True,0.41,61,False,left,0.16594,1.6563,2.0981,0.4417,0.2145,0.915,0.7005,A
463,0.49781,0.1,2,0.24061,0.29869,0.7965,463,2.60522,0.546,0.2738,0.77161,5,2D1U,2.0,True,0.182,57,True,right,-0.08297,1.5351,2.2939,0.7588,0.2684,0.7185,0.4501,A
464,0.49781,1.2,1,0.35677,0.39825,0.59738,464,2.62182,0.546,0.2738,0.77161,5,2D1U,2.0,False,0.242,57,True,right,0.16594,0.2742,1.2243,0.9501,1.6571,2.4993,0.8422,A
465,0.49781,1.2,1,0.29869,0.23231,0.50611,465,1.99125,-0.082,-0.04148,0.45633,5,2U1D,1.0,False,0.874,61,False,left,-0.08297,0.22,0.8528,0.6329,1.3202,1.9121,0.5918,A
466,0.49781,0.1,2,0.36506,0.23231,0.86288,466,2.3978,-0.118,-0.05808,0.43974,5,2U1D,1.0,True,0.344,61,False,left,0.16594,1.8453,2.2702,0.4249,0.2622,0.9619,0.6997,A
467,0.49781,0.1,2,0.33188,0.24061,0.69694,467,2.55545,0.582,0.29039,0.78821,5,2D1U,2.0,True,0.112,57,False,right,-0.08297,1.5237,2.2987,0.775,0.3572,0.8071,0.4499,A
468,0.49781,1.2,1,0.32358,0.40655,0.56419,468,2.23187,-0.118,-0.05808,0.43974,5,2U1D,1.0,False,0.353,61,False,left,0.16594,0.2414,0.858,0.6166,1.2576,2.0998,0.8422,A
469,0.49781,1.2,2,0.41485,0.30699,0.88777,469,2.53056,-0.154,-0.07467,0.42314,5,2U1D,1.0,True,0.225,61,False,left,-0.08297,1.9386,2.2714,0.3328,0.3716,0.9632,0.5916,A
470,0.49781,0.1,1,0.37336,0.20742,0.44803,470,1.94976,-0.154,-0.07467,0.42314,5,2U1D,1.0,False,0.542,61,False,left,0.16594,0.3567,0.815,0.4583,1.1651,1.8646,0.6995,A
471,0.49781,0.1,1,0.29039,0.29039,0.5393,471,2.4061,0.582,0.29039,0.78821,5,2D1U,1.0,True,0.182,57,False,left,-0.08297,0.2733,1.0979,0.8246,1.6648,2.1151,0.4503,A
472,0.49781,1.2,2,0.20742,0.2655,0.77161,472,2.51395,0.546,0.2738,0.77161,5,2D1U,2.0,True,0.384,58,True,right,0.16594,1.7424,2.4258,0.6834,0.0421,0.8841,0.842,A
473,0.49781,1.2,2,0.34847,0.2738,0.77161,473,2.6633,0.546,0.2738,0.77161,5,2D1U,2.0,True,0.387,58,True,right,-0.08297,1.7562,2.4393,0.6831,0.3057,0.8975,0.5918,A
474,0.49781,0.1,1,0.34017,0.39825,0.65546,474,2.29824,-0.19,-0.09127,0.40655,5,2U1D,2.0,True,0.4,61,False,right,0.16594,0.3257,0.7672,0.4415,1.3259,2.0257,0.6998,A
475,0.49781,0.1,2,0.21572,0.31528,0.46463,475,2.24846,0.51,0.2572,0.75502,5,2D1U,2.0,True,0.11,58,False,right,-0.08297,1.1718,1.9133,0.7415,0.2376,0.6884,0.4507,A
476,0.49781,1.2,2,0.32358,0.40655,0.72183,476,2.35632,-0.19,-0.09127,0.40655,5,2U1D,2.0,False,0.266,61,False,right,0.16594,1.8046,2.1212,0.3167,0.1538,0.9964,0.8426,A
477,0.49781,1.2,1,0.24061,0.2655,0.87118,477,2.63012,0.51,0.2572,0.75502,5,2D1U,1.0,True,0.292,58,False,left,-0.08297,0.1603,1.0942,0.934,1.9273,2.5189,0.5916,A
478,0.49781,0.1,1,0.41485,0.31528,0.5476,478,2.16549,-0.226,-0.11616,0.38995,5,2U1D,2.0,True,0.543,61,False,right,0.16594,0.4022,0.8271,0.425,1.2775,1.9772,0.6997,A
479,0.49781,0.1,2,0.20742,0.24891,0.8131,479,2.50566,0.474,0.24061,0.73842,5,2D1U,2.0,True,0.312,58,False,right,-0.08297,1.5149,2.2398,0.7249,0.2318,0.6816,0.4498,A
480,0.49781,1.2,2,0.43974,0.43144,0.82139,480,2.58033,-0.226,-0.11616,0.38995,5,2U1D,1.0,True,0.384,61,False,left,0.16594,2.0228,2.3228,0.2999,0.2727,1.1143,0.8416,A
481,0.49781,1.2,1,0.38995,0.43974,0.77161,481,2.83753,0.474,0.24061,0.73842,5,2D1U,1.0,True,0.409,58,False,left,-0.08297,0.3051,1.2217,0.9165,1.9548,2.5468,0.5919,A
482,0.49781,0.1,2,0.41485,0.33188,0.73013,482,2.6965,0.438,0.21572,0.72183,5,2D1U,2.0,True,0.276,58,False,right,0.16594,1.7677,2.4759,0.7082,0.3179,1.0176,0.6997,A
483,0.49781,0.1,2,0.19913,0.23231,0.58908,483,1.92488,-0.19,-0.09127,0.40655,5,2U1D,1.0,True,0.318,62,True,left,-0.08297,1.2801,1.6708,0.3906,0.2215,0.6715,0.45,A
484,0.49781,1.2,2,0.34847,0.39825,0.57249,484,2.22357,-0.19,-0.09127,0.40655,5,2U1D,1.0,True,0.404,62,True,left,0.16594,1.6831,1.9994,0.3163,0.183,1.0246,0.8416,A
485,0.49781,1.2,1,0.36506,0.39825,0.41485,485,2.09911,-0.154,-0.07467,0.42314,5,2U1D,1.0,False,0.35,62,False,left,-0.08297,0.2867,0.8865,0.5998,1.2617,1.8533,0.5915,A
486,0.49781,0.1,2,0.29039,0.34017,0.58908,486,2.43928,0.438,0.21572,0.72183,5,2D1U,2.0,True,0.275,58,False,right,0.16594,1.5008,2.2089,0.708,0.1923,0.8923,0.7,A
487,0.49781,0.1,2,0.2655,0.32358,0.88777,487,2.38121,-0.19,-0.09127,0.40655,5,2U1D,1.0,True,0.2,63,True,left,-0.08297,1.6481,2.0392,0.3912,0.2896,0.7397,0.4501,A
488,0.49781,1.2,2,0.24061,0.29869,0.48122,488,2.21527,0.402,0.19913,0.69694,5,2D1U,1.0,False,0.345,58,False,left,0.16594,1.479,2.0877,0.6087,0.0709,0.9122,0.8414,A
489,0.49781,1.2,2,0.32358,0.35677,0.70524,489,2.28995,-0.19,-0.09127,0.40655,5,2U1D,1.0,True,0.217,63,True,left,-0.08297,1.6688,1.9854,0.3166,0.2855,0.8771,0.5916,A
490,0.49781,0.1,2,0.20742,0.21572,0.63057,490,1.97466,-0.154,-0.07467,0.42314,5,2U1D,1.0,True,0.233,64,True,left,0.16594,1.4563,1.8645,0.4082,0.1065,0.8065,0.7,A
491,0.49781,0.1,1,0.39825,0.41485,0.78821,491,2.52226,-0.154,-0.07467,0.42314,5,2U1D,1.0,False,0.275,64,True,left,-0.08297,0.3847,0.8425,0.4578,1.6598,2.1098,0.45,A
492,0.49781,1.2,2,0.40655,0.34017,0.67205,492,2.63841,0.438,0.21572,0.72183,5,2D1U,1.0,False,0.114,59,True,left,0.16594,1.843,2.4765,0.6335,0.243,1.0853,0.8422,A
493,0.49781,1.2,1,0.38995,0.43144,0.76332,493,2.48907,-0.19,-0.09127,0.40655,5,2U1D,1.0,False,0.333,65,True,left,-0.08297,0.3078,0.8911,0.5833,1.6165,2.2079,0.5914,A
494,0.49781,0.1,1,0.30699,0.29039,0.43974,494,1.92488,-0.226,-0.11616,0.38995,5,2U1D,1.0,False,0.34,65,False,left,0.16594,0.2907,0.7157,0.425,1.0577,1.7573,0.6995,A
495,0.49781,0.1,2,0.31528,0.38166,0.56419,495,2.124,-0.262,-0.13275,0.36506,5,2U1D,1.0,True,0.188,65,False,left,-0.08297,1.3756,1.7257,0.3501,0.3424,0.7923,0.45,A
496,0.49781,1.2,2,0.40655,0.23231,0.45633,496,2.33142,0.474,0.24061,0.73842,5,2D1U,1.0,False,0.498,59,False,left,0.16594,1.6224,2.2723,0.6499,0.2391,1.0809,0.8419,A
497,0.49781,1.2,2,0.21572,0.33188,0.77991,497,2.19038,-0.262,-0.13275,0.36506,5,2U1D,1.0,True,0.159,65,False,left,-0.08297,1.6293,1.9045,0.2752,0.1706,0.7626,0.592,A
498,0.49781,0.1,1,0.31528,0.2738,0.87118,498,2.71309,0.51,0.2572,0.75502,5,2D1U,1.0,True,0.114,59,False,left,0.16594,0.3021,1.0938,0.7916,1.8689,2.5687,0.6998,A
499,0.49781,0.1,1,0.20742,0.2655,0.83799,499,2.19867,-0.226,-0.11616,0.38995,5,2U1D,1.0,False,0.111,66,True,left,-0.08297,0.1921,0.6173,0.4252,1.4835,1.9336,0.4501,A
500,0.49781,1.2,2,0.43144,0.22402,0.42314,500,2.33143,0.51,0.2572,0.75502,5,2D1U,1.0,False,0.226,59,False,left,0.16594,1.6203,2.2868,0.6665,0.2701,1.1116,0.8415,A
501,0.49781,1.2,1,0.38166,0.38166,0.44803,501,2.07422,-0.262,-0.13275,0.36506,5,2U1D,1.0,False,0.111,67,True,left,-0.08297,0.2979,0.8397,0.5418,1.2478,1.8397,0.5919,A
502,0.49781,0.1,2,0.41485,0.21572,0.78821,502,2.6882,0.546,0.2738,0.77161,5,2D1U,1.0,False,0.226,59,False,left,0.16594,1.8275,2.5855,0.7581,0.3189,1.019,0.7002,A
503,0.49781,0.1,1,0.30699,0.23231,0.58908,503,1.97466,-0.298,-0.14934,0.34847,5,2U1D,1.0,False,0.297,67,False,left,-0.08297,0.294,0.6775,0.3835,1.2942,1.7439,0.4496,A
504,0.49781,1.2,2,0.2572,0.34017,0.68864,504,2.57203,0.582,0.29039,0.78821,5,2D1U,2.0,True,0.567,59,False,right,0.16594,1.7108,2.4106,0.6997,0.094,0.9357,0.8417,A
505,0.49781,1.2,1,0.24061,0.36506,0.47292,505,1.90828,-0.334,-0.16594,0.33188,5,2U1D,1.0,False,0.409,67,False,left,-0.08297,0.1559,0.6646,0.5087,1.0978,1.6894,0.5916,A
506,0.49781,0.1,1,0.32358,0.29039,0.42314,506,2.32313,0.582,0.29039,0.78821,5,2D1U,1.0,True,0.128,59,False,left,0.16594,0.3083,1.1325,0.8242,1.4575,2.1575,0.7,A
507,0.49781,0.1,1,0.32358,0.42314,0.42314,507,2.43928,0.546,0.2738,0.77161,5,2D1U,1.0,True,1.309,60,True,left,-0.08297,0.3098,1.1179,0.8081,1.5683,2.0179,0.4496,A
508,0.49781,1.2,1,0.19913,0.21572,0.68864,508,1.91658,-0.37,-0.18253,0.31528,5,2U1D,2.0,True,0.375,67,False,right,0.16594,0.1134,0.6051,0.4917,1.13,999,997.87,A
509,0.49781,1.2,1,0.36506,0.42314,0.46463,509,2.06592,-0.37,-0.18253,0.31528,5,2U1D,2.0,True,0.818,67,False,right,-0.08297,0.2851,0.7763,0.4912,1.2015,1.7936,0.5921,A
510,0.49781,0.1,2,0.24061,0.28209,0.68035,510,2.03274,-0.334,-0.16594,0.33188,5,2U1D,1.0,True,0.392,68,True,left,0.16594,1.5429,1.8597,0.3168,0.1423,0.8431,0.7008,A
511,0.49781,0.1,2,0.37336,0.38166,0.69694,511,2.72138,0.546,0.2738,0.77161,5,2D1U,2.0,True,0.249,60,True,right,-0.08297,1.5689,2.327,0.7581,0.4021,0.8523,0.4502,A
512,0.49781,1.2,2,0.42314,0.38995,0.75502,512,2.82094,0.51,0.2572,0.75502,5,2D1U,2.0,True,0.276,60,False,right,0.16594,1.9434,2.6101,0.6667,0.26,1.1014,0.8414,A
513,0.49781,1.2,1,0.38166,0.36506,0.65546,513,2.23187,-0.334,-0.16594,0.33188,5,2U1D,1.0,False,0.216,68,True,left,-0.08297,0.3029,0.8109,0.508,1.4282,2.0197,0.5915,A
514,0.49781,0.1,1,0.42314,0.29039,0.57249,514,2.53885,0.51,0.2572,0.75502,5,2D1U,1.0,True,0.113,60,False,left,0.16594,0.4108,1.2027,0.7919,1.6777,2.3771,0.6994,A
515,0.49781,0.1,2,0.29869,0.41485,0.88777,515,2.4144,-0.37,-0.18253,0.31528,5,2U1D,1.0,True,0.353,69,True,left,-0.08297,1.6835,1.9828,0.2993,0.3246,0.7746,0.45,A
516,0.49781,1.2,1,0.37336,0.29869,0.76332,516,2.6716,0.474,0.24061,0.73842,5,2D1U,1.0,True,0.385,60,False,left,0.16594,0.2908,1.2079,0.9171,1.8077,2.6494,0.8417,A
517,0.49781,1.2,2,0.29869,0.30699,0.64716,517,2.06593,-0.37,-0.18253,0.31528,5,2U1D,1.0,True,0.347,69,True,left,-0.08297,1.5863,1.8115,0.2252,0.2612,0.8531,0.5918,A
518,0.49781,0.1,1,0.37336,0.22402,0.50611,518,2.33972,0.474,0.24061,0.73842,5,2D1U,1.0,True,0.337,60,False,left,0.16594,0.3569,1.1323,0.7754,1.5403,2.2404,0.7001,A
519,0.49781,0.1,2,0.28209,0.35677,0.45633,519,1.92488,-0.334,-0.16594,0.33188,5,2U1D,1.0,True,0.132,70,True,left,-0.08297,1.2317,1.5483,0.3165,0.3066,0.7566,0.45,A
520,0.49781,1.2,1,0.2572,0.28209,0.43144,520,2.19037,0.438,0.21572,0.72183,5,2D1U,1.0,True,0.273,60,False,left,0.16594,0.1699,1.0697,0.8998,1.3368,2.1783,0.8415,A
521,0.49781,1.2,1,0.29869,0.33188,0.71353,521,2.56374,0.438,0.21572,0.72183,5,2D1U,1.0,True,0.217,60,False,left,-0.08297,0.2195,1.1194,0.9,1.7948,2.3862,0.5914,A
522,0.49781,0.1,2,0.22402,0.32358,0.58908,522,2.33143,0.402,0.19913,0.69694,5,2D1U,2.0,True,0.363,60,False,right,0.16594,1.43,2.1132,0.6832,0.1222,0.8219,0.6996,A
523,0.49781,0.1,2,0.21572,0.34847,0.67205,523,2.06593,-0.334,-0.16594,0.33188,5,2U1D,1.0,True,0.809,70,True,left,-0.08297,1.3865,1.7032,0.3168,0.2441,0.6948,0.4506,A
524,0.49781,1.2,2,0.29039,0.33188,0.58908,524,2.05763,-0.298,-0.14934,0.34847,5,2U1D,1.0,True,0.342,70,False,left,0.16594,1.645,1.9031,0.2581,0.1283,0.9699,0.8416,A
525,0.49781,1.2,2,0.20742,0.2738,0.78821,525,2.46418,0.402,0.19913,0.69694,5,2D1U,1.0,False,0.251,60,False,left,-0.08297,1.6356,2.2433,0.6078,0.1683,0.7604,0.5921,A
526,0.49781,0.1,2,0.24061,0.29869,0.50611,526,2.26505,0.438,0.21572,0.72183,5,2D1U,1.0,False,0.124,61,True,left,0.16594,1.3688,2.0774,0.7086,0.1441,0.8439,0.6998,A
527,0.49781,0.1,2,0.43974,0.22402,0.85458,527,2.75457,0.474,0.24061,0.73842,5,2D1U,2.0,True,0.35,61,False,right,-0.08297,1.7927,2.5175,0.7249,0.4678,0.9179,0.4502,A
528,0.49781,1.2,1,0.24061,0.39825,0.70524,528,2.19038,-0.298,-0.14934,0.34847,5,2U1D,2.0,True,0.501,70,False,right,0.16594,0.1586,0.6837,0.5252,1.2253,2.067,0.8417,A
529,0.49781,1.2,2,0.20742,0.43974,0.74672,529,2.63011,0.474,0.24061,0.73842,5,2D1U,1.0,False,0.817,61,False,left,-0.08297,1.5934,2.2435,0.6501,0.1681,0.7601,0.592,A
530,0.49781,0.1,2,0.29869,0.24061,0.69694,530,2.09911,-0.262,-0.13275,0.36506,5,2U1D,1.0,True,0.359,70,False,left,0.16594,1.6203,1.9705,0.3503,0.2036,0.9036,0.7,A
531,0.49781,0.1,2,0.31528,0.29039,0.48952,531,2.34802,0.51,0.2572,0.75502,5,2D1U,2.0,True,0.238,61,False,right,-0.08297,1.3003,2.0421,0.7418,0.3423,0.7922,0.4499,A
532,0.49781,1.2,1,0.23231,0.39825,0.41485,532,1.90828,-0.262,-0.13275,0.36506,5,2U1D,2.0,True,0.894,70,False,right,0.16594,0.1498,0.6917,0.5419,0.9423,1.7838,0.8415,A
533,0.49781,1.2,2,0.35677,0.21572,0.63057,533,2.45589,0.51,0.2572,0.75502,5,2D1U,1.0,False,0.643,61,False,left,-0.08297,1.624,2.2903,0.6663,0.3152,0.907,0.5918,A
534,0.49781,0.1,1,0.44803,0.35677,0.62227,534,2.31483,-0.226,-0.11616,0.38995,5,2U1D,2.0,True,0.383,70,False,right,0.16594,0.4356,0.8608,0.4251,1.3856,2.0856,0.7001,A
535,0.49781,0.1,1,0.39825,0.32358,0.65546,535,2.64671,0.546,0.2738,0.77161,5,2D1U,2.0,False,2.458,61,False,right,-0.08297,0.3817,1.1901,0.8084,1.8732,2.3235,0.4503,A
536,0.49781,1.2,1,0.2655,0.37336,0.55589,536,2.48077,0.582,0.29039,0.78821,5,2D1U,1.0,True,0.859,61,False,left,0.16594,0.1804,1.1464,0.9661,1.5385,2.3794,0.8409,A
537,0.49781,1.2,1,0.23231,0.33188,0.56419,537,2.01614,-0.226,-0.11616,0.38995,5,2U1D,1.0,False,0.242,70,False,left,-0.08297,0.1493,0.7155,0.5662,1.2407,1.8322,0.5915,A
538,0.49781,0.1,2,0.35677,0.29869,0.48122,538,1.99955,-0.262,-0.13275,0.36506,5,2U1D,1.0,True,0.245,71,True,left,0.16594,1.4538,1.8035,0.3498,0.2539,0.9539,0.7,A
539,0.49781,0.1,2,0.33188,0.38995,0.77161,539,2.35631,-0.262,-0.13275,0.36506,5,2U1D,1.0,True,0.194,71,True,left,-0.08297,1.5955,1.9455,0.35,0.3539,0.8041,0.4502,A
540,0.49781,1.2,2,0.20742,0.2738,0.50611,540,1.87509,-0.226,-0.11616,0.38995,5,2U1D,2.0,False,0.518,72,True,right,0.16594,1.4784,1.7781,0.2997,0.0451,0.8868,0.8416,A
541,0.49781,1.2,1,0.24891,0.35677,0.7965,541,2.6882,0.582,0.29039,0.78821,5,2D1U,2.0,False,0.276,61,False,right,-0.08297,0.1632,1.1299,0.9668,1.8884,2.4799,0.5915,A
542,0.49781,0.1,1,0.29869,0.44803,0.7965,542,2.85413,0.618,0.30699,0.8131,5,2D1U,1.0,True,0.166,61,False,left,0.16594,0.2821,1.1321,0.85,1.832,2.532,0.7,A
543,0.49781,0.1,2,0.29039,0.40655,0.61397,543,2.17378,-0.262,-0.13275,0.36506,5,2U1D,1.0,True,0.112,73,True,left,-0.08297,1.3978,1.7474,0.3497,0.3145,0.7646,0.4501,A
544,0.49781,1.2,2,0.43974,0.30699,0.46463,544,2.07423,-0.262,-0.13275,0.36506,5,2U1D,1.0,True,0.238,73,True,left,0.16594,1.6679,1.9424,0.2745,0.2765,1.118,0.8415,A
545,0.49781,1.2,2,0.34017,0.44803,0.60567,545,2.28163,-0.226,-0.11616,0.38995,5,2U1D,1.0,True,0.358,74,True,left,-0.08297,1.5824,1.8827,0.3004,0.2989,0.8904,0.5915,A
546,0.49781,0.1,2,0.30699,0.42314,0.60567,546,2.22356,-0.226,-0.11616,0.38995,5,2U1D,1.0,True,0.639,74,True,left,0.16594,1.5343,1.9093,0.375,0.2087,0.9091,0.7004,A
547,0.49781,0.1,1,0.39825,0.37336,0.5476,547,2.63012,0.618,0.30699,0.8131,5,2D1U,1.0,True,0.113,61,False,left,-0.08297,0.3791,1.2294,0.8503,1.8047,2.2536,0.449,A
548,0.49781,1.2,1,0.29869,0.30699,0.89607,548,2.40611,-0.19,-0.09127,0.40655,5,2U1D,1.0,False,0.441,74,False,left,0.16594,0.2119,0.7956,0.5836,1.5288,2.3698,0.8411,A
549,0.49781,1.2,1,0.24891,0.34847,0.45633,549,2.33973,0.582,0.29039,0.78821,5,2D1U,1.0,True,0.312,62,True,left,-0.08297,0.1644,1.131,0.9666,1.5477,2.1394,0.5917,A
550,0.49781,0.1,1,0.38995,0.21572,0.39825,550,2.28994,0.582,0.29039,0.78821,5,2D1U,1.0,True,1.725,62,True,left,0.16594,0.376,1.2009,0.8249,1.5009,2.2009,0.7,A
551,0.49781,0.1,2,0.43144,0.20742,0.47292,551,1.99954,-0.226,-0.11616,0.38995,5,2U1D,1.0,True,0.333,75,True,left,-0.08297,1.3959,1.7712,0.3753,0.4547,0.9045,0.4498,A
552,0.49781,1.2,2,0.2655,0.32358,0.75502,552,2.61352,0.546,0.2738,0.77161,5,2D1U,2.0,True,0.358,62,False,right,0.16594,1.7847,2.4683,0.6835,0.1016,0.9427,0.8411,A
553,0.49781,1.2,1,0.37336,0.30699,0.82969,553,2.77946,0.546,0.2738,0.77161,5,2D1U,2.0,False,0.762,62,False,right,-0.08297,0.2895,1.2398,0.9503,2.031,2.623,0.5919,A
554,0.49781,0.1,1,0.20742,0.43144,0.73013,554,2.25675,-0.226,-0.11616,0.38995,5,2U1D,1.0,False,0.112,75,True,left,0.16594,0.1882,0.6138,0.4256,1.2463,1.9463,0.6999,A
555,0.49781,0.1,2,0.29869,0.35677,0.65546,555,2.59694,0.582,0.29039,0.78821,5,2D1U,2.0,True,0.517,63,True,right,-0.08297,1.4473,2.2216,0.7744,0.3219,0.7717,0.4498,A
556,0.49781,1.2,2,0.38995,0.43974,0.82969,556,2.52225,-0.262,-0.13275,0.36506,5,2U1D,1.0,True,0.211,75,False,left,0.16594,1.981,2.2562,0.2752,0.2232,1.0646,0.8414,A
557,0.49781,1.2,2,0.20742,0.32358,0.63057,557,2.44759,0.582,0.29039,0.78821,5,2D1U,2.0,True,0.291,63,True,right,-0.08297,1.4787,2.1781,0.6994,0.1698,0.7611,0.5913,A
558,0.49781,0.1,1,0.28209,0.29039,0.85458,558,2.28993,-0.262,-0.13275,0.36506,5,2U1D,1.0,False,0.416,75,False,left,0.16594,0.2679,0.6679,0.4001,1.4262,2.1257,0.6995,A
559,0.49781,0.1,1,0.43974,0.32358,0.8131,559,2.84584,0.546,0.2738,0.77161,5,2D1U,1.0,True,0.85,64,True,left,-0.08297,0.4252,1.2336,0.8084,2.075,2.5251,0.4501,A
560,0.49781,1.2,1,0.35677,0.32358,0.40655,560,1.93318,-0.298,-0.14934,0.34847,5,2U1D,1.0,False,0.333,75,False,left,0.16594,0.2773,0.8031,0.5258,1.0444,1.886,0.8415,A
561,0.49781,1.2,1,0.2655,0.28209,0.72183,561,2.53884,0.546,0.2738,0.77161,5,2D1U,1.0,True,0.25,64,True,left,-0.08297,0.1866,1.1367,0.9501,1.8201,2.4116,0.5916,A
562,0.49781,0.1,1,0.44803,0.43974,0.71353,562,2.43099,-0.334,-0.16594,0.33188,5,2U1D,2.0,True,0.592,75,False,right,0.16594,0.4351,0.8014,0.3663,1.4179,2.1174,0.6995,A
563,0.49781,0.1,2,0.24891,0.35677,0.84628,563,2.28165,-0.334,-0.16594,0.33188,5,2U1D,1.0,True,0.334,75,False,left,-0.08297,1.59,1.9067,0.3168,0.2729,0.7233,0.4503,A
564,0.49781,1.2,2,0.23231,0.34847,0.43144,564,2.26505,0.51,0.2572,0.75502,5,2D1U,2.0,True,0.261,64,False,right,0.16594,1.4231,2.0898,0.6667,0.0642,0.9064,0.8422,A
565,0.49781,1.2,2,0.39825,0.2738,0.42314,565,2.34802,0.51,0.2572,0.75502,5,2D1U,2.0,True,0.203,64,False,right,-0.08297,1.4556,2.1218,0.6662,0.3557,0.9474,0.5917,A
566,0.49781,0.1,2,0.2655,0.38995,0.62227,566,2.51395,0.474,0.24061,0.73842,5,2D1U,2.0,True,0.112,64,False,right,0.16594,1.5084,2.2335,0.7252,0.1666,0.8662,0.6996,A
567,0.49781,0.1,2,0.43974,0.20742,0.85458,567,2.73797,0.474,0.24061,0.73842,5,2D1U,2.0,True,0.36,64,False,right,-0.08297,1.7897,2.5147,0.7249,0.4649,0.9144,0.4495,A
568,0.49781,1.2,1,0.30699,0.35677,0.8048,568,2.31484,-0.298,-0.14934,0.34847,5,2U1D,1.0,False,0.432,76,True,left,0.16594,0.2242,0.7495,0.5253,1.391,2.2332,0.8422,A
569,0.49781,1.2,1,0.24891,0.44803,0.51441,569,2.43099,0.438,0.21572,0.72183,5,2D1U,1.0,True,0.35,64,False,left,-0.08297,0.1639,1.0639,0.9,1.5389,2.1307,0.5918,A
570,0.49781,0.1,1,0.38995,0.2572,0.76332,570,2.24016,-0.334,-0.16594,0.33188,5,2U1D,2.0,True,0.175,77,True,right,0.16594,0.3752,0.7414,0.3662,1.4091,2.1087,0.6996,A
571,0.49781,0.1,2,0.43144,0.41485,0.49781,571,2.17379,-0.334,-0.16594,0.33188,5,2U1D,1.0,True,0.428,77,True,left,-0.08297,1.4233,1.7398,0.3165,0.4563,0.9064,0.4501,A
572,0.49781,1.2,2,0.44803,0.41485,0.65546,572,2.36462,-0.298,-0.14934,0.34847,5,2U1D,1.0,True,0.475,78,True,left,0.16594,1.8683,2.1265,0.2582,0.2852,1.1269,0.8417,A
573,0.49781,1.2,1,0.30699,0.21572,0.45633,573,2.19868,0.438,0.21572,0.72183,5,2D1U,1.0,True,0.47,64,False,left,-0.08297,0.226,1.1267,0.9007,1.5439,2.135,0.5911,A
574,0.49781,0.1,2,0.2738,0.38166,0.58078,574,2.43099,0.402,0.19913,0.69694,5,2D1U,2.0,True,0.296,64,False,right,0.16594,1.4745,2.158,0.6835,0.1744,0.8745,0.7001,A
575,0.49781,0.1,1,0.19913,0.33188,0.78821,575,2.1655,-0.298,-0.14934,0.34847,5,2U1D,2.0,True,0.278,78,True,right,-0.08297,0.1796,0.5637,0.3842,1.3805,1.8305,0.45,A
576,0.49781,1.2,2,0.35677,0.43974,0.64716,576,2.63842,0.402,0.19913,0.69694,5,2D1U,2.0,True,0.267,64,False,right,0.16594,1.7649,2.3733,0.6084,0.1891,1.0311,0.8419,A
577,0.49781,1.2,1,0.36506,0.2655,0.7965,577,2.28993,-0.262,-0.13275,0.36506,5,2U1D,2.0,True,0.45,78,False,right,-0.08297,0.2796,0.8223,0.5426,1.5798,2.1712,0.5914,A
578,0.49781,0.1,1,0.23231,0.29869,0.43974,578,1.83361,-0.262,-0.13275,0.36506,5,2U1D,2.0,True,0.159,78,False,right,0.16594,0.2201,0.6198,0.3997,0.9615,1.6613,0.6999,A
579,0.49781,0.1,2,0.33188,0.2572,0.43974,579,2.20698,0.366,0.18253,0.68035,5,2D1U,2.0,True,0.209,64,False,right,-0.08297,1.263,1.9299,0.6669,0.355,0.8045,0.4495,A
580,0.49781,1.2,2,0.2655,0.44803,0.86288,580,2.75457,0.366,0.18253,0.68035,5,2D1U,1.0,False,0.654,64,False,left,0.16594,1.8876,2.4791,0.5915,0.0958,0.937,0.8412,A
581,0.49781,1.2,2,0.29039,0.43144,0.84628,581,2.45587,-0.226,-0.11616,0.38995,5,2U1D,1.0,True,0.218,78,False,left,-0.08297,1.7782,2.0777,0.2996,0.2528,0.8445,0.5918,A
582,0.49781,0.1,2,0.34847,0.2572,0.40655,582,2.20697,0.402,0.19913,0.69694,5,2D1U,2.0,True,0.301,65,True,right,0.16594,1.3743,2.0572,0.6829,0.2482,0.9487,0.7005,A
583,0.49781,0.1,2,0.2655,0.31528,0.64716,583,2.42269,0.402,0.19913,0.69694,5,2D1U,2.0,True,0.171,65,True,right,-0.08297,1.4062,2.09,0.6838,0.2901,0.7404,0.4503,A
584,0.49781,1.2,1,0.38166,0.32358,0.83799,584,2.43099,-0.226,-0.11616,0.38995,5,2U1D,1.0,False,0.233,78,False,left,0.16594,0.2961,0.8631,0.567,1.538,2.3794,0.8414,A
585,0.49781,1.2,2,0.31528,0.29039,0.77991,585,2.56374,0.366,0.18253,0.68035,5,2D1U,1.0,False,0.112,66,True,left,-0.08297,1.7302,2.3219,0.5917,0.272,0.863,0.591,A
586,0.49781,0.1,2,0.42314,0.36506,0.49781,586,2.14888,-0.262,-0.13275,0.36506,5,2U1D,1.0,True,0.258,79,True,left,0.16594,1.5426,1.8934,0.3508,0.3262,1.0256,0.6994,A
587,0.49781,0.1,2,0.42314,0.40655,0.68864,587,2.3812,-0.262,-0.13275,0.36506,5,2U1D,1.0,True,0.207,79,True,left,-0.08297,1.6109,1.9608,0.3499,0.4534,0.9031,0.4497,A
588,0.49781,1.2,1,0.29869,0.41485,0.58078,588,2.18208,-0.226,-0.11616,0.38995,5,2U1D,1.0,False,0.551,80,True,left,0.16594,0.2174,0.7851,0.5677,1.2012,2.0429,0.8417,A
589,0.49781,1.2,1,0.2572,0.34847,0.68864,589,2.48906,0.402,0.19913,0.69694,5,2D1U,1.0,True,0.158,67,True,left,-0.08297,0.1713,1.0455,0.8741,1.6963,2.2879,0.5917,A
590,0.49781,0.1,1,0.2655,0.29869,0.78821,590,2.21527,-0.262,-0.13275,0.36506,5,2U1D,1.0,False,0.393,81,True,left,0.16594,0.2477,0.6478,0.4001,1.34,2.0396,0.6995,A
591,0.49781,0.1,1,0.36506,0.38995,0.75502,591,2.70478,0.402,0.19913,0.69694,5,2D1U,1.0,True,0.278,67,True,left,-0.08297,0.3471,1.0802,0.7331,1.8639,2.3139,0.45,A
592,0.49781,1.2,1,0.31528,0.2655,0.58908,592,2.34802,0.366,0.18253,0.68035,5,2D1U,1.0,True,0.283,68,True,left,0.16594,0.2304,1.0886,0.8583,1.5137,2.3664,0.8527,A
593,0.49781,1.2,1,0.29039,0.42314,0.84628,593,2.73797,0.366,0.18253,0.68035,5,2D1U,1.0,True,0.76,68,True,left,-0.08297,0.2111,1.0693,0.8583,1.8772,2.4689,0.5917,A
594,0.49781,0.1,2,0.20742,0.38995,0.86288,594,2.30653,-0.298,-0.14934,0.34847,5,2U1D,1.0,True,0.251,81,False,left,0.16594,1.689,2.0226,0.3336,0.1054,0.8052,0.6998,A
595,0.49781,0.1,2,0.37336,0.38166,0.48952,595,2.4061,0.33,0.16594,0.66375,5,2D1U,2.0,True,0.551,68,False,right,-0.08297,1.3577,2.0077,0.65,0.3996,0.8488,0.4492,A
596,0.49781,1.2,2,0.24891,0.23231,0.60567,596,1.93317,-0.298,-0.14934,0.34847,5,2U1D,1.0,True,0.317,81,False,left,0.16594,1.6196,1.8774,0.2577,0.0863,0.928,0.8416,A
597,0.49781,1.2,2,0.32358,0.40655,0.41485,597,2.00785,-0.262,-0.13275,0.36506,5,2U1D,1.0,True,0.15,82,True,left,-0.08297,1.3774,1.6529,0.2756,0.2862,0.8775,0.5913,A
598,0.49781,0.1,1,0.2655,0.31528,0.60567,598,2.34801,0.33,0.16594,0.66375,5,2D1U,1.0,True,0.112,68,False,left,0.16594,0.2526,0.9523,0.6997,1.4605,2.1606,0.7001,A
599,0.49781,0.1,1,0.22402,0.35677,0.85458,599,2.58034,0.294,0.14934,0.64716,5,2D1U,1.0,True,0.48,68,False,left,-0.08297,0.206,0.8893,0.6833,1.7721,2.2225,0.4503,A
600,0.49781,1.2,2,0.32358,0.32358,0.68035,600,2.19038,-0.262,-0.13275,0.36506,5,2U1D,1.0,True,0.292,82,True,left,0.16594,1.7635,2.0383,0.2749,0.1551,0.9967,0.8416,A
601,0.49781,1.2,2,0.41485,0.35677,0.40655,601,2.06593,-0.226,-0.11616,0.38995,5,2U1D,1.0,True,0.247,82,False,left,-0.08297,1.4554,1.7548,0.2995,0.372,0.9637,0.5918,A
602,0.49781,0.1,1,0.37336,0.22402,0.70524,602,2.44759,0.294,0.14934,0.64716,5,2D1U,1.0,True,0.115,68,False,left,0.16594,0.3574,1.0406,0.6832,1.6491,2.349,0.6999,A
603,0.49781,0.1,2,0.30699,0.21572,0.63886,603,2.04933,-0.226,-0.11616,0.38995,5,2U1D,1.0,True,0.435,82,False,left,-0.08297,1.4418,1.8168,0.3751,0.3335,0.7829,0.4493,A
