,standardDur,audNoise,order,preDur,postDur,isiDur,trial_num,totalDur,delta_dur_percents,deltaDurS,testDurS,intensities,current_stair,responses,is_correct,response_rts,stair_num_reversal,stair_is_reversal,response_keys,conflictDur,recordedOnsetVisualTest,recordedOffsetVisualTest,recordedDurVisualTest,recordedOnsetVisualStandard,recordedOffsetVisualStandard,recordedDurVisualStandard,modalityCue
0,0.5005,1.2,1,0.25859,0.20854,0.82582,0,2.61927,0.65,0.32532,0.82582,5,2D1U,1.0,True,0.76,0,False,left,0.25025,0.1783,1.1784,1.0001,1.7958,999,997.2042,A
1,0.5005,1.2,1,0.35869,0.30864,0.40874,1,1.75174,-0.65,-0.32532,0.17517,5,2U1D,1.0,False,1.356,0,False,left,0.0,0.2753,0.6256,0.3503,0.9508,1.6255,0.6747,A
2,0.5005,1.2,2,0.4421,0.34201,0.69235,2,2.10208,-0.75,-0.37537,0.12512,5,2U1D,1.0,True,0.272,0,False,left,-0.16683,1.7251,1.7576,0.0324,0.4421,0.9505,0.5085,A
3,0.5005,0.1,1,0.42542,0.24191,0.89255,3,2.8862,0.65,0.32532,0.82582,5,2D1U,1.0,True,0.408,0,False,left,0.25025,0.4042,1.2627,0.8585,2.0124,2.7952,0.7828,A
4,0.5005,1.2,2,0.31698,0.31698,0.62562,4,1.81013,-0.9,-0.45045,0.05005,5,lapse_rate,1.0,True,0.51,0,False,left,0.0,1.6139,1.572,-0.0419,0.2302,0.9056,0.6753,A
5,0.5005,0.1,2,0.41708,0.36703,0.75074,5,2.81112,0.55,0.27527,0.77577,5,2D1U,2.0,True,0.222,0,False,right,-0.16683,1.6166,2.3748,0.7582,0.4828,0.8495,0.3667,A
6,0.5005,1.2,1,0.42542,0.32532,0.50884,6,2.71102,0.9,0.45045,0.95094,5,lapse_rate,1.0,True,0.783,0,False,left,0.25025,0.3413,1.466,1.1247,1.7664,2.6909,0.9245,A
7,0.5005,0.1,1,0.25025,0.4421,0.86753,7,2.1855,-0.75,-0.37537,0.12512,5,2U1D,2.0,True,0.264,0,False,right,0.0,0.2328,0.3907,0.158,1.2415,1.7738,0.5323,A
8,0.5005,1.2,2,0.25859,0.4004,0.47547,8,2.5859,0.9,0.45045,0.95094,5,lapse_rate,2.0,True,0.227,0,False,right,-0.16683,1.3284,2.1867,0.8583,0.2612,0.7702,0.509,A
9,0.5005,1.2,2,0.37537,0.22522,0.85084,9,2.11042,-0.69,-0.34201,0.15849,5,2U1D,1.0,True,0.489,1,True,left,0.25025,2.0221,2.0884,0.0664,0.1637,1.0877,0.924,A
10,0.5005,1.2,2,0.22522,0.39205,0.85918,10,2.75272,0.55,0.27527,0.77577,5,2D1U,2.0,True,0.309,0,False,right,0.0,1.7625,2.4462,0.6837,0.1458,0.8209,0.6751,A
11,0.5005,1.2,1,0.28361,0.22522,0.86753,11,2.03535,-0.69,-0.34201,0.15849,5,2U1D,2.0,True,0.27,1,True,right,-0.16683,0.2035,0.5369,0.3334,1.4036,1.9115,0.5079,A
12,0.5005,0.1,2,0.38371,0.3003,0.63396,12,2.76941,0.9,0.45045,0.95094,5,lapse_rate,2.0,True,0.112,0,False,right,0.25025,1.6738,2.6077,0.9339,0.2406,1.0238,0.7832,A
13,0.5005,0.1,1,0.4004,0.36703,0.85084,13,2.84449,0.45,0.22522,0.72572,5,2D1U,2.0,False,0.278,0,False,right,0.0,0.3793,1.1383,0.759,1.9719,2.5054,0.5335,A
14,0.5005,1.2,2,0.41708,0.4421,0.70904,14,2.11877,-0.9,-0.45045,0.05005,5,lapse_rate,1.0,True,0.389,0,False,left,-0.16683,1.7155,1.6741,-0.0414,0.4158,0.924,0.5082,A
15,0.5005,0.1,2,0.22522,0.32532,0.45045,15,1.685,-0.63,-0.31698,0.18351,5,2U1D,1.0,True,0.489,1,False,left,0.25025,1.3299,1.4964,0.1665,0.08,0.8633,0.7833,A
16,0.5005,0.1,2,0.33366,0.26693,0.85084,16,2.71101,0.51,0.25859,0.75908,5,2D1U,2.0,True,0.225,1,True,right,0.0,1.7162,2.4572,0.741,0.3166,0.8495,0.5329,A
17,0.5005,1.2,2,0.4004,0.4421,0.5422,17,1.93525,-0.9,-0.45045,0.05005,5,lapse_rate,1.0,True,0.4,0,False,left,-0.16683,1.5333,1.4919,-0.0414,0.4002,0.9078,0.5076,A
18,0.5005,1.2,2,0.36703,0.42542,0.75074,18,2.80277,0.51,0.25859,0.75908,5,2D1U,2.0,True,0.341,1,True,right,0.25025,1.9205,2.589,0.6685,0.1618,1.0875,0.9258,A
19,0.5005,1.2,2,0.40874,0.43376,0.82582,19,2.35233,-0.63,-0.31698,0.18351,5,2U1D,1.0,True,0.35,1,False,left,0.0,1.9109,2.0024,0.0915,0.3275,1.0028,0.6753,A
20,0.5005,1.2,2,0.22522,0.28361,0.7424,20,1.96861,-0.57,-0.28361,0.21688,5,2U1D,1.0,True,0.277,1,False,left,-0.16683,1.558,1.683,0.1249,0.2248,0.733,0.5083,A
21,0.5005,1.2,2,0.22522,0.31698,0.65064,21,1.74339,-0.9,-0.45045,0.05005,5,lapse_rate,1.0,True,0.351,0,False,left,0.25025,1.6767,1.6352,-0.0414,0.0189,0.9436,0.9247,A
22,0.5005,0.1,2,0.33366,0.27527,0.71738,22,2.56087,0.474,0.23356,0.73406,5,2D1U,2.0,True,0.275,2,True,right,0.0,1.5858,2.3021,0.7163,0.3186,0.8518,0.5331,A
23,0.5005,0.1,2,0.22522,0.3003,0.81748,23,1.89355,-0.9,-0.45045,0.05005,5,lapse_rate,1.0,True,0.32,0,False,left,-0.16683,1.4909,1.5243,0.0334,0.2911,0.6579,0.3668,A
24,0.5005,0.1,2,0.42542,0.21688,0.75074,24,2.6276,0.474,0.23356,0.73406,5,2D1U,2.0,True,0.299,2,True,right,0.25025,1.8339,2.5509,0.717,0.2846,1.0679,0.7833,A
25,0.5005,0.1,2,0.34201,0.22522,0.67567,25,1.96028,-0.57,-0.28361,0.21688,5,2U1D,1.0,True,0.317,1,False,left,0.0,1.5494,1.7488,0.1994,0.3239,0.8572,0.5333,A
26,0.5005,1.2,1,0.30864,0.2002,0.77577,26,2.02702,-0.51,-0.25859,0.24191,5,2U1D,2.0,True,0.263,1,False,right,-0.16683,0.2275,0.6443,0.4168,1.4199,1.9279,0.508,A
27,0.5005,0.1,1,0.29196,0.23356,0.53386,27,2.51082,0.9,0.45045,0.95094,5,lapse_rate,1.0,True,0.334,0,False,left,0.25025,0.2722,1.2544,0.9822,1.6459,2.429,0.7831,A
28,0.5005,1.2,1,0.3003,0.37537,0.58391,28,2.47746,0.438,0.21688,0.71738,5,2D1U,1.0,True,0.276,2,False,left,0.0,0.2145,1.1062,0.8917,1.6058,2.2809,0.6751,A
29,0.5005,1.2,1,0.27527,0.38371,0.40874,29,1.81013,-0.51,-0.25859,0.24191,5,2U1D,1.0,False,0.282,1,False,left,-0.16683,0.1871,0.6041,0.417,1.0123,1.5208,0.5084,A
30,0.5005,0.1,1,0.29196,0.33366,0.79245,30,2.63595,0.438,0.21688,0.71738,5,2D1U,1.0,True,0.332,2,False,left,0.25025,0.2767,1.0269,0.7502,1.6767,2.46,0.7833,A
31,0.5005,0.1,2,0.30864,0.28361,0.86753,31,2.01033,-0.9,-0.45045,0.05005,5,lapse_rate,1.0,True,0.342,0,False,left,0.0,1.7108,1.7445,0.0337,0.2937,0.8273,0.5336,A
32,0.5005,0.1,1,0.27527,0.22522,0.67567,32,2.6276,0.9,0.45045,0.95094,5,lapse_rate,1.0,True,0.294,0,False,left,-0.16683,0.2559,1.2383,0.9824,1.9801,2.3466,0.3665,A
33,0.5005,0.1,2,0.45045,0.39205,0.87587,33,2.44409,-0.546,-0.27527,0.22522,5,2U1D,1.0,True,0.22,2,True,left,0.25025,1.9807,2.1894,0.2087,0.3052,1.0887,0.7835,A
34,0.5005,0.1,1,0.45045,0.21688,0.89255,34,2.76107,0.402,0.2002,0.70069,5,2D1U,1.0,True,0.333,2,False,left,0.0,0.4365,1.1704,0.7339,2.0455,2.5787,0.5332,A
35,0.5005,1.2,2,0.23356,0.20854,0.55889,35,2.20218,0.402,0.2002,0.70069,5,2D1U,1.0,False,0.257,2,False,left,-0.16683,1.3776,1.9869,0.6093,0.2288,0.737,0.5082,A
36,0.5005,1.2,1,0.27527,0.31698,0.42542,36,1.74339,-0.546,-0.27527,0.22522,5,2U1D,1.0,False,0.424,2,True,left,0.25025,0.189,0.5901,0.4011,0.8062,1.7319,0.9257,A
37,0.5005,0.1,2,0.26693,0.23356,0.67567,37,1.72671,-0.9,-0.45045,0.05005,5,lapse_rate,1.0,True,0.347,0,False,left,0.0,1.4771,1.5104,0.0333,0.253,0.7864,0.5334,A
38,0.5005,1.2,2,0.35035,0.25025,0.70069,38,2.01033,-0.582,-0.29196,0.20854,5,2U1D,1.0,True,0.275,2,False,left,-0.16683,1.6385,1.7551,0.1166,0.3458,0.8551,0.5092,A
39,0.5005,0.1,2,0.24191,0.33366,0.69235,39,2.4858,0.438,0.21688,0.71738,5,2D1U,2.0,True,0.404,3,True,right,0.25025,1.5951,2.296,0.7009,0.1035,0.8871,0.7836,A
40,0.5005,0.1,2,0.33366,0.40874,0.45045,40,1.7434,-0.9,-0.45045,0.05005,5,lapse_rate,1.0,True,0.306,0,False,left,0.0,1.3204,1.3536,0.0332,0.3205,0.8532,0.5327,A
41,0.5005,1.2,2,0.28361,0.25025,0.72572,41,2.71102,0.9,0.45045,0.95094,5,lapse_rate,2.0,True,0.239,0,False,right,-0.16683,1.5973,2.4562,0.8589,0.2815,0.7887,0.5073,A
42,0.5005,0.1,1,0.34201,0.25859,0.50884,42,2.32732,0.438,0.21688,0.71738,5,2D1U,1.0,True,0.314,3,True,left,0.25025,0.3242,1.0739,0.7497,1.4405,2.2241,0.7836,A
43,0.5005,0.1,2,0.25025,0.25025,0.41708,43,1.62662,-0.582,-0.29196,0.20854,5,2U1D,1.0,True,0.367,2,False,left,0.0,1.1969,1.3897,0.1928,0.2308,0.7638,0.533,A
44,0.5005,1.2,2,0.40874,0.33366,0.89255,44,3.08639,0.9,0.45045,0.95094,5,lapse_rate,2.0,True,0.297,0,False,right,-0.16683,1.8942,2.7528,0.8586,0.4102,0.9188,0.5086,A
45,0.5005,1.2,1,0.39205,0.25025,0.85918,45,2.70267,0.402,0.2002,0.70069,5,2D1U,1.0,True,0.549,4,True,left,0.25025,0.3114,1.1863,0.875,1.8363,999,997.1637,A
46,0.5005,1.2,2,0.26693,0.37537,0.67567,46,2.04369,-0.546,-0.27527,0.22522,5,2U1D,1.0,True,0.289,3,True,left,0.0,1.6144,1.748,0.1336,0.1815,0.8565,0.6751,A
47,0.5005,1.2,1,0.24191,0.40874,0.55889,47,2.41073,0.402,0.2002,0.70069,5,2D1U,1.0,True,0.321,4,True,left,-0.16683,0.154,1.0295,0.8754,1.5876,2.0965,0.5089,A
48,0.5005,1.2,2,0.22522,0.22522,0.65064,48,1.65163,-0.9,-0.45045,0.05005,5,lapse_rate,1.0,True,0.456,0,False,left,0.25025,999,1.6339,-997.3661,0.0178,0.9426,0.9247,A
49,0.5005,0.1,1,0.38371,0.40874,0.80913,49,2.3273,-0.546,-0.27527,0.22522,5,2U1D,2.0,True,0.242,3,True,right,0.0,0.3679,0.6265,0.2586,1.418,1.9502,0.5323,A
50,0.5005,0.1,1,0.4004,0.31698,0.60894,50,1.87687,-0.9,-0.45045,0.05005,5,lapse_rate,2.0,True,0.226,0,False,right,-0.16683,0.3824,0.4655,0.0832,1.1405,1.5072,0.3667,A
51,0.5005,0.1,1,0.40874,0.3003,0.53386,51,2.42741,0.366,0.18351,0.68401,5,2D1U,2.0,False,0.67,4,False,right,0.25025,0.3903,1.1068,0.7165,1.4989,2.2818,0.7829,A
52,0.5005,0.1,2,0.4421,0.37537,0.69235,52,2.25223,-0.51,-0.25859,0.24191,5,2U1D,1.0,True,0.298,3,False,left,0.0,1.6699,1.8938,0.2238,0.4269,0.9604,0.5335,A
53,0.5005,1.2,2,0.39205,0.31698,0.60059,53,2.05203,-0.51,-0.25859,0.24191,5,2U1D,1.0,True,0.375,3,False,left,-0.16683,1.5833,1.7337,0.1504,0.3921,0.9013,0.5092,A
54,0.5005,1.2,1,0.4004,0.27527,0.77577,54,2.00199,-0.9,-0.45045,0.05005,5,lapse_rate,2.0,True,0.389,0,False,right,0.25025,0.3134,0.5388,0.2253,1.1041,999,997.8959,A
55,0.5005,1.2,2,0.31698,0.31698,0.80913,55,2.64428,0.402,0.2002,0.70069,5,2D1U,1.0,False,0.501,5,True,left,0.0,1.8007,2.4104,0.6097,0.2347,0.9094,0.6748,A
56,0.5005,1.2,2,0.28361,0.21688,0.76743,56,2.03535,-0.474,-0.23356,0.26693,5,2U1D,1.0,True,0.327,3,False,left,-0.16683,1.6404,1.8154,0.175,0.282,0.7907,0.5087,A
57,0.5005,0.1,1,0.24191,0.38371,0.57557,57,2.41907,0.438,0.21688,0.71738,5,2D1U,1.0,True,0.219,5,False,left,0.25025,0.2218,0.972,0.7502,1.4057,2.1878,0.7822,A
58,0.5005,1.2,2,0.23356,0.37537,0.70069,58,1.86017,-0.9,-0.45045,0.05005,5,lapse_rate,1.0,True,0.417,0,False,left,0.0,1.6114,1.5704,-0.041,0.1537,0.8286,0.6748,A
59,0.5005,1.2,1,0.23356,0.4421,0.71738,59,1.94359,-0.9,-0.45045,0.05005,5,lapse_rate,2.0,True,0.247,0,False,right,-0.16683,0.152,0.3778,0.2258,1.094,1.6026,0.5087,A
60,0.5005,0.1,2,0.27527,0.30864,0.60894,60,1.96028,-0.474,-0.23356,0.26693,5,2U1D,1.0,True,0.323,3,False,left,0.25025,1.5405,1.7904,0.2499,0.1322,0.9158,0.7836,A
61,0.5005,0.1,1,0.35035,0.35869,0.67567,61,2.60259,0.438,0.21688,0.71738,5,2D1U,1.0,True,0.291,5,False,left,0.0,0.3354,1.0865,0.751,1.7442,2.2772,0.533,A
62,0.5005,1.2,1,0.36703,0.30864,0.75908,62,2.21886,-0.438,-0.21688,0.28361,5,2U1D,2.0,True,0.34,3,False,right,-0.16683,0.2788,0.7371,0.4584,1.4952,2.0041,0.5089,A
63,0.5005,0.1,2,0.22522,0.4004,0.61728,63,1.79345,-0.9,-0.45045,0.05005,5,lapse_rate,1.0,True,0.293,0,False,left,0.25025,1.5033,1.5363,0.033,0.086,0.8699,0.7839,A
64,0.5005,1.2,1,0.33366,0.23356,0.50884,64,2.27725,0.402,0.2002,0.70069,5,2D1U,1.0,True,0.426,6,True,left,0.0,0.2522,1.1279,0.8757,1.5532,2.228,0.6748,A
65,0.5005,0.1,1,0.39205,0.22522,0.41708,65,2.48579,0.9,0.45045,0.95094,5,lapse_rate,1.0,True,0.289,0,False,left,-0.16683,0.3746,1.3568,0.9822,1.8406,2.2066,0.3661,A
66,0.5005,1.2,2,0.35035,0.43376,0.41708,66,1.9853,-0.438,-0.21688,0.28361,5,2U1D,1.0,True,0.267,3,False,left,0.25025,1.5687,1.7605,0.1918,0.1444,1.0692,0.9248,A
67,0.5005,0.1,2,0.24191,0.23356,0.79245,67,2.46911,0.402,0.2002,0.70069,5,2D1U,1.0,False,0.413,6,True,left,0.0,1.5651,2.2481,0.683,0.2231,0.7558,0.5327,A
68,0.5005,0.1,1,0.35035,0.29196,0.50884,68,2.36903,0.438,0.21688,0.71738,5,2D1U,1.0,True,0.245,7,True,left,-0.16683,0.331,1.0807,0.7497,1.6555,2.0218,0.3663,A
69,0.5005,0.1,1,0.30864,0.20854,0.71738,69,2.03536,-0.402,-0.2002,0.3003,5,2U1D,2.0,True,0.273,3,False,right,0.25025,0.2879,0.6217,0.3338,1.1965,1.9808,0.7843,A
70,0.5005,1.2,2,0.24191,0.34201,0.58391,70,1.71838,-0.9,-0.45045,0.05005,5,lapse_rate,1.0,True,0.418,0,False,left,0.0,1.5008,1.4592,-0.0417,0.1589,0.8342,0.6753,A
71,0.5005,1.2,1,0.26693,0.24191,0.51718,71,2.2439,0.438,0.21688,0.71738,5,2D1U,1.0,True,0.301,7,True,left,-0.16683,0.1857,1.076,0.8903,1.5934,2.1016,0.5081,A
72,0.5005,1.2,2,0.32532,0.4004,0.61728,72,2.1438,-0.402,-0.2002,0.3003,5,2U1D,1.0,True,0.297,3,False,left,0.25025,1.7386,1.9469,0.2083,0.1132,1.0375,0.9242,A
73,0.5005,0.1,1,0.27527,0.34201,0.45879,73,1.62662,-0.9,-0.45045,0.05005,5,lapse_rate,2.0,True,0.111,0,False,right,0.0,0.2604,0.3444,0.084,0.7856,1.3192,0.5336,A
74,0.5005,1.2,1,0.34201,0.29196,0.69235,74,2.1438,-0.366,-0.18351,0.31698,5,2U1D,1.0,False,0.269,3,False,left,-0.16683,0.2572,0.7489,0.4917,1.4405,1.949,0.5085,A
75,0.5005,0.1,1,0.27527,0.20854,0.68401,75,2.36901,0.402,0.2002,0.70069,5,2D1U,1.0,True,0.412,8,True,left,0.25025,0.2533,0.9876,0.7343,1.5283,2.3117,0.7834,A
76,0.5005,1.2,2,0.38371,0.29196,0.42542,76,1.65164,-0.9,-0.45045,0.05005,5,lapse_rate,1.0,True,0.447,0,False,left,0.0,1.4831,1.4407,-0.0423,0.2995,0.9742,0.6747,A
77,0.5005,0.1,2,0.25025,0.35869,0.70069,77,2.11043,-0.402,-0.2002,0.3003,5,2U1D,1.0,True,0.25,4,True,left,-0.16683,1.401,1.6812,0.2803,0.3146,0.6813,0.3667,A
78,0.5005,0.1,1,0.22522,0.26693,0.87587,78,2.56921,0.402,0.2002,0.70069,5,2D1U,1.0,True,0.344,8,True,left,0.25025,0.2094,0.9424,0.733,1.6769,2.46,0.7831,A
79,0.5005,1.2,1,0.35035,0.27527,0.49215,79,2.56921,0.9,0.45045,0.95094,5,lapse_rate,1.0,True,0.346,0,False,left,0.0,0.2691,1.3921,1.123,1.8006,2.475,0.6744,A
80,0.5005,1.2,1,0.36703,0.37537,0.40874,80,2.60258,0.9,0.45045,0.95094,5,lapse_rate,1.0,True,0.239,0,False,left,-0.16683,0.2834,1.4089,1.1255,1.8162,2.3239,0.5078,A
81,0.5005,1.2,2,0.20854,0.37537,0.60894,81,1.99365,-0.402,-0.2002,0.3003,5,2U1D,1.0,True,0.326,4,True,left,0.25025,1.6182,1.8267,0.2085,0.0028,0.9267,0.9239,A
82,0.5005,1.2,2,0.34201,0.43376,0.53386,82,2.49414,0.366,0.18351,0.68401,5,2D1U,1.0,False,0.228,8,False,left,0.0,1.5467,2.1374,0.5907,0.2542,0.9282,0.674,A
83,0.5005,1.2,2,0.3003,0.4004,0.75908,83,2.66097,0.402,0.2002,0.70069,5,2D1U,1.0,False,0.226,9,True,left,-0.16683,1.6532,2.2605,0.6073,0.3031,0.8119,0.5088,A
84,0.5005,0.1,1,0.30864,0.36703,0.49215,84,1.9853,-0.366,-0.18351,0.31698,5,2U1D,1.0,False,0.326,5,True,left,0.25025,0.2896,0.6387,0.3491,0.9882,1.7717,0.7836,A
85,0.5005,0.1,2,0.38371,0.31698,0.70069,85,2.85282,0.9,0.45045,0.95094,5,lapse_rate,2.0,True,0.236,0,False,right,0.0,1.6139,2.547,0.9331,0.3636,0.8969,0.5332,A
86,0.5005,0.1,2,0.3003,0.41708,0.53386,86,2.46912,0.438,0.21688,0.71738,5,2D1U,1.0,False,0.348,9,False,left,-0.16683,1.2803,1.9801,0.6998,0.3642,0.7305,0.3663,A
87,0.5005,0.1,2,0.41708,0.3003,0.46713,87,1.98531,-0.402,-0.2002,0.3003,5,2U1D,1.0,True,0.283,6,True,left,0.25025,1.5415,1.8236,0.2821,0.2731,1.0569,0.7838,A
88,0.5005,0.1,1,0.40874,0.43376,0.80913,88,2.20218,-0.9,-0.45045,0.05005,5,lapse_rate,2.0,True,0.207,0,False,right,0.0,0.3912,0.4739,0.0828,1.2657,1.7987,0.533,A
89,0.5005,1.2,1,0.31698,0.20854,0.5005,89,1.82682,-0.402,-0.2002,0.3003,5,2U1D,2.0,True,0.325,6,True,right,-0.16683,0.2327,0.7081,0.4754,1.208,1.7161,0.5082,A
90,0.5005,1.2,1,0.32532,0.21688,0.51718,90,2.29394,0.474,0.23356,0.73406,5,2D1U,1.0,True,0.418,9,False,left,0.25025,0.2415,1.1497,0.9082,1.4573,999,997.5427,A
91,0.5005,1.2,2,0.26693,0.41708,0.82582,91,2.96127,0.9,0.45045,0.95094,5,lapse_rate,2.0,True,0.268,0,False,right,0.0,1.7679,2.6261,0.8582,0.1838,0.8593,0.6755,A
92,0.5005,1.2,2,0.25025,0.42542,0.45879,92,2.36902,0.474,0.23356,0.73406,5,2D1U,2.0,True,0.261,9,False,right,-0.16683,1.301,1.9423,0.6412,0.251,0.7599,0.5088,A
93,0.5005,1.2,1,0.20854,0.29196,0.4421,93,2.39404,0.9,0.45045,0.95094,5,lapse_rate,1.0,True,0.582,0,False,left,0.25025,0.1282,1.2527,1.1244,1.4863,999,997.5137,A
94,0.5005,0.1,1,0.28361,0.33366,0.60059,94,2.03534,-0.366,-0.18351,0.31698,5,2U1D,2.0,True,0.28,7,True,right,0.0,0.264,0.6134,0.3494,1.198,1.7311,0.5331,A
95,0.5005,0.1,1,0.26693,0.24191,0.55889,95,2.28561,0.438,0.21688,0.71738,5,2D1U,2.0,False,0.246,10,True,right,-0.16683,0.2491,0.9995,0.7504,1.6241,1.9909,0.3669,A
96,0.5005,0.1,1,0.24191,0.41708,0.40874,96,1.61828,-0.9,-0.45045,0.05005,5,lapse_rate,2.0,True,0.454,0,False,right,0.25025,0.224,0.3075,0.0835,0.574,1.3574,0.7834,A
97,0.5005,0.1,1,0.22522,0.29196,0.66733,97,2.00199,-0.366,-0.18351,0.31698,5,2U1D,2.0,True,0.263,7,True,right,0.0,0.207,0.5571,0.3501,1.2068,1.7397,0.5328,A
98,0.5005,1.2,1,0.27527,0.25859,0.73406,98,2.10208,-0.33,-0.16683,0.33366,5,2U1D,2.0,True,0.328,7,False,right,-0.16683,0.1903,0.6981,0.5079,1.4321,1.9401,0.508,A
99,0.5005,0.1,2,0.35035,0.42542,0.65899,99,1.98531,-0.9,-0.45045,0.05005,5,lapse_rate,1.0,True,0.27,0,False,left,0.25025,1.6629,1.6969,0.034,0.2039,0.9881,0.7843,A
100,0.5005,1.2,2,0.20854,0.34201,0.85918,100,2.64429,0.474,0.23356,0.73406,5,2D1U,1.0,False,0.528,11,True,left,0.0,1.7428,2.3846,0.6418,0.1256,0.8019,0.6763,A
101,0.5005,1.2,2,0.35035,0.21688,0.7424,101,2.14379,-0.33,-0.16683,0.33366,5,2U1D,1.0,True,0.426,7,False,left,-0.16683,1.686,1.9282,0.2422,0.3524,0.8605,0.5081,A
102,0.5005,1.2,1,0.25859,0.28361,0.59225,102,2.58589,0.9,0.45045,0.95094,5,lapse_rate,1.0,True,0.341,0,False,left,0.25025,0.1768,1.3022,1.1254,1.6854,999,997.3146,A
103,0.5005,0.1,2,0.25859,0.32532,0.4421,103,2.28559,0.51,0.25859,0.75908,5,2D1U,2.0,True,0.273,11,False,right,0.0,1.232,1.9734,0.7414,0.2405,0.7733,0.5327,A
104,0.5005,0.1,2,0.25859,0.25859,0.40874,104,2.1855,0.51,0.25859,0.75908,5,2D1U,1.0,False,0.309,11,False,left,-0.16683,1.1168,1.8592,0.7424,0.3251,0.6922,0.3671,A
105,0.5005,0.1,2,0.34201,0.30864,0.83416,105,2.33566,-0.294,-0.15015,0.35035,5,2U1D,1.0,True,0.336,7,False,left,0.25025,1.8314,2.165,0.3336,0.198,0.9815,0.7835,A
106,0.5005,1.2,1,0.40874,0.39205,0.66733,106,2.01867,-0.9,-0.45045,0.05005,5,lapse_rate,2.0,True,0.203,0,False,right,0.0,0.3275,0.5532,0.2257,1.1361,1.8113,0.6752,A
107,0.5005,1.2,1,0.4421,0.21688,0.69235,107,2.6276,0.546,0.27527,0.77577,5,2D1U,1.0,True,0.375,11,False,left,-0.16683,0.3568,1.3062,0.9493,1.9983,2.5055,0.5072,A
108,0.5005,0.1,1,0.31698,0.45045,0.87587,108,3.09474,0.9,0.45045,0.95094,5,lapse_rate,1.0,True,0.209,0,False,left,0.25025,0.2947,1.278,0.9833,2.0111,2.7943,0.7832,A
109,0.5005,1.2,2,0.2002,0.32532,0.6423,109,2.01867,-0.294,-0.15015,0.35035,5,2U1D,1.0,True,0.462,7,False,left,0.0,1.5138,1.773,0.2592,0.1144,0.7894,0.675,A
110,0.5005,0.1,1,0.34201,0.28361,0.70904,110,1.88521,-0.9,-0.45045,0.05005,5,lapse_rate,2.0,True,0.312,0,False,right,-0.16683,0.328,0.4115,0.0835,1.1862,1.5523,0.3661,A
111,0.5005,1.2,2,0.25025,0.3003,0.45879,111,1.87687,-0.258,-0.12512,0.36703,5,2U1D,1.0,True,0.805,7,False,left,0.25025,1.5041,1.7791,0.275,0.0378,0.9627,0.9249,A
112,0.5005,0.1,1,0.43376,0.28361,0.7424,112,2.73604,0.546,0.27527,0.77577,5,2D1U,1.0,True,0.426,11,False,left,0.0,0.4185,1.2275,0.809,1.9515,2.4853,0.5337,A
113,0.5005,0.1,2,0.4004,0.33366,0.63396,113,2.6276,0.51,0.25859,0.75908,5,2D1U,1.0,False,0.392,12,True,left,-0.16683,1.4859,2.2278,0.7419,0.4693,0.8359,0.3666,A
114,0.5005,0.1,1,0.41708,0.30864,0.52552,114,2.11877,-0.258,-0.12512,0.36703,5,2U1D,1.0,False,0.333,7,False,left,0.25025,0.3962,0.7962,0.4,1.1794,1.9627,0.7834,A
115,0.5005,0.1,2,0.34201,0.35869,0.65064,115,1.90189,-0.9,-0.45045,0.05005,5,lapse_rate,1.0,True,0.408,0,False,left,0.0,1.5281,1.5624,0.0343,0.3297,0.8623,0.5326,A
116,0.5005,1.2,1,0.43376,0.33366,0.52552,116,2.74438,0.9,0.45045,0.95094,5,lapse_rate,1.0,True,0.292,0,False,left,-0.16683,0.3457,1.4705,1.1247,1.995,2.5038,0.5088,A
117,0.5005,1.2,2,0.41708,0.35035,0.73406,117,2.77776,0.546,0.27527,0.77577,5,2D1U,1.0,False,0.404,13,True,left,0.25025,1.9474,2.6316,0.6842,0.2068,1.1321,0.9253,A
118,0.5005,1.2,2,0.26693,0.36703,0.70904,118,2.19385,-0.294,-0.15015,0.35035,5,2U1D,1.0,True,0.457,8,True,left,0.0,1.6478,1.9068,0.259,0.181,0.8563,0.6753,A
119,0.5005,0.1,2,0.35869,0.39205,0.65064,119,2.85282,0.9,0.45045,0.95094,5,lapse_rate,2.0,True,0.274,0,False,right,-0.16683,1.454,2.3865,0.9326,0.4205,0.7874,0.3669,A
120,0.5005,1.2,1,0.41708,0.4421,0.5422,120,2.69433,0.582,0.29196,0.79245,5,2D1U,1.0,True,0.299,13,False,left,0.25025,0.3312,1.2983,0.9671,1.6318,2.5574,0.9256,A
121,0.5005,0.1,1,0.32532,0.3003,0.49215,121,1.96862,-0.294,-0.15015,0.35035,5,2U1D,1.0,False,0.26,8,True,left,0.0,0.3105,0.694,0.3835,1.1681,1.7025,0.5344,A
122,0.5005,0.1,2,0.40874,0.20854,0.67567,122,2.12711,-0.33,-0.16683,0.33366,5,2U1D,1.0,True,0.381,8,False,left,-0.16683,1.5297,1.8458,0.316,0.4713,0.8381,0.3668,A
123,0.5005,1.2,1,0.41708,0.20854,0.4421,123,2.51916,0.9,0.45045,0.95094,5,lapse_rate,1.0,True,0.599,0,False,left,0.25025,0.3341,1.4592,1.125,1.6928,999,997.3072,A
124,0.5005,0.1,2,0.35035,0.37537,0.48381,124,2.50248,0.582,0.29196,0.79245,5,2D1U,1.0,False,0.4,13,False,left,0.0,1.366,2.1412,0.7752,0.3321,0.866,0.5339,A
125,0.5005,1.2,1,0.25025,0.21688,0.48381,125,2.40238,0.9,0.45045,0.95094,5,lapse_rate,1.0,True,0.343,0,False,left,-0.16683,0.1677,1.2928,1.125,1.7757,2.284,0.5083,A
126,0.5005,1.2,1,0.33366,0.34201,0.80913,126,2.79443,0.618,0.30864,0.80913,5,2D1U,1.0,True,0.254,13,False,left,0.25025,0.245,1.2283,0.9833,1.8276,2.7537,0.9261,A
127,0.5005,1.2,2,0.20854,0.22522,0.76743,127,2.03535,-0.33,-0.16683,0.33366,5,2U1D,1.0,True,0.322,8,False,left,0.0,1.6496,1.8907,0.2411,0.1244,0.7992,0.6748,A
128,0.5005,1.2,1,0.25025,0.41708,0.55889,128,2.53585,0.618,0.30864,0.80913,5,2D1U,1.0,True,0.237,13,False,left,-0.16683,0.1678,1.151,0.9833,1.7093,2.2175,0.5082,A
129,0.5005,0.1,1,0.3003,0.41708,0.51718,129,2.08541,-0.294,-0.15015,0.35035,5,2U1D,2.0,True,0.112,9,True,right,0.25025,0.2816,0.6658,0.3842,1.0397,1.824,0.7843,A
130,0.5005,1.2,1,0.38371,0.4421,0.63396,130,2.01032,-0.9,-0.45045,0.05005,5,lapse_rate,2.0,True,0.3,0,False,right,0.0,0.3013,0.5257,0.2245,1.076,1.7516,0.6757,A
131,0.5005,0.1,1,0.32532,0.29196,0.60059,131,2.51082,0.582,0.29196,0.79245,5,2D1U,1.0,True,0.523,14,True,left,-0.16683,0.3056,1.1314,0.8259,1.7975,2.1641,0.3666,A
132,0.5005,0.1,1,0.31698,0.25025,0.55054,132,1.96862,-0.294,-0.15015,0.35035,5,2U1D,1.0,False,0.302,9,True,left,0.25025,0.298,0.6806,0.3827,1.0896,1.8724,0.7827,A
133,0.5005,0.1,2,0.40874,0.31698,0.87587,133,3.05303,0.9,0.45045,0.95094,5,lapse_rate,2.0,True,0.288,0,False,right,0.0,1.8156,2.7487,0.9331,0.3907,0.924,0.5333,A
134,0.5005,0.1,1,0.4421,0.22522,0.40874,134,1.62661,-0.9,-0.45045,0.05005,5,lapse_rate,2.0,True,0.4,0,False,right,-0.16683,0.4225,0.5058,0.0833,0.9812,1.3476,0.3665,A
135,0.5005,1.2,1,0.45045,0.21688,0.85918,135,2.36067,-0.33,-0.16683,0.33366,5,2U1D,2.0,True,0.359,10,True,right,0.25025,0.3649,0.8737,0.5088,1.5219,999,997.4781,A
136,0.5005,1.2,2,0.33366,0.40874,0.59225,136,2.6276,0.582,0.29196,0.79245,5,2D1U,2.0,True,0.148,14,True,right,0.0,1.5988,2.2994,0.7006,0.2492,0.9242,0.675,A
137,0.5005,1.2,1,0.22522,0.25859,0.4421,137,2.37735,0.9,0.45045,0.95094,5,lapse_rate,1.0,True,0.351,0,False,left,-0.16683,0.1402,1.2652,1.125,1.7075,2.2165,0.509,A
138,0.5005,1.2,1,0.21688,0.4421,0.88421,138,2.37735,-0.33,-0.16683,0.33366,5,2U1D,1.0,False,0.288,10,True,left,0.25025,0.1292,0.6369,0.5077,1.3126,2.2372,0.9247,A
139,0.5005,0.1,2,0.20854,0.27527,0.86753,139,2.62761,0.546,0.27527,0.77577,5,2D1U,2.0,True,0.311,14,False,right,0.0,1.6055,2.3629,0.7574,0.1884,0.7221,0.5337,A
140,0.5005,0.1,2,0.35035,0.35869,0.68401,140,2.21053,-0.366,-0.18351,0.31698,5,2U1D,1.0,True,0.221,10,False,left,-0.16683,1.4813,1.7816,0.3003,0.4157,0.782,0.3663,A
141,0.5005,0.1,1,0.35869,0.4421,0.6423,141,2.71936,0.546,0.27527,0.77577,5,2D1U,1.0,True,0.205,14,False,left,0.25025,0.3406,1.1479,0.8073,1.6489,2.4317,0.7827,A
142,0.5005,0.1,2,0.38371,0.4004,0.89255,142,3.1281,0.9,0.45045,0.95094,5,lapse_rate,2.0,True,0.24,0,False,right,0.0,1.8093,2.7421,0.9328,0.3672,0.8994,0.5322,A
143,0.5005,1.2,1,0.25859,0.40874,0.50884,143,2.43575,0.51,0.25859,0.75908,5,2D1U,1.0,True,0.247,14,False,left,-0.16683,0.1722,1.1048,0.9326,1.6132,2.1215,0.5083,A
144,0.5005,0.1,2,0.20854,0.22522,0.87587,144,2.76107,0.9,0.45045,0.95094,5,lapse_rate,2.0,True,0.263,0,False,right,0.25025,1.7433,2.6765,0.9332,0.0682,0.8521,0.7839,A
145,0.5005,1.2,1,0.32532,0.31698,0.49215,145,1.95193,-0.366,-0.18351,0.31698,5,2U1D,1.0,False,0.3,10,False,left,0.0,0.2386,0.7315,0.4929,1.1391,1.8145,0.6754,A
146,0.5005,1.2,2,0.35035,0.31698,0.50884,146,1.97697,-0.402,-0.2002,0.3003,5,2U1D,1.0,True,0.251,10,False,left,-0.16683,1.4525,1.6609,0.2084,0.3525,0.8601,0.5076,A
147,0.5005,1.2,1,0.32532,0.34201,0.69235,147,1.91023,-0.9,-0.45045,0.05005,5,lapse_rate,2.0,True,0.21,0,False,right,0.25025,0.2396,0.4644,0.2248,0.9469,1.8725,0.9256,A
148,0.5005,0.1,2,0.40874,0.2002,0.50884,148,2.37736,0.51,0.25859,0.75908,5,2D1U,2.0,True,0.113,14,False,right,0.0,1.4461,2.1887,0.7425,0.3882,0.9209,0.5327,A
149,0.5005,0.1,2,0.37537,0.3003,0.47547,149,2.3857,0.474,0.23356,0.73406,5,2D1U,2.0,True,0.182,14,False,right,-0.16683,1.2961,2.0134,0.7173,0.4392,0.8055,0.3664,A
150,0.5005,0.1,1,0.22522,0.31698,0.82582,150,2.16882,-0.402,-0.2002,0.3003,5,2U1D,2.0,True,0.209,10,False,right,0.25025,0.2089,0.5416,0.3328,1.2253,2.0087,0.7834,A
151,0.5005,1.2,1,0.22522,0.37537,0.51718,151,1.66832,-0.9,-0.45045,0.05005,5,lapse_rate,2.0,True,0.183,0,False,right,0.0,0.1408,0.365,0.2243,0.7988,1.4739,0.6751,A
152,0.5005,1.2,2,0.43376,0.43376,0.72572,152,2.8278,0.474,0.23356,0.73406,5,2D1U,2.0,True,0.246,14,False,right,-0.16683,1.7477,2.3891,0.6413,0.4311,0.9394,0.5083,A
153,0.5005,1.2,2,0.40874,0.26693,0.65899,153,2.7861,0.9,0.45045,0.95094,5,lapse_rate,2.0,True,0.392,0,False,right,0.25025,1.8698,2.7278,0.858,0.203,1.1277,0.9247,A
154,0.5005,1.2,1,0.36703,0.33366,0.61728,154,2.13545,-0.366,-0.18351,0.31698,5,2U1D,2.0,True,0.304,11,True,right,0.0,0.2794,0.7711,0.4917,1.3047,1.9795,0.6747,A
155,0.5005,0.1,1,0.45045,0.36703,0.62562,155,2.89454,0.9,0.45045,0.95094,5,lapse_rate,1.0,True,0.25,0,False,left,-0.16683,0.4363,1.4187,0.9824,2.1096,2.4771,0.3674,A
156,0.5005,1.2,2,0.43376,0.28361,0.47547,156,2.41072,0.438,0.21688,0.71738,5,2D1U,2.0,True,0.518,14,False,right,0.25025,1.7113,2.3356,0.6243,0.2284,1.1531,0.9248,A
157,0.5005,0.1,2,0.22522,0.37537,0.60894,157,2.02701,-0.366,-0.18351,0.31698,5,2U1D,1.0,True,0.296,11,True,left,0.0,1.3653,1.6658,0.3005,0.207,0.7404,0.5334,A
158,0.5005,0.1,2,0.31698,0.28361,0.63396,158,1.7851,-0.9,-0.45045,0.05005,5,lapse_rate,1.0,True,0.383,0,False,left,-0.16683,1.4029,1.436,0.0331,0.3854,0.7533,0.3679,A
159,0.5005,0.1,2,0.33366,0.29196,0.40874,159,1.86852,-0.33,-0.16683,0.33366,5,2U1D,1.0,True,0.556,11,False,left,0.25025,1.401,1.718,0.317,0.1927,0.9763,0.7837,A
160,0.5005,0.1,1,0.20854,0.36703,0.79245,160,2.5859,0.438,0.21688,0.71738,5,2D1U,1.0,True,0.302,14,False,left,0.0,0.19,0.9396,0.7496,1.7147,2.248,0.5333,A
161,0.5005,1.2,1,0.32532,0.25859,0.76743,161,2.1855,-0.33,-0.16683,0.33366,5,2U1D,2.0,True,0.309,11,False,right,-0.16683,0.2452,0.7539,0.5087,1.5192,2.0279,0.5088,A
162,0.5005,1.2,2,0.40874,0.30864,0.87587,162,2.79444,0.402,0.2002,0.70069,5,2D1U,1.0,False,0.567,14,False,left,0.25025,2.0862,2.6944,0.6082,0.2037,1.1283,0.9245,A
163,0.5005,1.2,1,0.23356,0.30864,0.56723,163,1.65998,-0.9,-0.45045,0.05005,5,lapse_rate,2.0,True,0.184,0,False,right,0.0,0.1461,0.371,0.2249,0.8547,1.5297,0.6749,A
164,0.5005,0.1,1,0.38371,0.39205,0.86753,164,3.09473,0.9,0.45045,0.95094,5,lapse_rate,1.0,True,0.133,0,False,left,-0.16683,0.3646,1.3487,0.9842,2.2819,2.6486,0.3667,A
165,0.5005,1.2,2,0.35035,0.26693,0.65064,165,2.4858,0.438,0.21688,0.71738,5,2D1U,1.0,False,0.269,15,True,left,0.25025,1.7987,2.4235,0.6248,0.1404,1.0652,0.9248,A
166,0.5005,0.1,2,0.4421,0.26693,0.55889,166,2.11877,-0.294,-0.15015,0.35035,5,2U1D,1.0,True,0.285,11,False,left,0.0,1.5343,1.8672,0.3329,0.4252,0.959,0.5338,A
167,0.5005,1.2,1,0.37537,0.20854,0.82582,167,1.96028,-0.9,-0.45045,0.05005,5,lapse_rate,2.0,True,0.315,0,False,right,-0.16683,0.2893,0.5146,0.2253,1.3398,1.848,0.5082,A
168,0.5005,0.1,1,0.37537,0.20854,0.66733,168,2.4858,0.474,0.23356,0.73406,5,2D1U,2.0,False,0.259,15,False,right,0.25025,0.3561,1.122,0.7659,1.6478,2.4304,0.7826,A
169,0.5005,0.1,1,0.39205,0.29196,0.75074,169,2.2856,-0.294,-0.15015,0.35035,5,2U1D,2.0,True,0.251,11,False,right,0.0,0.3721,0.7549,0.3828,1.4884,2.0218,0.5334,A
170,0.5005,1.2,1,0.34201,0.35869,0.83416,170,2.40239,-0.258,-0.12512,0.36703,5,2U1D,2.0,True,0.284,11,False,right,-0.16683,0.2586,0.8003,0.5417,1.6333,2.1418,0.5086,A
171,0.5005,1.2,2,0.38371,0.28361,0.70904,171,2.8278,0.9,0.45045,0.95094,5,lapse_rate,2.0,True,0.416,0,False,right,0.25025,1.8917,2.7503,0.8586,0.1746,1.0995,0.9249,A
172,0.5005,1.2,1,0.4421,0.29196,0.59225,172,2.58589,0.51,0.25859,0.75908,5,2D1U,2.0,False,0.308,15,False,right,0.0,0.3617,1.2952,0.9335,1.8034,2.4783,0.6749,A
173,0.5005,1.2,1,0.37537,0.21688,0.89255,173,2.35233,-0.258,-0.12512,0.36703,5,2U1D,2.0,True,0.391,11,False,right,-0.16683,0.2898,0.8312,0.5414,1.7229,2.2328,0.5099,A
174,0.5005,0.1,1,0.42542,0.35035,0.70069,174,2.75273,0.546,0.27527,0.77577,5,2D1U,1.0,True,0.112,15,False,left,0.25025,0.4061,1.2154,0.8093,1.7731,2.5569,0.7837,A
175,0.5005,1.2,2,0.39205,0.42542,0.66733,175,2.03535,-0.9,-0.45045,0.05005,5,lapse_rate,1.0,True,0.373,0,False,left,0.0,1.7297,1.6882,-0.0414,0.3055,0.9812,0.6758,A
176,0.5005,0.1,1,0.3003,0.20854,0.66733,176,2.45244,0.546,0.27527,0.77577,5,2D1U,1.0,True,0.252,15,False,left,-0.16683,0.2792,1.0877,0.8084,1.8207,2.187,0.3663,A
177,0.5005,0.1,2,0.23356,0.37537,0.67567,177,2.17715,-0.222,-0.10844,0.39205,5,2U1D,1.0,True,0.224,11,False,left,0.25025,1.5648,1.9398,0.375,0.0902,0.8732,0.783,A
178,0.5005,1.2,2,0.22522,0.33366,0.8425,178,1.95193,-0.9,-0.45045,0.05005,5,lapse_rate,1.0,True,0.363,0,False,left,0.0,1.7391,1.6977,-0.0414,0.1394,0.8135,0.6741,A
179,0.5005,1.2,1,0.34201,0.3003,0.71738,179,2.25224,-0.222,-0.10844,0.39205,5,2U1D,1.0,False,0.216,11,False,left,-0.16683,0.2611,0.8283,0.5671,1.5436,2.0522,0.5086,A
180,0.5005,1.2,1,0.34201,0.31698,0.45045,180,2.36902,0.51,0.25859,0.75908,5,2D1U,1.0,True,0.233,16,True,left,0.25025,0.2563,1.1908,0.9345,1.4321,2.3571,0.9251,A
181,0.5005,0.1,2,0.35869,0.35869,0.65899,181,1.92692,-0.9,-0.45045,0.05005,5,lapse_rate,1.0,True,0.223,0,False,left,0.0,1.548,1.5812,0.0333,0.34,0.8732,0.5332,A
182,0.5005,1.2,1,0.3003,0.40874,0.71738,182,2.87786,0.9,0.45045,0.95094,5,lapse_rate,1.0,True,0.116,0,False,left,-0.16683,0.2119,1.3365,1.1246,2.0539,2.5618,0.5079,A
183,0.5005,1.2,2,0.20854,0.20854,0.88421,183,2.16882,-0.258,-0.12512,0.36703,5,2U1D,1.0,True,0.318,12,True,left,0.25025,1.8942,2.1692,0.275,0.0032,0.9273,0.9241,A
184,0.5005,0.1,2,0.29196,0.35035,0.69235,184,2.59424,0.51,0.25859,0.75908,5,2D1U,2.0,True,0.649,16,True,right,0.0,1.5131,2.2541,0.741,0.2707,0.8045,0.5338,A
185,0.5005,0.1,1,0.22522,0.37537,0.42542,185,1.89354,-0.258,-0.12512,0.36703,5,2U1D,1.0,False,0.298,12,True,left,-0.16683,0.2104,0.6103,0.3999,1.1028,1.4684,0.3656,A
186,0.5005,0.1,2,0.36703,0.41708,0.7424,186,2.76107,0.474,0.23356,0.73406,5,2D1U,1.0,False,0.359,16,False,left,0.25025,1.7647,2.4811,0.7163,0.2232,1.0064,0.7833,A
187,0.5005,0.1,1,0.41708,0.23356,0.77577,187,1.97696,-0.9,-0.45045,0.05005,5,lapse_rate,2.0,True,0.122,0,False,right,0.0,0.3982,0.4813,0.0832,1.24,1.773,0.533,A
188,0.5005,1.2,2,0.40874,0.26693,0.79245,188,2.7277,0.51,0.25859,0.75908,5,2D1U,1.0,False,0.584,17,True,left,-0.16683,1.7956,2.4624,0.6668,0.4126,0.9208,0.5082,A
189,0.5005,1.2,2,0.25025,0.35869,0.65899,189,2.11878,-0.294,-0.15015,0.35035,5,2U1D,1.0,True,0.452,12,False,left,0.25025,1.7108,1.9687,0.2579,0.0439,0.9683,0.9244,A
190,0.5005,1.2,1,0.39205,0.34201,0.70904,190,2.89454,0.9,0.45045,0.95094,5,lapse_rate,1.0,True,0.361,0,False,left,0.0,0.3094,1.4345,1.1252,2.0595,2.7346,0.6752,A
191,0.5005,0.1,1,0.33366,0.41708,0.80913,191,3.01131,0.9,0.45045,0.95094,5,lapse_rate,1.0,True,0.279,0,False,left,-0.16683,0.315,1.2986,0.9836,2.1743,2.54,0.3657,A
192,0.5005,1.2,2,0.34201,0.37537,0.75074,192,2.31897,-0.294,-0.15015,0.35035,5,2U1D,1.0,True,0.254,12,False,left,0.25025,1.889,2.1473,0.2583,0.1306,1.0563,0.9257,A
193,0.5005,0.1,1,0.24191,0.43376,0.62562,193,2.57756,0.546,0.27527,0.77577,5,2D1U,1.0,True,0.137,17,False,left,0.0,0.2252,1.0335,0.8084,1.6418,2.1748,0.533,A
194,0.5005,0.1,2,0.4004,0.31698,0.5422,194,2.53585,0.546,0.27527,0.77577,5,2D1U,1.0,False,0.246,17,False,left,-0.16683,1.391,2.1496,0.7586,0.4662,0.8332,0.367,A
195,0.5005,0.1,2,0.23356,0.43376,0.90089,195,2.43574,-0.258,-0.12512,0.36703,5,2U1D,1.0,True,0.263,13,True,left,0.25025,1.7937,2.1445,0.3509,0.0943,0.878,0.7837,A
196,0.5005,0.1,2,0.32532,0.30864,0.86753,196,2.95293,0.9,0.45045,0.95094,5,lapse_rate,2.0,True,0.282,0,False,right,0.0,1.7223,2.6559,0.9337,0.3052,0.8385,0.5333,A
197,0.5005,0.1,1,0.33366,0.33366,0.45045,197,2.56921,0.9,0.45045,0.95094,5,lapse_rate,1.0,True,0.221,0,False,left,-0.16683,0.315,1.2982,0.9832,1.8147,2.1816,0.3668,A
198,0.5005,1.2,2,0.39205,0.22522,0.42542,198,2.33564,0.582,0.29196,0.79245,5,2D1U,1.0,False,0.251,17,False,left,0.25025,1.6157,2.3152,0.6995,0.1826,1.1078,0.9252,A
199,0.5005,1.2,2,0.33366,0.36703,0.6423,199,2.21052,-0.258,-0.12512,0.36703,5,2U1D,1.0,True,0.267,13,True,left,0.0,1.6523,1.926,0.2737,0.2522,0.9261,0.6739,A
200,0.5005,1.2,2,0.38371,0.24191,0.76743,200,2.70268,0.618,0.30864,0.80913,5,2D1U,2.0,True,0.34,17,False,right,-0.16683,1.7388,2.4554,0.7166,0.3805,0.8883,0.5078,A
201,0.5005,0.1,1,0.27527,0.31698,0.77577,201,2.26057,-0.222,-0.10844,0.39205,5,2U1D,2.0,True,0.126,13,False,right,0.25025,0.2551,0.68,0.4249,1.3136,2.0962,0.7825,A
202,0.5005,0.1,1,0.21688,0.43376,0.55054,202,1.75173,-0.9,-0.45045,0.05005,5,lapse_rate,2.0,True,0.114,0,False,right,0.0,0.1967,0.2801,0.0834,0.8142,1.3473,0.5332,A
203,0.5005,0.1,2,0.40874,0.36703,0.85918,203,2.5275,-0.222,-0.10844,0.39205,5,2U1D,2.0,False,0.267,13,False,right,-0.16683,1.7191,2.0948,0.3756,0.4779,0.8432,0.3652,A
204,0.5005,0.1,1,0.37537,0.32532,0.6423,204,2.65262,0.618,0.30864,0.80913,5,2D1U,2.0,False,0.231,17,False,right,0.25025,0.3583,1.2,0.8417,1.7002,2.4834,0.7832,A
205,0.5005,0.1,2,0.4004,0.27527,0.41708,205,2.54419,0.9,0.45045,0.95094,5,lapse_rate,2.0,True,0.227,0,False,right,0.0,1.3515,2.2856,0.9341,0.3855,0.919,0.5334,A
206,0.5005,0.1,1,0.25859,0.23356,0.69235,206,2.63594,0.9,0.45045,0.95094,5,lapse_rate,1.0,True,0.328,0,False,left,-0.16683,0.2393,1.2227,0.9834,1.981,2.3479,0.3669,A
207,0.5005,1.2,1,0.37537,0.29196,0.76743,207,2.30229,-0.258,-0.12512,0.36703,5,2U1D,2.0,True,0.273,14,True,right,0.25025,0.29,0.8316,0.5416,1.3902,999,997.6098,A
208,0.5005,1.2,1,0.2002,0.36703,0.80913,208,2.70268,0.654,0.32532,0.82582,5,2D1U,1.0,True,0.369,17,False,left,0.0,0.1132,1.1133,1.0001,1.8383,2.5135,0.6751,A
209,0.5005,1.2,1,0.31698,0.22522,0.65899,209,2.65263,0.9,0.45045,0.95094,5,lapse_rate,1.0,True,0.302,0,False,left,-0.16683,0.2334,1.3583,1.1249,2.0161,2.5248,0.5087,A
210,0.5005,1.2,2,0.22522,0.27527,0.58391,210,1.95193,-0.258,-0.12512,0.36703,5,2U1D,1.0,True,0.342,14,True,left,0.25025,1.6105,1.8854,0.2749,0.0181,0.9432,0.9252,A
211,0.5005,0.1,1,0.43376,0.37537,0.70069,211,2.83614,0.654,0.32532,0.82582,5,2D1U,1.0,True,0.28,17,False,left,0.0,0.4143,1.2739,0.8597,1.9558,2.4891,0.5333,A
212,0.5005,0.1,1,0.23356,0.20854,0.90089,212,2.79443,0.9,0.45045,0.95094,5,lapse_rate,1.0,True,0.252,0,False,left,-0.16683,0.2167,1.2001,0.9834,2.1656,2.5321,0.3665,A
213,0.5005,0.1,1,0.27527,0.29196,0.49215,213,1.95193,-0.222,-0.10844,0.39205,5,2U1D,1.0,False,0.223,15,True,left,0.25025,0.2601,0.6849,0.4248,1.035,1.818,0.783,A
214,0.5005,0.1,2,0.43376,0.27527,0.60059,214,2.61925,0.618,0.30864,0.80913,5,2D1U,1.0,False,0.238,18,True,left,0.0,1.5674,2.3587,0.7914,0.4164,0.9508,0.5343,A
215,0.5005,1.2,2,0.20854,0.37537,0.72572,215,2.17716,-0.258,-0.12512,0.36703,5,2U1D,1.0,True,0.207,16,True,left,-0.16683,1.5237,1.7983,0.2746,0.2063,0.7143,0.508,A
216,0.5005,1.2,1,0.3003,0.25025,0.85084,216,1.95194,-0.9,-0.45045,0.05005,5,lapse_rate,2.0,True,0.368,0,False,right,0.25025,0.2173,0.4427,0.2254,1.0839,999,997.9161,A
217,0.5005,1.2,1,0.38371,0.25859,0.78411,217,2.75273,0.654,0.32532,0.82582,5,2D1U,1.0,True,0.392,19,True,left,0.0,0.2977,1.2975,0.9999,1.9979,2.6724,0.6745,A
218,0.5005,0.1,2,0.26693,0.31698,0.83416,218,1.96862,-0.9,-0.45045,0.05005,5,lapse_rate,1.0,True,0.27,0,False,left,-0.16683,1.5452,1.5788,0.0335,0.3284,0.6961,0.3678,A
219,0.5005,1.2,1,0.32532,0.38371,0.5005,219,2.53585,0.654,0.32532,0.82582,5,2D1U,1.0,True,0.266,19,True,left,0.25025,0.2432,1.2434,1.0001,1.5348,2.4599,0.9251,A
220,0.5005,0.1,2,0.23356,0.45045,0.41708,220,1.96862,-0.258,-0.12512,0.36703,5,2U1D,1.0,True,0.229,16,True,left,0.0,1.1784,1.5282,0.3498,0.2116,0.7449,0.5333,A
221,0.5005,1.2,2,0.36703,0.42542,0.60894,221,1.95194,-0.9,-0.45045,0.05005,5,lapse_rate,1.0,True,0.299,0,False,left,-0.16683,1.567,1.5254,-0.0417,0.367,0.8756,0.5086,A
222,0.5005,0.1,1,0.41708,0.24191,0.55889,222,2.11043,-0.222,-0.10844,0.39205,5,2U1D,1.0,False,0.234,17,True,left,0.25025,0.3968,0.8216,0.4248,1.2389,2.0215,0.7827,A
223,0.5005,0.1,2,0.36703,0.45045,0.89255,223,3.01966,0.618,0.30864,0.80913,5,2D1U,2.0,True,0.176,20,True,right,0.0,1.7874,2.5793,0.7919,0.3458,0.879,0.5333,A
224,0.5005,1.2,1,0.27527,0.2002,0.7424,224,2.5275,0.618,0.30864,0.80913,5,2D1U,1.0,True,0.364,20,True,left,-0.16683,0.1894,1.1727,0.9833,1.9147,2.4234,0.5087,A
225,0.5005,0.1,1,0.4004,0.37537,0.82582,225,2.15214,-0.9,-0.45045,0.05005,5,lapse_rate,2.0,True,0.117,0,False,right,0.25025,0.3811,0.4644,0.0834,1.1476,1.9311,0.7835,A
226,0.5005,1.2,1,0.41708,0.27527,0.66733,226,2.22721,-0.258,-0.12512,0.36703,5,2U1D,1.0,False,0.516,18,True,left,0.0,0.331,0.8727,0.5417,1.4561,2.1311,0.675,A
227,0.5005,1.2,2,0.2002,0.25025,0.79245,227,2.53585,0.582,0.29196,0.79245,5,2D1U,1.0,False,0.326,20,False,left,-0.16683,1.5813,2.2814,0.7001,0.198,0.7062,0.5082,A
228,0.5005,1.2,2,0.25859,0.3003,0.81748,228,1.92692,-0.9,-0.45045,0.05005,5,lapse_rate,1.0,True,0.261,0,False,left,0.25025,1.8741,1.8325,-0.0416,0.0489,0.9742,0.9253,A
229,0.5005,0.1,2,0.25859,0.36703,0.40874,229,1.88521,-0.294,-0.15015,0.35035,5,2U1D,1.0,True,0.256,18,False,left,0.0,1.196,1.5288,0.3329,0.2377,0.7708,0.5331,A
230,0.5005,1.2,2,0.30864,0.35869,0.69235,230,2.81112,0.9,0.45045,0.95094,5,lapse_rate,1.0,False,0.382,0,False,left,-0.16683,1.5901,2.4483,0.8582,0.3068,0.8149,0.5081,A
231,0.5005,0.1,1,0.36703,0.43376,0.4004,231,2.05204,-0.294,-0.15015,0.35035,5,2U1D,1.0,False,0.335,18,False,left,0.25025,0.347,0.7303,0.3833,0.9891,1.7722,0.7832,A
232,0.5005,0.1,1,0.4421,0.42542,0.55054,232,2.72769,0.618,0.30864,0.80913,5,2D1U,1.0,True,0.428,21,True,left,0.0,0.4284,1.2702,0.8418,1.804,2.3366,0.5326,A
233,0.5005,0.1,1,0.25859,0.33366,0.80913,233,1.95193,-0.9,-0.45045,0.05005,5,lapse_rate,2.0,True,0.306,0,False,right,-0.16683,0.2393,0.322,0.0826,1.1977,1.5638,0.3661,A
234,0.5005,1.2,2,0.45045,0.38371,0.5005,234,2.16882,-0.33,-0.16683,0.33366,5,2U1D,1.0,True,0.513,18,False,left,0.25025,1.7518,1.9937,0.2419,0.2438,1.1687,0.9248,A
235,0.5005,1.2,1,0.32532,0.4004,0.65899,235,2.69434,0.618,0.30864,0.80913,5,2D1U,1.0,True,0.484,21,True,left,0.0,0.2364,1.2199,0.9835,1.7953,2.4703,0.675,A
236,0.5005,1.2,2,0.21688,0.23356,0.89255,236,2.63594,0.582,0.29196,0.79245,5,2D1U,2.0,True,0.291,22,True,right,-0.16683,1.7009,2.4011,0.7001,0.2171,0.7249,0.5078,A
237,0.5005,0.1,1,0.4421,0.40874,0.87587,237,3.17815,0.9,0.45045,0.95094,5,lapse_rate,1.0,True,0.217,0,False,left,0.25025,0.4247,1.408,0.9833,2.1415,2.9244,0.7829,A
238,0.5005,0.1,2,0.28361,0.41708,0.85918,238,2.39403,-0.33,-0.16683,0.33366,5,2U1D,1.0,True,0.245,18,False,left,0.0,1.6731,1.9893,0.3162,0.2635,0.7972,0.5337,A
239,0.5005,0.1,2,0.33366,0.28361,0.61728,239,2.0854,-0.294,-0.15015,0.35035,5,2U1D,1.0,True,0.238,19,True,left,-0.16683,1.3977,1.7313,0.3336,0.3975,0.7645,0.367,A
240,0.5005,1.2,1,0.36703,0.37537,0.60894,240,2.80278,0.9,0.45045,0.95094,5,lapse_rate,1.0,True,0.364,0,False,left,0.25025,0.2856,1.4114,1.1257,1.8108,2.7362,0.9253,A
241,0.5005,0.1,2,0.26693,0.41708,0.42542,241,2.40238,0.582,0.29196,0.79245,5,2D1U,2.0,True,0.236,22,True,right,0.0,1.2215,1.9961,0.7746,0.2463,0.7809,0.5346,A
242,0.5005,1.2,1,0.21688,0.33366,0.65064,242,2.47745,0.546,0.27527,0.77577,5,2D1U,1.0,True,0.415,22,False,left,-0.16683,0.1324,1.0819,0.9495,1.732,2.2397,0.5077,A
243,0.5005,1.2,2,0.41708,0.26693,0.62562,243,2.16048,-0.294,-0.15015,0.35035,5,2U1D,1.0,True,0.3,19,True,left,0.25025,1.8424,2.1008,0.2583,0.2098,1.1339,0.9241,A
244,0.5005,0.1,2,0.38371,0.41708,0.87587,244,3.1281,0.9,0.45045,0.95094,5,lapse_rate,2.0,True,0.25,0,False,right,0.0,1.789,2.7228,0.9338,0.3635,0.897,0.5334,A
245,0.5005,1.2,1,0.29196,0.37537,0.83416,245,2.36902,-0.258,-0.12512,0.36703,5,2U1D,1.0,False,0.43,19,False,left,-0.16683,0.206,0.7478,0.5419,1.5809,2.089,0.5081,A
246,0.5005,0.1,1,0.3003,0.23356,0.75908,246,2.56921,0.546,0.27527,0.77577,5,2D1U,1.0,True,0.306,22,False,left,0.25025,0.2806,1.0893,0.8086,1.7055,2.489,0.7835,A
247,0.5005,1.2,2,0.26693,0.27527,0.65899,247,2.65263,0.9,0.45045,0.95094,5,lapse_rate,2.0,True,0.292,0,False,right,0.0,1.5996,2.4574,0.8577,0.182,0.8573,0.6753,A
248,0.5005,0.1,2,0.41708,0.38371,0.47547,248,2.53584,0.51,0.25859,0.75908,5,2D1U,1.0,False,0.263,22,False,left,-0.16683,1.3394,2.0807,0.7413,0.4804,0.8479,0.3675,A
249,0.5005,0.1,1,0.20854,0.34201,0.65899,249,1.76009,-0.9,-0.45045,0.05005,5,lapse_rate,2.0,True,0.19,0,False,right,0.25025,0.1891,0.2729,0.0839,0.789,1.5728,0.7838,A
250,0.5005,0.1,1,0.20854,0.35869,0.71738,250,2.13546,-0.294,-0.15015,0.35035,5,2U1D,2.0,True,0.489,20,True,right,0.0,0.193,0.5764,0.3835,1.2772,1.8109,0.5337,A
251,0.5005,0.1,1,0.32532,0.25025,0.5422,251,2.56921,0.9,0.45045,0.95094,5,lapse_rate,1.0,True,0.293,0,False,left,-0.16683,0.3067,1.2904,0.9837,1.8977,2.2647,0.367,A
252,0.5005,1.2,1,0.35035,0.33366,0.73406,252,2.69434,0.546,0.27527,0.77577,5,2D1U,1.0,True,0.367,23,True,left,0.25025,0.2695,1.2195,0.95,1.7446,2.6707,0.9261,A
253,0.5005,1.2,1,0.35869,0.23356,0.57557,253,2.01867,-0.294,-0.15015,0.35035,5,2U1D,1.0,False,0.45,20,True,left,0.0,0.28,0.8046,0.5246,1.2961,1.9707,0.6746,A
254,0.5005,1.2,2,0.40874,0.40874,0.45879,254,2.11043,-0.33,-0.16683,0.33366,5,2U1D,1.0,True,0.263,20,False,left,-0.16683,1.4567,1.6971,0.2404,0.4068,0.9146,0.5078,A
255,0.5005,0.1,1,0.2002,0.4421,0.8425,255,2.76107,0.546,0.27527,0.77577,5,2D1U,1.0,True,0.358,23,True,left,0.25025,0.1791,0.9871,0.808,1.6869,2.4706,0.7837,A
256,0.5005,0.1,2,0.29196,0.26693,0.79245,256,2.1855,-0.33,-0.16683,0.33366,5,2U1D,1.0,True,0.329,20,False,left,0.0,1.6147,1.9314,0.3167,0.2726,0.8057,0.533,A
257,0.5005,0.1,2,0.27527,0.28361,0.62562,257,2.44408,0.51,0.25859,0.75908,5,2D1U,2.0,True,0.242,24,True,right,-0.16683,1.3486,2.0899,0.7413,0.3401,0.7065,0.3664,A
258,0.5005,1.2,2,0.25859,0.32532,0.45879,258,2.30228,0.51,0.25859,0.75908,5,2D1U,2.0,True,0.35,24,True,right,0.25025,1.5176,2.1847,0.6671,0.0513,0.976,0.9247,A
259,0.5005,1.2,2,0.37537,0.34201,0.83416,259,2.40239,-0.294,-0.15015,0.35035,5,2U1D,1.0,True,0.275,21,True,left,0.0,1.8861,2.1439,0.2577,0.2936,0.9697,0.6761,A
260,0.5005,1.2,2,0.42542,0.42542,0.57557,260,2.66097,0.474,0.23356,0.73406,5,2D1U,1.0,False,0.45,24,False,left,-0.16683,1.5927,2.2342,0.6415,0.4262,0.9346,0.5083,A
261,0.5005,0.1,2,0.39205,0.41708,0.42542,261,2.0854,-0.294,-0.15015,0.35035,5,2U1D,1.0,True,0.226,21,True,left,0.25025,1.4768,1.8091,0.3323,0.2512,1.0345,0.7833,A
262,0.5005,0.1,1,0.28361,0.27527,0.4421,262,1.86851,-0.258,-0.12512,0.36703,5,2U1D,1.0,False,0.349,21,False,left,0.0,0.266,0.6655,0.3994,1.0902,1.6235,0.5333,A
263,0.5005,0.1,2,0.27527,0.42542,0.75074,263,2.30228,-0.294,-0.15015,0.35035,5,2U1D,1.0,True,0.221,22,True,left,-0.16683,1.4726,1.8059,0.3332,0.3398,0.7067,0.3669,A
264,0.5005,1.2,1,0.21688,0.24191,0.86753,264,2.5859,0.51,0.25859,0.75908,5,2D1U,2.0,False,0.474,25,True,right,0.25025,0.1367,1.0701,0.9334,1.7282,999,997.2718,A
265,0.5005,1.2,2,0.31698,0.28361,0.76743,265,2.21887,-0.294,-0.15015,0.35035,5,2U1D,1.0,True,0.382,22,True,left,0.0,1.758,2.0167,0.2588,0.2322,0.9083,0.6761,A
266,0.5005,1.2,2,0.29196,0.4004,0.47547,266,2.4441,0.546,0.27527,0.77577,5,2D1U,2.0,True,0.262,25,False,right,-0.16683,1.3622,2.0454,0.6833,0.2958,0.803,0.5073,A
267,0.5005,0.1,1,0.21688,0.40874,0.69235,267,2.59424,0.546,0.27527,0.77577,5,2D1U,2.0,False,0.251,25,False,right,0.25025,0.197,1.0056,0.8086,1.5553,2.3402,0.7849,A
268,0.5005,0.1,2,0.24191,0.37537,0.5422,268,2.02701,-0.258,-0.12512,0.36703,5,2U1D,1.0,True,0.244,23,True,left,0.0,1.3125,1.663,0.3505,0.2214,0.7537,0.5323,A
269,0.5005,0.1,1,0.36703,0.28361,0.53386,269,2.47745,0.582,0.29196,0.79245,5,2D1U,1.0,True,0.289,25,False,left,-0.16683,0.3458,1.1712,0.8253,1.7711,2.1373,0.3663,A
270,0.5005,1.2,2,0.22522,0.35035,0.72572,270,2.16882,-0.258,-0.12512,0.36703,5,2U1D,1.0,True,0.267,23,True,left,0.25025,1.7477,2.0223,0.2746,0.014,0.9386,0.9246,A
271,0.5005,1.2,1,0.42542,0.31698,0.65899,271,2.69434,0.582,0.29196,0.79245,5,2D1U,1.0,True,0.334,25,False,left,0.0,0.3424,1.3093,0.9669,1.8844,2.5591,0.6748,A
272,0.5005,1.2,2,0.26693,0.20854,0.85084,272,2.60258,0.546,0.27527,0.77577,5,2D1U,1.0,False,0.285,26,True,left,-0.16683,1.709,2.3919,0.6828,0.2671,0.7757,0.5087,A
273,0.5005,0.1,1,0.32532,0.4421,0.56723,273,2.2272,-0.222,-0.10844,0.39205,5,2U1D,1.0,False,0.277,23,False,left,0.25025,0.3065,0.7313,0.4248,1.1567,1.9399,0.7832,A
274,0.5005,0.1,2,0.2002,0.25025,0.69235,274,2.43575,0.582,0.29196,0.79245,5,2D1U,2.0,True,0.392,27,True,right,0.0,1.4251,2.1999,0.7748,0.1831,0.7164,0.5333,A
275,0.5005,0.1,1,0.4421,0.32532,0.71738,275,2.77775,0.582,0.29196,0.79245,5,2D1U,1.0,True,0.324,27,True,left,-0.16683,0.4253,1.2502,0.825,2.0335,2.4002,0.3667,A
276,0.5005,1.2,2,0.31698,0.23356,0.66733,276,2.49414,0.546,0.27527,0.77577,5,2D1U,1.0,False,0.382,28,True,left,0.25025,1.7805,2.4633,0.6827,0.1046,1.0298,0.9252,A
277,0.5005,1.2,2,0.40874,0.4004,0.4421,277,2.11877,-0.258,-0.12512,0.36703,5,2U1D,1.0,True,0.224,24,True,left,0.0,1.5224,1.7982,0.2758,0.3221,0.9977,0.6756,A
278,0.5005,1.2,2,0.32532,0.20854,0.60894,278,2.43575,0.582,0.29196,0.79245,5,2D1U,1.0,False,0.234,29,True,left,-0.16683,1.5205,2.2212,0.7006,0.3216,0.8297,0.5081,A
279,0.5005,0.1,1,0.30864,0.21688,0.89255,279,2.2856,-0.258,-0.12512,0.36703,5,2U1D,1.0,False,0.344,24,True,left,0.25025,0.2882,0.6889,0.4007,1.4392,2.2218,0.7826,A
280,0.5005,0.1,2,0.21688,0.38371,0.63396,280,2.0854,-0.294,-0.15015,0.35035,5,2U1D,1.0,True,0.221,24,False,left,0.0,1.3852,1.7182,0.333,0.2019,0.7356,0.5336,A
281,0.5005,0.1,2,0.25025,0.4004,0.67567,281,2.63595,0.618,0.30864,0.80913,5,2D1U,2.0,True,0.318,29,False,right,-0.16683,1.3773,2.1689,0.7915,0.3199,0.6854,0.3656,A
282,0.5005,1.2,1,0.45045,0.33366,0.58391,282,2.21887,-0.294,-0.15015,0.35035,5,2U1D,2.0,True,0.615,24,False,right,0.25025,0.3699,0.8947,0.5248,1.2695,2.195,0.9255,A
283,0.5005,1.2,1,0.22522,0.42542,0.60894,283,2.12711,-0.258,-0.12512,0.36703,5,2U1D,1.0,False,0.283,25,True,left,0.0,0.141,0.6833,0.5423,1.2085,1.8826,0.6742,A
284,0.5005,1.2,1,0.29196,0.40874,0.49215,284,2.0437,-0.294,-0.15015,0.35035,5,2U1D,1.0,False,0.272,26,True,left,-0.16683,0.2072,0.7321,0.5249,1.2232,1.7317,0.5085,A
285,0.5005,0.1,2,0.28361,0.41708,0.47547,285,2.48579,0.618,0.30864,0.80913,5,2D1U,2.0,True,0.223,29,False,right,0.25025,1.414,2.2062,0.7922,0.14,0.923,0.783,A
286,0.5005,0.1,2,0.22522,0.30864,0.73406,286,2.56087,0.582,0.29196,0.79245,5,2D1U,2.0,True,0.266,30,True,right,0.0,1.4884,2.2637,0.7753,0.2053,0.7387,0.5334,A
287,0.5005,0.1,1,0.42542,0.25025,0.5422,287,2.51082,0.582,0.29196,0.79245,5,2D1U,1.0,True,0.276,30,True,left,-0.16683,0.4115,1.2355,0.824,1.8443,2.2114,0.3671,A
288,0.5005,1.2,1,0.26693,0.30864,0.52552,288,1.93525,-0.33,-0.16683,0.33366,5,2U1D,1.0,False,0.227,26,False,left,0.25025,0.1792,0.688,0.5088,1.0047,1.9295,0.9249,A
289,0.5005,1.2,2,0.28361,0.36703,0.68401,289,2.61092,0.546,0.27527,0.77577,5,2D1U,2.0,True,0.281,30,False,right,0.0,1.645,2.3275,0.6824,0.2025,0.8775,0.675,A
290,0.5005,1.2,1,0.30864,0.28361,0.6423,290,2.51082,0.546,0.27527,0.77577,5,2D1U,1.0,True,0.354,30,False,left,-0.16683,0.2264,1.1786,0.9522,1.8194,2.3275,0.5082,A
291,0.5005,0.1,1,0.20854,0.35869,0.90089,291,2.2856,-0.366,-0.18351,0.31698,5,2U1D,1.0,False,0.291,26,False,left,0.25025,0.1942,0.5444,0.3502,1.3017,2.0859,0.7842,A
292,0.5005,0.1,1,0.29196,0.43376,0.75074,292,2.27726,-0.402,-0.2002,0.3003,5,2U1D,1.0,False,0.113,26,False,left,0.0,0.2777,0.61,0.3323,1.3439,1.8772,0.5333,A
293,0.5005,0.1,2,0.24191,0.34201,0.4421,293,1.81013,-0.438,-0.21688,0.28361,5,2U1D,1.0,True,0.259,26,False,left,-0.16683,1.1306,1.3972,0.2666,0.3056,0.6715,0.3658,A
294,0.5005,1.2,1,0.25859,0.34201,0.40874,294,2.26892,0.51,0.25859,0.75908,5,2D1U,2.0,False,0.493,30,False,right,0.25025,0.1733,1.1073,0.934,1.3069,2.2332,0.9263,A
295,0.5005,1.2,2,0.4421,0.35035,0.43376,295,2.50248,0.546,0.27527,0.77577,5,2D1U,2.0,True,0.276,31,True,right,0.0,1.5534,2.237,0.6835,0.362,1.0367,0.6747,A
296,0.5005,1.2,1,0.26693,0.40874,0.50884,296,2.46078,0.546,0.27527,0.77577,5,2D1U,1.0,True,0.242,31,True,left,-0.16683,0.1827,1.1322,0.9495,1.6404,2.1491,0.5088,A
297,0.5005,0.1,2,0.38371,0.32532,0.88421,297,2.37735,-0.438,-0.21688,0.28361,5,2U1D,1.0,True,0.264,26,False,left,0.25025,1.926,2.1927,0.2667,0.2423,1.0262,0.7839,A
298,0.5005,0.1,1,0.2002,0.31698,0.89255,298,2.21053,-0.402,-0.2002,0.3003,5,2U1D,2.0,True,0.208,27,True,right,0.0,0.1835,0.517,0.3335,1.3912,1.9252,0.5341,A
299,0.5005,0.1,1,0.20854,0.36703,0.57557,299,1.95194,-0.402,-0.2002,0.3003,5,2U1D,2.0,True,0.112,27,True,right,-0.16683,0.1933,0.527,0.3337,1.1679,1.5353,0.3674,A
300,0.5005,1.2,1,0.25859,0.4421,0.49215,300,2.45242,0.51,0.25859,0.75908,5,2D1U,1.0,True,0.298,32,True,left,0.25025,0.1738,1.1071,0.9333,1.3905,2.3146,0.9242,A
301,0.5005,1.2,2,0.22522,0.40874,0.43376,301,1.8852,-0.366,-0.18351,0.31698,5,2U1D,1.0,True,0.144,27,False,left,0.0,1.3318,1.5566,0.2248,0.1404,0.8155,0.675,A
302,0.5005,1.2,2,0.36703,0.2002,0.78411,302,2.61092,0.51,0.25859,0.75908,5,2D1U,2.0,True,0.324,32,True,right,-0.16683,1.7422,2.4091,0.6668,0.3672,0.8756,0.5084,A
303,0.5005,0.1,1,0.34201,0.22522,0.78411,303,2.16882,-0.366,-0.18351,0.31698,5,2U1D,1.0,False,0.372,27,False,left,0.25025,0.3202,0.6713,0.3511,1.3123,2.0949,0.7825,A
304,0.5005,0.1,2,0.25859,0.27527,0.7424,304,2.07706,-0.402,-0.2002,0.3003,5,2U1D,1.0,True,0.293,28,True,left,0.0,1.5341,1.8174,0.2833,0.2423,0.7757,0.5334,A
305,0.5005,0.1,2,0.40874,0.4421,0.75074,305,2.40238,-0.402,-0.2002,0.3003,5,2U1D,1.0,True,0.217,28,True,left,-0.16683,1.6104,1.8938,0.2833,0.477,0.8434,0.3664,A
306,0.5005,1.2,2,0.35869,0.43376,0.47547,306,2.50248,0.474,0.23356,0.73406,5,2D1U,2.0,True,0.267,32,False,right,0.25025,1.6376,2.2789,0.6413,0.1545,1.0793,0.9248,A
307,0.5005,1.2,2,0.3003,0.43376,0.86753,307,2.83615,0.474,0.23356,0.73406,5,2D1U,2.0,True,0.276,32,False,right,0.0,1.8401,2.4806,0.6405,0.214,0.8891,0.6751,A
308,0.5005,1.2,2,0.41708,0.28361,0.48381,308,2.00198,-0.366,-0.18351,0.31698,5,2U1D,1.0,True,0.33,29,True,left,-0.16683,1.4893,1.7142,0.2249,0.4142,0.9217,0.5075,A
309,0.5005,0.1,1,0.43376,0.20854,0.79245,309,2.65263,0.438,0.21688,0.71738,5,2D1U,1.0,True,0.25,32,False,left,0.25025,0.4151,1.1647,0.7496,1.8159,2.5977,0.7818,A
310,0.5005,0.1,2,0.27527,0.37537,0.60059,310,2.46911,0.438,0.21688,0.71738,5,2D1U,2.0,True,0.238,32,False,right,0.0,1.4103,2.1105,0.7002,0.2597,0.7942,0.5345,A
311,0.5005,0.1,2,0.42542,0.34201,0.48381,311,2.45243,0.402,0.2002,0.70069,5,2D1U,2.0,True,0.191,32,False,right,-0.16683,1.3573,2.0416,0.6843,0.4912,0.858,0.3668,A
312,0.5005,1.2,2,0.29196,0.43376,0.55054,312,2.09374,-0.366,-0.18351,0.31698,5,2U1D,1.0,True,0.211,29,True,left,0.25025,1.6406,1.8653,0.2247,0.0818,1.0112,0.9294,A
313,0.5005,1.2,2,0.28361,0.27527,0.72572,313,2.48579,0.402,0.2002,0.70069,5,2D1U,2.0,True,0.382,32,False,right,0.0,1.6819,2.2897,0.6078,0.1978,0.8738,0.6759,A
314,0.5005,1.2,1,0.43376,0.27527,0.5422,314,2.43574,0.366,0.18351,0.68401,5,2D1U,1.0,True,0.291,32,False,left,-0.16683,0.3495,1.2073,0.8578,1.7496,2.2566,0.5069,A
315,0.5005,0.1,2,0.35035,0.35035,0.82582,315,2.71103,0.366,0.18351,0.68401,5,2D1U,2.0,True,0.209,32,False,right,0.25025,1.8289,2.4956,0.6666,0.2042,0.9876,0.7834,A
316,0.5005,0.1,2,0.26693,0.26693,0.6423,316,2.01032,-0.33,-0.16683,0.33366,5,2U1D,1.0,True,0.268,29,False,left,0.0,1.4409,1.7579,0.3171,0.2488,0.7823,0.5334,A
317,0.5005,0.1,2,0.37537,0.25859,0.56723,317,2.36902,0.33,0.16683,0.66733,5,2D1U,2.0,True,0.276,32,False,right,-0.16683,1.3887,2.0383,0.6496,0.4391,0.8056,0.3664,A
318,0.5005,1.2,2,0.38371,0.21688,0.45045,318,1.8852,-0.33,-0.16683,0.33366,5,2U1D,2.0,False,0.407,29,False,right,0.25025,1.6314,1.8729,0.2415,0.1729,1.0982,0.9252,A
319,0.5005,1.2,1,0.36703,0.24191,0.45045,319,1.87687,-0.366,-0.18351,0.31698,5,2U1D,1.0,False,0.754,30,True,left,0.0,0.2824,0.7738,0.4914,1.1409,1.8158,0.6749,A
320,0.5005,1.2,2,0.26693,0.40874,0.87587,320,2.35234,-0.402,-0.2002,0.3003,5,2U1D,1.0,True,0.284,30,False,left,-0.16683,1.7358,1.9431,0.2072,0.2682,0.7773,0.5091,A
321,0.5005,0.1,2,0.3003,0.42542,0.48381,321,2.37736,0.33,0.16683,0.66733,5,2D1U,2.0,True,0.264,32,False,right,0.25025,1.4392,2.0901,0.6509,0.1569,0.9397,0.7828,A
322,0.5005,0.1,1,0.30864,0.20854,0.58391,322,2.25223,0.294,0.15015,0.65064,5,2D1U,2.0,False,0.377,32,False,right,0.0,0.2905,0.9736,0.6831,1.5402,2.0737,0.5336,A
323,0.5005,0.1,2,0.26693,0.3003,0.52552,323,1.89355,-0.402,-0.2002,0.3003,5,2U1D,1.0,True,0.276,30,False,left,-0.16683,1.2392,1.5225,0.2833,0.3302,0.6972,0.367,A
324,0.5005,1.2,2,0.37537,0.29196,0.63396,324,2.46912,0.33,0.16683,0.66733,5,2D1U,1.0,False,0.692,33,True,left,0.25025,1.8067,2.3818,0.5751,0.1656,1.0906,0.925,A
325,0.5005,1.2,2,0.22522,0.4004,0.59225,325,2.40238,0.366,0.18351,0.68401,5,2D1U,1.0,False,0.403,33,False,left,0.0,1.49,2.0815,0.5915,0.1404,0.815,0.6746,A
326,0.5005,1.2,1,0.23356,0.30864,0.61728,326,1.97696,-0.366,-0.18351,0.31698,5,2U1D,1.0,False,0.372,31,True,left,-0.16683,0.1523,0.6442,0.4919,1.2616,1.7694,0.5078,A
327,0.5005,0.1,1,0.33366,0.28361,0.51718,327,2.33564,0.402,0.2002,0.70069,5,2D1U,1.0,True,0.291,33,False,left,0.25025,0.3147,1.0461,0.7314,1.4217,2.205,0.7834,A
328,0.5005,0.1,2,0.32532,0.26693,0.60894,328,2.40238,0.402,0.2002,0.70069,5,2D1U,1.0,False,0.112,33,False,left,0.0,1.4657,2.1486,0.683,0.3078,0.8412,0.5334,A
329,0.5005,0.1,1,0.24191,0.41708,0.80079,329,2.67766,0.438,0.21688,0.71738,5,2D1U,1.0,True,0.271,33,False,left,-0.16683,0.2239,0.9742,0.7503,1.8406,2.2082,0.3676,A
330,0.5005,1.2,2,0.21688,0.3003,0.42542,330,1.7434,-0.402,-0.2002,0.3003,5,2U1D,1.0,True,0.296,32,True,left,0.25025,1.4404,1.6491,0.2087,0.0079,0.9321,0.9242,A
331,0.5005,1.2,2,0.42542,0.32532,0.58391,331,2.55253,0.438,0.21688,0.71738,5,2D1U,2.0,True,0.307,33,False,right,0.0,1.6818,2.306,0.6242,0.3392,1.0139,0.6747,A
332,0.5005,1.2,1,0.36703,0.29196,0.70069,332,2.56087,0.402,0.2002,0.70069,5,2D1U,1.0,True,0.35,34,True,left,-0.16683,0.2861,1.161,0.8749,1.8613,2.3694,0.5081,A
333,0.5005,0.1,1,0.26693,0.39205,0.6423,333,2.50247,0.402,0.2002,0.70069,5,2D1U,1.0,True,0.115,34,True,left,0.25025,0.2486,0.9812,0.7326,1.4818,2.2653,0.7835,A
334,0.5005,0.1,2,0.21688,0.36703,0.80913,334,2.19384,-0.402,-0.2002,0.3003,5,2U1D,1.0,True,0.241,32,True,left,0.0,1.556,1.8396,0.2835,0.1974,0.7313,0.5339,A
335,0.5005,0.1,2,0.26693,0.20854,0.52552,335,2.1855,0.366,0.18351,0.68401,5,2D1U,2.0,True,0.237,34,False,right,-0.16683,1.2424,1.9103,0.6678,0.334,0.7008,0.3668,A
336,0.5005,1.2,2,0.25025,0.38371,0.70904,336,2.52751,0.366,0.18351,0.68401,5,2D1U,2.0,True,0.276,34,False,right,0.25025,1.7541,2.3464,0.5922,0.0384,0.962,0.9236,A
337,0.5005,1.2,1,0.23356,0.24191,0.51718,337,1.81013,-0.366,-0.18351,0.31698,5,2U1D,2.0,True,0.367,33,True,right,0.0,0.1512,0.6429,0.4917,1.0764,1.7512,0.6748,A
338,0.5005,1.2,1,0.32532,0.35869,0.42542,338,1.92691,-0.366,-0.18351,0.31698,5,2U1D,2.0,True,0.251,33,True,right,-0.16683,0.245,0.7367,0.4917,1.1622,1.6705,0.5083,A
339,0.5005,0.1,2,0.32532,0.33366,0.55889,339,2.3857,0.33,0.16683,0.66733,5,2D1U,2.0,True,0.111,34,False,right,0.25025,1.5448,2.1939,0.6491,0.1864,0.9695,0.7831,A
340,0.5005,0.1,2,0.24191,0.35035,0.76743,340,2.19385,-0.33,-0.16683,0.33366,5,2U1D,1.0,True,0.259,33,False,left,0.0,1.5456,1.8607,0.3151,0.2283,0.7615,0.5332,A
341,0.5005,0.1,2,0.41708,0.41708,0.60894,341,2.27726,-0.33,-0.16683,0.33366,5,2U1D,1.0,True,0.152,33,False,left,-0.16683,1.4721,1.7883,0.3163,0.4806,0.8465,0.366,A
342,0.5005,1.2,1,0.22522,0.24191,0.47547,342,1.79345,-0.294,-0.15015,0.35035,5,2U1D,2.0,True,0.275,33,False,right,0.25025,0.1397,0.6644,0.5247,0.9324,999,998.0676,A
343,0.5005,1.2,2,0.42542,0.4421,0.81748,343,2.85283,0.33,0.16683,0.66733,5,2D1U,2.0,True,0.245,34,False,right,0.0,1.9154,2.4911,0.5757,0.3411,1.0152,0.6741,A
344,0.5005,1.2,2,0.30864,0.38371,0.55054,344,2.39403,0.294,0.15015,0.65064,5,2D1U,1.0,False,0.397,34,False,left,-0.16683,1.4469,2.0049,0.558,0.3047,0.8147,0.51,A
345,0.5005,0.1,1,0.25859,0.3003,0.80079,345,2.21053,-0.294,-0.15015,0.35035,5,2U1D,2.0,True,0.742,33,False,right,0.25025,0.2434,0.626,0.3826,1.2849,2.0678,0.7829,A
346,0.5005,0.1,1,0.4421,0.33366,0.88421,346,2.5275,-0.258,-0.12512,0.36703,5,2U1D,2.0,True,0.176,33,False,right,0.0,0.423,0.8226,0.3996,1.6896,2.2222,0.5325,A
347,0.5005,0.1,2,0.30864,0.36703,0.67567,347,2.51917,0.33,0.16683,0.66733,5,2D1U,2.0,True,0.287,35,True,right,-0.16683,1.43,2.0801,0.6501,0.3722,0.7383,0.3661,A
348,0.5005,1.2,2,0.4421,0.2002,0.49215,348,2.00198,-0.258,-0.12512,0.36703,5,2U1D,1.0,True,0.37,33,False,left,0.25025,1.7342,2.0089,0.2747,0.2336,1.1595,0.9259,A
349,0.5005,1.2,2,0.37537,0.28361,0.66733,349,2.21886,-0.222,-0.10844,0.39205,5,2U1D,1.0,True,0.26,33,False,left,0.0,1.7179,2.0179,0.3001,0.2937,0.9681,0.6743,A
350,0.5005,1.2,1,0.30864,0.41708,0.85084,350,2.74439,0.33,0.16683,0.66733,5,2D1U,1.0,True,0.232,35,True,left,-0.16683,0.2258,1.0676,0.8418,1.9172,2.4272,0.5101,A
351,0.5005,0.1,2,0.34201,0.36703,0.55054,351,2.15213,-0.222,-0.10844,0.39205,5,2U1D,1.0,True,0.213,33,False,left,0.25025,1.5477,1.9228,0.3751,0.1985,0.9804,0.7819,A
352,0.5005,0.1,1,0.25859,0.36703,0.55054,352,2.0854,-0.186,-0.09176,0.40874,5,2U1D,1.0,False,0.196,33,False,left,0.0,0.2447,0.6855,0.4408,1.2199,1.7532,0.5333,A
353,0.5005,0.1,1,0.25859,0.3003,0.75074,353,2.20218,-0.222,-0.10844,0.39205,5,2U1D,1.0,False,0.241,34,True,left,-0.16683,0.2416,0.6668,0.4253,1.4828,1.8505,0.3677,A
354,0.5005,1.2,2,0.42542,0.21688,0.45879,354,1.96862,-0.258,-0.12512,0.36703,5,2U1D,1.0,True,0.308,34,False,left,0.25025,1.6847,1.9595,0.2748,0.2179,1.1431,0.9252,A
355,0.5005,1.2,1,0.34201,0.25859,0.90089,355,2.65263,0.294,0.15015,0.65064,5,2D1U,1.0,True,0.438,36,True,left,0.0,0.2567,1.0827,0.826,1.8992,2.5743,0.6751,A
356,0.5005,1.2,1,0.35035,0.45045,0.81748,356,2.76942,0.294,0.15015,0.65064,5,2D1U,2.0,False,0.331,36,True,right,-0.16683,0.2699,1.0937,0.8238,1.9107,2.419,0.5083,A
357,0.5005,0.1,2,0.27527,0.39205,0.48381,357,2.01866,-0.258,-0.12512,0.36703,5,2U1D,1.0,True,0.215,34,False,left,0.25025,1.4138,1.7648,0.3509,0.1311,0.9143,0.7833,A
358,0.5005,0.1,2,0.2002,0.25859,0.81748,358,2.4441,0.33,0.16683,0.66733,5,2D1U,1.0,False,0.259,37,True,left,0.0,1.5474,2.1973,0.6499,0.1808,0.714,0.5332,A
359,0.5005,0.1,1,0.36703,0.35035,0.83416,359,2.44409,-0.222,-0.10844,0.39205,5,2U1D,2.0,True,0.223,35,True,right,-0.16683,0.3485,0.7738,0.4253,1.6727,2.0392,0.3665,A
360,0.5005,1.2,1,0.3003,0.4421,0.85918,360,2.78609,0.366,0.18351,0.68401,5,2D1U,1.0,True,0.3,37,False,left,0.25025,0.2141,1.0719,0.8577,1.7225,2.6475,0.925,A
361,0.5005,1.2,1,0.39205,0.38371,0.65899,361,2.61926,0.366,0.18351,0.68401,5,2D1U,1.0,True,0.327,37,False,left,0.0,0.3063,1.1647,0.8584,1.7395,2.4142,0.6747,A
362,0.5005,1.2,1,0.2002,0.22522,0.80079,362,2.11876,-0.222,-0.10844,0.39205,5,2U1D,1.0,False,0.321,35,True,left,-0.16683,0.1167,0.6836,0.5669,1.4842,1.9924,0.5081,A
363,0.5005,0.1,2,0.4004,0.34201,0.71738,363,2.62762,0.33,0.16683,0.66733,5,2D1U,1.0,False,0.257,38,True,left,0.25025,1.7703,2.4202,0.65,0.2537,1.0375,0.7838,A
364,0.5005,0.1,2,0.35869,0.25025,0.52552,364,2.00199,-0.258,-0.12512,0.36703,5,2U1D,1.0,True,0.259,36,True,left,0.0,1.4204,1.7686,0.3482,0.3433,0.8765,0.5331,A
365,0.5005,0.1,2,0.25859,0.35869,0.68401,365,2.4858,0.366,0.18351,0.68401,5,2D1U,2.0,True,0.25,39,True,right,-0.16683,1.3917,2.0586,0.6669,0.3255,0.693,0.3675,A
366,0.5005,1.2,1,0.21688,0.35035,0.51718,366,1.95194,-0.258,-0.12512,0.36703,5,2U1D,1.0,False,0.43,36,True,left,0.25025,0.1319,0.673,0.5411,0.9812,1.9064,0.9253,A
367,0.5005,1.2,1,0.41708,0.28361,0.71738,367,2.60258,0.366,0.18351,0.68401,5,2D1U,2.0,False,0.465,39,True,right,0.0,0.329,1.1866,0.8576,1.8203,2.4948,0.6746,A
368,0.5005,1.2,1,0.25859,0.28361,0.52552,368,2.26891,0.402,0.2002,0.70069,5,2D1U,2.0,False,0.423,39,False,right,-0.16683,0.1747,1.0509,0.8762,1.5748,2.0841,0.5093,A
369,0.5005,0.1,1,0.28361,0.32532,0.4004,369,1.86018,-0.294,-0.15015,0.35035,5,2U1D,2.0,True,0.142,36,False,right,0.25025,0.2658,0.6499,0.3841,0.9075,1.6909,0.7834,A
370,0.5005,0.1,2,0.4421,0.37537,0.43376,370,2.10208,-0.294,-0.15015,0.35035,5,2U1D,1.0,True,0.113,36,False,left,0.0,1.4052,1.7388,0.3336,0.4219,0.9557,0.5338,A
371,0.5005,0.1,2,0.42542,0.26693,0.65899,371,2.21887,-0.258,-0.12512,0.36703,5,2U1D,1.0,True,0.331,37,True,left,-0.16683,1.5312,1.8802,0.349,0.4888,0.8559,0.3671,A
372,0.5005,1.2,2,0.42542,0.22522,0.63396,372,2.50248,0.438,0.21688,0.71738,5,2D1U,2.0,True,0.289,39,False,right,0.25025,1.8557,2.4815,0.6258,0.214,1.1405,0.9265,A
373,0.5005,1.2,1,0.42542,0.3003,0.63396,373,2.57756,0.438,0.21688,0.71738,5,2D1U,1.0,True,0.339,39,False,left,0.0,0.3453,1.2369,0.8916,1.7871,2.462,0.6748,A
374,0.5005,1.2,2,0.34201,0.25025,0.83416,374,2.29395,-0.258,-0.12512,0.36703,5,2U1D,1.0,True,0.285,37,True,left,-0.16683,1.7674,2.042,0.2746,0.3424,0.8505,0.5081,A
375,0.5005,0.1,2,0.29196,0.35035,0.80913,375,2.65263,0.402,0.2002,0.70069,5,2D1U,1.0,False,0.28,40,True,left,0.25025,1.7609,2.4441,0.6832,0.1531,0.9362,0.7832,A
376,0.5005,0.1,1,0.38371,0.38371,0.56723,376,2.55253,0.438,0.21688,0.71738,5,2D1U,1.0,True,0.241,41,True,left,0.0,0.3628,1.1135,0.7506,1.6632,2.1966,0.5334,A
377,0.5005,0.1,2,0.43376,0.27527,0.47547,377,2.40238,0.438,0.21688,0.71738,5,2D1U,2.0,True,0.223,41,True,right,-0.16683,1.3561,2.056,0.6999,0.4975,0.8641,0.3666,A
378,0.5005,1.2,2,0.36703,0.37537,0.60059,378,2.23554,-0.222,-0.10844,0.39205,5,2U1D,1.0,True,0.419,37,False,left,0.25025,1.767,2.0673,0.3004,0.1593,1.0848,0.9255,A
379,0.5005,1.2,1,0.33366,0.23356,0.80913,379,2.2689,-0.222,-0.10844,0.39205,5,2U1D,1.0,False,0.383,37,False,left,0.0,0.2493,0.8152,0.566,1.541,2.2154,0.6744,A
380,0.5005,1.2,2,0.39205,0.39205,0.70069,380,2.35232,-0.258,-0.12512,0.36703,5,2U1D,1.0,True,0.198,38,True,left,-0.16683,1.6821,1.9573,0.2752,0.3898,0.8988,0.509,A
381,0.5005,0.1,1,0.45045,0.23356,0.65899,381,2.21053,-0.258,-0.12512,0.36703,5,2U1D,2.0,True,0.29,38,True,right,0.25025,0.4356,0.8353,0.3997,1.3521,2.135,0.7829,A
382,0.5005,0.1,2,0.3003,0.32532,0.65064,382,2.47745,0.402,0.2002,0.70069,5,2D1U,2.0,True,0.18,42,True,right,0.0,1.4797,2.1635,0.6838,0.2803,0.8134,0.5331,A
383,0.5005,0.1,2,0.41708,0.34201,0.53386,383,2.1855,-0.222,-0.10844,0.39205,5,2U1D,1.0,True,0.295,39,True,left,-0.16683,1.3989,1.7739,0.375,0.4818,0.8488,0.367,A
384,0.5005,1.2,2,0.23356,0.43376,0.65899,384,2.21886,-0.222,-0.10844,0.39205,5,2U1D,1.0,True,0.473,39,True,left,0.25025,1.6943,1.9941,0.2998,0.0269,0.9521,0.9252,A
385,0.5005,1.2,1,0.30864,0.37537,0.65899,385,2.54419,0.402,0.2002,0.70069,5,2D1U,1.0,True,0.346,42,True,left,0.0,0.2241,1.0991,0.875,1.674,2.3491,0.6751,A
386,0.5005,1.2,1,0.27527,0.41708,0.60894,386,2.21053,-0.186,-0.09176,0.40874,5,2U1D,1.0,False,0.325,39,False,left,-0.16683,0.189,0.7731,0.5841,1.3813,1.8899,0.5086,A
387,0.5005,0.1,1,0.20854,0.32532,0.88421,387,2.31062,-0.222,-0.10844,0.39205,5,2U1D,1.0,False,0.284,40,True,left,0.25025,0.1932,0.6182,0.425,1.3599,2.143,0.7831,A
388,0.5005,0.1,2,0.4004,0.26693,0.8425,388,2.69434,0.366,0.18351,0.68401,5,2D1U,2.0,True,0.11,42,False,right,0.0,1.7746,2.4401,0.6655,0.3822,0.916,0.5338,A
389,0.5005,0.1,1,0.41708,0.26693,0.70904,389,2.57756,0.366,0.18351,0.68401,5,2D1U,1.0,True,0.321,42,False,left,-0.16683,0.3964,1.1128,0.7164,1.8883,2.2545,0.3661,A
390,0.5005,1.2,1,0.2002,0.38371,0.62562,390,2.07706,-0.258,-0.12512,0.36703,5,2U1D,1.0,False,0.363,40,False,left,0.25025,0.1132,0.6545,0.5413,1.0719,1.9963,0.9244,A
391,0.5005,1.2,1,0.42542,0.29196,0.72572,391,2.61093,0.33,0.16683,0.66733,5,2D1U,1.0,True,0.291,42,False,left,0.0,0.3387,1.1808,0.8421,1.8222,2.4978,0.6755,A
392,0.5005,1.2,2,0.24191,0.33366,0.76743,392,2.19385,-0.294,-0.15015,0.35035,5,2U1D,1.0,True,0.186,40,False,left,-0.16683,1.6028,1.8611,0.2583,0.2445,0.7523,0.5077,A
393,0.5005,0.1,1,0.35035,0.39205,0.45045,393,2.36068,0.33,0.16683,0.66733,5,2D1U,1.0,True,0.113,42,False,left,0.25025,0.3309,1.0301,0.6992,1.3385,2.1224,0.7839,A
394,0.5005,0.1,2,0.39205,0.28361,0.50884,394,2.03535,-0.294,-0.15015,0.35035,5,2U1D,1.0,True,0.267,40,False,left,0.0,1.4309,1.7646,0.3337,0.3729,0.9063,0.5334,A
395,0.5005,0.1,1,0.36703,0.27527,0.50884,395,2.01867,-0.258,-0.12512,0.36703,5,2U1D,1.0,False,0.247,41,True,left,-0.16683,0.3485,0.7484,0.3999,1.3236,1.69,0.3664,A
396,0.5005,1.2,1,0.4421,0.20854,0.83416,396,2.33565,-0.294,-0.15015,0.35035,5,2U1D,1.0,False,0.259,42,True,left,0.25025,0.3603,0.8853,0.525,1.5109,999,997.4891,A
397,0.5005,1.2,1,0.34201,0.29196,0.47547,397,2.26058,0.294,0.15015,0.65064,5,2D1U,1.0,True,0.193,42,False,left,0.0,0.2542,1.0797,0.8254,1.4714,2.146,0.6745,A
398,0.5005,1.2,2,0.21688,0.22522,0.85084,398,2.1271,-0.33,-0.16683,0.33366,5,2U1D,1.0,True,0.358,42,False,left,-0.16683,1.6546,1.8966,0.242,0.2128,0.7213,0.5086,A
399,0.5005,0.1,2,0.30864,0.35869,0.79245,399,2.61092,0.294,0.15015,0.65064,5,2D1U,1.0,False,0.192,42,False,left,0.25025,1.7592,2.3922,0.633,0.1675,0.9513,0.7838,A
400,0.5005,0.1,2,0.3003,0.31698,0.59225,400,2.04369,-0.33,-0.16683,0.33366,5,2U1D,1.0,True,0.282,42,False,left,0.0,1.4253,1.7414,0.3161,0.2835,0.8183,0.5347,A
401,0.5005,0.1,2,0.34201,0.35035,0.60059,401,2.46078,0.33,0.16683,0.66733,5,2D1U,2.0,True,0.307,43,True,right,-0.16683,1.3955,2.0456,0.6501,0.4119,0.7781,0.3663,A
402,0.5005,1.2,1,0.34201,0.31698,0.47547,402,1.98531,-0.294,-0.15015,0.35035,5,2U1D,2.0,True,0.536,43,True,right,0.25025,0.2561,0.7816,0.5255,1.0484,1.9734,0.925,A
403,0.5005,1.2,2,0.28361,0.31698,0.75908,403,2.21052,-0.294,-0.15015,0.35035,5,2U1D,1.0,True,0.346,43,True,left,0.0,1.7199,1.9789,0.259,0.2037,0.8784,0.6746,A
404,0.5005,1.2,1,0.26693,0.28361,0.49215,404,2.21052,0.33,0.16683,0.66733,5,2D1U,1.0,True,0.3,43,True,left,-0.16683,0.1862,1.0279,0.8417,1.5195,2.0281,0.5086,A
405,0.5005,0.1,1,0.25859,0.41708,0.80079,405,2.34399,-0.258,-0.12512,0.36703,5,2U1D,1.0,False,0.111,43,False,left,0.25025,0.2374,0.6376,0.4002,1.2967,2.0796,0.7829,A
406,0.5005,0.1,1,0.21688,0.3003,0.66733,406,2.33565,0.294,0.15015,0.65064,5,2D1U,1.0,True,0.397,44,True,left,0.0,0.1964,0.8806,0.6842,1.5327,2.0642,0.5316,A
407,0.5005,0.1,1,0.32532,0.41708,0.71738,407,2.31063,-0.294,-0.15015,0.35035,5,2U1D,2.0,True,0.188,44,True,right,-0.16683,0.3064,0.6899,0.3835,1.4727,1.8401,0.3674,A
408,0.5005,1.2,1,0.36703,0.20854,0.6423,408,2.36901,0.294,0.15015,0.65064,5,2D1U,2.0,False,0.444,44,True,right,0.25025,0.2862,1.1125,0.8263,1.547,999,997.453,A
409,0.5005,1.2,1,0.43376,0.20854,0.83416,409,2.32731,-0.294,-0.15015,0.35035,5,2U1D,2.0,True,0.821,44,True,right,0.0,0.3511,0.8769,0.5258,1.6267,2.3016,0.6749,A
410,0.5005,1.2,2,0.28361,0.36703,0.65899,410,2.17716,-0.258,-0.12512,0.36703,5,2U1D,1.0,True,0.294,45,True,left,-0.16683,1.5361,1.811,0.2749,0.2861,0.7946,0.5085,A
411,0.5005,0.1,2,0.21688,0.4421,0.7424,411,2.26891,-0.258,-0.12512,0.36703,5,2U1D,1.0,True,0.108,45,True,left,0.25025,1.6181,1.9682,0.3502,0.076,0.8599,0.784,A
412,0.5005,0.1,1,0.35869,0.4421,0.70069,412,2.66931,0.33,0.16683,0.66733,5,2D1U,1.0,True,0.703,45,True,left,0.0,0.344,1.045,0.701,1.728,2.2613,0.5332,A
413,0.5005,0.1,2,0.20854,0.30864,0.88421,413,2.56922,0.33,0.16683,0.66733,5,2D1U,2.0,True,0.212,45,True,right,-0.16683,1.544,2.1934,0.6494,0.2776,0.6441,0.3665,A
414,0.5005,1.2,2,0.38371,0.34201,0.78411,414,2.66097,0.294,0.15015,0.65064,5,2D1U,1.0,False,0.225,46,True,left,0.25025,1.9704,2.5287,0.5583,0.1795,1.1046,0.9251,A
415,0.5005,1.2,1,0.21688,0.4421,0.88421,415,2.43574,-0.222,-0.10844,0.39205,5,2U1D,1.0,False,0.458,45,False,left,0.0,0.1325,0.6992,0.5667,1.4999,2.1733,0.6735,A
416,0.5005,1.2,1,0.33366,0.32532,0.45879,416,1.9853,-0.258,-0.12512,0.36703,5,2U1D,1.0,False,0.608,46,True,left,-0.16683,0.2456,0.7872,0.5416,1.2461,1.7541,0.508,A
417,0.5005,0.1,2,0.35869,0.41708,0.72572,417,2.66932,0.33,0.16683,0.66733,5,2D1U,2.0,True,0.107,47,True,right,0.25025,1.7451,2.3954,0.6503,0.2198,1.0034,0.7836,A
418,0.5005,0.1,2,0.36703,0.38371,0.47547,418,2.07706,-0.294,-0.15015,0.35035,5,2U1D,1.0,True,0.212,46,False,left,0.0,1.378,1.7111,0.3332,0.3526,0.8863,0.5337,A
419,0.5005,0.1,1,0.25859,0.4004,0.57557,419,2.40239,0.33,0.16683,0.66733,5,2D1U,1.0,True,0.184,47,True,left,-0.16683,0.2431,0.9433,0.7001,1.5847,1.9514,0.3667,A
420,0.5005,1.2,2,0.27527,0.24191,0.61728,420,2.2856,0.294,0.15015,0.65064,5,2D1U,2.0,True,0.449,48,True,right,0.25025,1.6901,2.2488,0.5588,0.0651,0.9905,0.9254,A
421,0.5005,1.2,2,0.25859,0.41708,0.45045,421,1.97697,-0.294,-0.15015,0.35035,5,2U1D,1.0,True,0.247,46,False,left,0.0,1.3841,1.6412,0.2571,0.1749,0.8491,0.6742,A
422,0.5005,1.2,1,0.25025,0.32532,0.81748,422,2.26058,-0.258,-0.12512,0.36703,5,2U1D,1.0,False,0.23,47,True,left,-0.16683,0.1633,0.7059,0.5426,1.5209,2.0298,0.5088,A
423,0.5005,0.1,2,0.40874,0.3003,0.90089,423,2.76107,0.294,0.15015,0.65064,5,2D1U,1.0,False,0.124,48,True,left,0.25025,1.9664,2.599,0.6326,0.2665,1.0499,0.7834,A
424,0.5005,0.1,1,0.3003,0.41708,0.76743,424,2.33566,-0.294,-0.15015,0.35035,5,2U1D,1.0,False,0.497,48,True,left,0.0,0.2846,0.6676,0.383,1.4174,1.9515,0.5342,A
425,0.5005,0.1,2,0.26693,0.42542,0.69235,425,2.55253,0.33,0.16683,0.66733,5,2D1U,2.0,True,0.304,49,True,right,-0.16683,1.4071,2.0579,0.6508,0.3313,0.6989,0.3676,A
426,0.5005,1.2,1,0.27527,0.42542,0.63396,426,2.16881,-0.33,-0.16683,0.33366,5,2U1D,1.0,False,0.317,48,False,left,0.25025,0.1939,0.7029,0.509,1.128,2.0522,0.9243,A
427,0.5005,1.2,1,0.38371,0.35869,0.6423,427,2.20218,-0.366,-0.18351,0.31698,5,2U1D,2.0,True,0.213,48,False,right,0.0,0.2979,0.7899,0.492,1.348,2.0237,0.6757,A
428,0.5005,1.2,2,0.42542,0.4004,0.7424,428,2.73605,0.33,0.16683,0.66733,5,2D1U,2.0,True,0.271,49,True,right,-0.16683,1.7556,2.3304,0.5748,0.4225,0.9298,0.5073,A
429,0.5005,0.1,1,0.20854,0.3003,0.50884,429,1.83516,-0.366,-0.18351,0.31698,5,2U1D,2.0,True,0.3,48,False,right,0.25025,0.1947,0.5456,0.3509,0.9115,1.6946,0.7832,A
430,0.5005,0.1,1,0.3003,0.39205,0.5422,430,2.38569,0.294,0.15015,0.65064,5,2D1U,2.0,False,0.298,50,True,right,0.0,0.2796,0.9633,0.6836,1.4886,2.0218,0.5332,A
431,0.5005,0.1,1,0.35869,0.21688,0.70069,431,2.44409,0.33,0.16683,0.66733,5,2D1U,1.0,True,0.388,51,True,left,-0.16683,0.3446,1.045,0.7004,1.8114,2.1786,0.3672,A
432,0.5005,1.2,1,0.27527,0.25859,0.47547,432,1.84349,-0.33,-0.16683,0.33366,5,2U1D,1.0,False,0.187,49,True,left,0.25025,0.1892,0.6968,0.5076,0.9639,999,998.0361,A
433,0.5005,1.2,2,0.31698,0.32532,0.80913,433,2.26891,-0.366,-0.18351,0.31698,5,2U1D,1.0,True,0.295,50,True,left,0.0,1.7992,2.0247,0.2255,0.2323,0.9076,0.6753,A
434,0.5005,1.2,2,0.23356,0.25859,0.77577,434,2.43575,0.33,0.16683,0.66733,5,2D1U,1.0,False,0.437,51,True,left,-0.16683,1.5978,2.1724,0.5746,0.2305,0.7394,0.5089,A
435,0.5005,0.1,1,0.29196,0.32532,0.72572,435,2.16048,-0.366,-0.18351,0.31698,5,2U1D,1.0,False,0.289,50,True,left,0.25025,0.2732,0.6237,0.3505,1.2068,1.9897,0.7829,A
436,0.5005,0.1,1,0.31698,0.26693,0.58391,436,2.35233,0.366,0.18351,0.68401,5,2D1U,1.0,True,0.283,51,False,left,0.0,0.3024,1.0192,0.7168,1.5856,2.1195,0.534,A
437,0.5005,0.1,2,0.31698,0.34201,0.60059,437,2.06038,-0.402,-0.2002,0.3003,5,2U1D,1.0,True,0.22,50,False,left,-0.16683,1.3651,1.6493,0.2843,0.3821,0.7495,0.3673,A
438,0.5005,1.2,1,0.31698,0.35035,0.45045,438,2.30229,0.366,0.18351,0.68401,5,2D1U,1.0,True,0.155,51,False,left,0.25025,0.231,1.0899,0.8589,1.3313,2.2556,0.9242,A
439,0.5005,1.2,2,0.39205,0.35869,0.75074,439,2.66931,0.33,0.16683,0.66733,5,2D1U,2.0,True,0.455,52,True,right,0.0,1.814,2.389,0.575,0.3058,0.9811,0.6753,A
440,0.5005,1.2,1,0.26693,0.2002,0.67567,440,2.31063,0.33,0.16683,0.66733,5,2D1U,1.0,True,0.339,52,True,left,-0.16683,0.1802,1.0224,0.8422,1.6975,2.2054,0.508,A
441,0.5005,0.1,1,0.32532,0.40874,0.67567,441,2.56087,0.294,0.15015,0.65064,5,2D1U,1.0,True,0.218,52,False,left,0.25025,0.3116,0.9962,0.6846,1.5286,2.3127,0.7841,A
442,0.5005,0.1,1,0.40874,0.37537,0.82582,442,2.41073,-0.402,-0.2002,0.3003,5,2U1D,2.0,True,0.241,50,False,right,0.0,0.3928,0.7269,0.3341,1.5356,2.0688,0.5332,A
443,0.5005,0.1,2,0.32532,0.35035,0.66733,443,2.49414,0.294,0.15015,0.65064,5,2D1U,2.0,True,0.519,52,False,right,-0.16683,1.4444,2.0783,0.6339,0.3943,0.7623,0.3681,A
444,0.5005,1.2,1,0.36703,0.39205,0.63396,444,2.51916,0.258,0.12512,0.62562,5,2D1U,2.0,False,0.107,52,False,right,0.25025,0.2845,1.0842,0.7997,1.5098,2.4339,0.9241,A
445,0.5005,1.2,2,0.4004,0.35035,0.70069,445,2.26892,-0.366,-0.18351,0.31698,5,2U1D,1.0,True,0.3,51,True,left,0.0,1.773,1.9979,0.2249,0.3149,0.9888,0.6739,A
446,0.5005,1.2,2,0.32532,0.30864,0.5422,446,1.99364,-0.366,-0.18351,0.31698,5,2U1D,1.0,True,0.252,51,True,left,-0.16683,1.4555,1.6808,0.2253,0.3222,0.8309,0.5087,A
447,0.5005,0.1,1,0.41708,0.27527,0.58391,447,2.4274,0.294,0.15015,0.65064,5,2D1U,1.0,True,0.29,53,True,left,0.25025,0.3995,1.0838,0.6843,1.5254,2.309,0.7836,A
448,0.5005,0.1,2,0.32532,0.21688,0.8425,448,2.21886,-0.33,-0.16683,0.33366,5,2U1D,1.0,True,0.304,51,False,left,0.0,1.7017,2.0179,0.3162,0.3101,0.8434,0.5333,A
449,0.5005,0.1,2,0.36703,0.43376,0.8425,449,2.47745,-0.33,-0.16683,0.33366,5,2U1D,1.0,True,0.243,51,False,left,-0.16683,1.6554,1.9721,0.3166,0.4304,0.7976,0.3672,A
450,0.5005,1.2,2,0.28361,0.23356,0.69235,450,2.36066,0.294,0.15015,0.65064,5,2D1U,1.0,False,0.368,53,True,left,0.25025,1.7771,2.3355,0.5584,0.078,1.0017,0.9238,A
451,0.5005,1.2,1,0.45045,0.42542,0.81748,451,2.5442,-0.294,-0.15015,0.35035,5,2U1D,1.0,False,0.281,51,False,left,0.0,0.3625,0.8881,0.5256,1.6205,2.2963,0.6758,A
452,0.5005,1.2,1,0.41708,0.42542,0.55889,452,2.23555,-0.33,-0.16683,0.33366,5,2U1D,1.0,False,0.19,52,True,left,-0.16683,0.3303,0.8398,0.5095,1.3977,1.9064,0.5087,A
453,0.5005,0.1,2,0.32532,0.4004,0.87587,453,2.41907,-0.366,-0.18351,0.31698,5,2U1D,1.0,True,0.285,52,False,left,0.25025,1.8569,2.157,0.3001,0.1827,0.9665,0.7838,A
454,0.5005,0.1,2,0.45045,0.29196,0.71738,454,2.62762,0.33,0.16683,0.66733,5,2D1U,2.0,True,0.272,53,False,right,0.0,1.6987,2.349,0.6503,0.4321,0.9657,0.5336,A
455,0.5005,0.1,2,0.35035,0.36703,0.88421,455,2.76942,0.33,0.16683,0.66733,5,2D1U,2.0,True,0.254,53,False,right,-0.16683,1.6813,2.332,0.6507,0.4137,0.7814,0.3677,A
456,0.5005,1.2,2,0.36703,0.28361,0.60059,456,2.06871,-0.366,-0.18351,0.31698,5,2U1D,1.0,True,0.362,52,False,left,0.25025,1.7643,1.99,0.2257,0.1563,1.0806,0.9243,A
457,0.5005,1.2,1,0.25025,0.34201,0.52552,457,1.95194,-0.33,-0.16683,0.33366,5,2U1D,1.0,False,0.4,53,True,left,0.0,0.1684,0.6782,0.5097,1.1195,1.7937,0.6742,A
458,0.5005,1.2,1,0.23356,0.23356,0.55889,458,2.17715,0.294,0.15015,0.65064,5,2D1U,1.0,True,0.278,54,True,left,-0.16683,0.1486,0.9732,0.8245,1.5319,2.04,0.5082,A
459,0.5005,0.1,2,0.35869,0.40874,0.62562,459,2.54419,0.294,0.15015,0.65064,5,2D1U,2.0,True,0.228,54,True,right,0.25025,1.6394,2.2723,0.6329,0.217,0.9977,0.7807,A
460,0.5005,0.1,2,0.4004,0.31698,0.63396,460,2.16882,-0.366,-0.18351,0.31698,5,2U1D,1.0,True,0.234,54,True,left,0.0,1.5646,1.8644,0.2998,0.3813,0.9159,0.5346,A
461,0.5005,0.1,2,0.29196,0.25859,0.43376,461,2.11043,0.258,0.12512,0.62562,5,2D1U,2.0,True,0.409,54,False,right,-0.16683,1.1723,1.781,0.6088,0.3564,0.7225,0.3661,A
462,0.5005,1.2,2,0.22522,0.27527,0.60894,462,1.92691,-0.366,-0.18351,0.31698,5,2U1D,1.0,True,0.385,54,True,left,0.25025,1.6359,1.8605,0.2245,0.0193,0.9444,0.9251,A
463,0.5005,1.2,1,0.28361,0.40874,0.90089,463,2.71936,0.258,0.12512,0.62562,5,2D1U,1.0,True,0.357,54,False,left,0.0,0.1979,0.9974,0.7996,1.8148,2.4896,0.6748,A
464,0.5005,1.2,2,0.25859,0.32532,0.87587,464,2.29394,-0.33,-0.16683,0.33366,5,2U1D,1.0,True,0.296,55,True,left,-0.16683,1.7279,1.9689,0.2411,0.2602,0.769,0.5088,A
465,0.5005,0.1,1,0.36703,0.40874,0.65064,465,2.26057,-0.33,-0.16683,0.33366,5,2U1D,1.0,False,0.242,55,True,left,0.25025,0.3455,0.7125,0.367,1.2204,2.0041,0.7836,A
466,0.5005,0.1,2,0.26693,0.38371,0.56723,466,2.32731,0.222,0.10844,0.60894,5,2D1U,2.0,True,0.604,54,False,right,0.0,1.3668,1.9584,0.5916,0.2499,0.7834,0.5336,A
467,0.5005,0.1,1,0.24191,0.3003,0.47547,467,2.12712,0.222,0.10844,0.60894,5,2D1U,1.0,True,0.281,54,False,left,-0.16683,0.2236,0.8663,0.6427,1.408,1.7743,0.3663,A
468,0.5005,1.2,2,0.38371,0.29196,0.75074,468,2.24389,-0.366,-0.18351,0.31698,5,2U1D,1.0,True,0.315,56,True,left,0.25025,1.9331,2.1579,0.2248,0.1736,1.0988,0.9252,A
469,0.5005,1.2,2,0.37537,0.22522,0.5005,469,1.91857,-0.366,-0.18351,0.31698,5,2U1D,1.0,True,0.346,56,True,left,0.0,1.5492,1.7739,0.2247,0.2894,0.9648,0.6754,A
470,0.5005,1.2,2,0.43376,0.31698,0.48381,470,2.06871,-0.33,-0.16683,0.33366,5,2U1D,1.0,True,0.246,57,True,left,-0.16683,1.5059,1.746,0.2401,0.4304,0.9382,0.5078,A
471,0.5005,0.1,2,0.31698,0.43376,0.40874,471,2.25223,0.186,0.09176,0.59225,5,2D1U,1.0,False,0.219,54,False,left,0.25025,1.3871,1.9633,0.5762,0.1776,0.9621,0.7845,A
472,0.5005,0.1,1,0.32532,0.24191,0.55889,472,1.96028,-0.33,-0.16683,0.33366,5,2U1D,1.0,False,0.291,57,True,left,0.0,0.3086,0.676,0.3674,1.2168,1.7503,0.5336,A
473,0.5005,0.1,2,0.32532,0.40874,0.59225,473,2.43575,0.222,0.10844,0.60894,5,2D1U,2.0,True,0.218,55,True,right,-0.16683,1.3704,1.9616,0.5912,0.3954,0.7619,0.3665,A
474,0.5005,1.2,1,0.40874,0.30864,0.88421,474,2.41907,-0.366,-0.18351,0.31698,5,2U1D,2.0,True,0.484,58,True,right,0.25025,0.3225,0.8143,0.4918,1.4895,2.4148,0.9253,A
475,0.5005,1.2,2,0.42542,0.34201,0.66733,475,2.5442,0.222,0.10844,0.60894,5,2D1U,2.0,True,0.358,55,True,right,0.0,1.7648,2.2814,0.5166,0.3393,1.0153,0.6761,A
476,0.5005,1.2,1,0.36703,0.27527,0.5422,476,2.27725,0.186,0.09176,0.59225,5,2D1U,1.0,True,0.344,56,True,left,-0.16683,0.2862,1.0539,0.7677,1.5948,2.1022,0.5075,A
477,0.5005,0.1,1,0.45045,0.30864,0.53386,477,2.11043,-0.366,-0.18351,0.31698,5,2U1D,2.0,True,0.125,58,True,right,0.25025,0.4306,0.7805,0.3498,1.172,1.9553,0.7832,A
478,0.5005,0.1,2,0.42542,0.23356,0.76743,478,2.51916,0.186,0.09176,0.59225,5,2D1U,2.0,True,0.284,56,True,right,0.0,1.7228,2.2977,0.5748,0.4067,0.9399,0.5332,A
479,0.5005,0.1,1,0.21688,0.36703,0.81748,479,2.47746,0.15,0.07507,0.57557,5,2D1U,1.0,True,0.251,56,False,left,-0.16683,0.2023,0.811,0.6086,1.6945,2.0607,0.3662,A
480,0.5005,1.2,1,0.25025,0.37537,0.75908,480,2.21886,-0.33,-0.16683,0.33366,5,2U1D,2.0,True,0.388,59,True,right,0.25025,0.1628,0.6718,0.509,1.2219,2.1466,0.9247,A
481,0.5005,1.2,1,0.4004,0.32532,0.41708,481,2.21887,0.15,0.07507,0.57557,5,2D1U,2.0,False,0.394,56,False,right,0.0,0.3173,1.0678,0.7505,1.401,2.0757,0.6747,A
482,0.5005,1.2,2,0.4421,0.36703,0.85918,482,2.76106,0.186,0.09176,0.59225,5,2D1U,1.0,False,0.224,57,True,left,-0.16683,1.8903,2.3901,0.4998,0.4393,0.9487,0.5094,A
483,0.5005,0.1,1,0.35869,0.4004,0.56723,483,2.16048,-0.33,-0.16683,0.33366,5,2U1D,2.0,True,0.113,59,True,right,0.25025,0.3381,0.7048,0.3667,1.1302,1.9131,0.7829,A
484,0.5005,0.1,2,0.34201,0.37537,0.8425,484,2.66932,0.222,0.10844,0.60894,5,2D1U,2.0,True,0.253,57,False,right,0.0,1.7199,2.3118,0.592,0.3277,0.8605,0.5327,A
485,0.5005,0.1,1,0.34201,0.45045,0.81748,485,2.46079,-0.294,-0.15015,0.35035,5,2U1D,2.0,True,0.174,59,False,right,-0.16683,0.3281,0.7102,0.382,1.5939,1.9616,0.3677,A
486,0.5005,1.2,1,0.20854,0.31698,0.57557,486,1.95194,-0.294,-0.15015,0.35035,5,2U1D,1.0,False,0.11,59,False,left,0.25025,0.123,0.6469,0.5239,1.0154,1.9394,0.924,A
487,0.5005,1.2,1,0.32532,0.41708,0.77577,487,2.62761,0.222,0.10844,0.60894,5,2D1U,2.0,False,0.434,57,False,right,0.0,0.2437,1.0272,0.7835,1.7191,2.3932,0.6741,A
488,0.5005,1.2,1,0.31698,0.34201,0.66733,488,2.16048,-0.33,-0.16683,0.33366,5,2U1D,1.0,False,0.376,60,True,left,-0.16683,0.2285,0.738,0.5094,1.4041,1.9126,0.5085,A
489,0.5005,0.1,1,0.35869,0.35869,0.6423,489,2.4858,0.258,0.12512,0.62562,5,2D1U,1.0,True,0.109,57,False,left,0.25025,0.3391,0.9963,0.6571,1.4964,2.2805,0.7842,A
490,0.5005,0.1,1,0.25859,0.22522,0.76743,490,2.37736,0.258,0.12512,0.62562,5,2D1U,1.0,True,0.278,57,False,left,0.0,0.2452,0.9037,0.6585,1.6532,2.1865,0.5333,A
491,0.5005,0.1,2,0.39205,0.38371,0.78411,491,2.66931,0.222,0.10844,0.60894,5,2D1U,2.0,True,0.114,58,True,right,-0.16683,1.6248,2.2161,0.5912,0.4582,0.8245,0.3663,A
492,0.5005,1.2,2,0.21688,0.29196,0.72572,492,2.05204,-0.366,-0.18351,0.31698,5,2U1D,1.0,True,0.429,60,False,left,0.25025,1.7452,1.9704,0.2251,0.0128,0.9371,0.9243,A
493,0.5005,1.2,1,0.4421,0.4004,0.41708,493,2.07706,-0.366,-0.18351,0.31698,5,2U1D,2.0,True,0.458,60,False,right,0.0,0.3563,0.8484,0.4921,1.1819,1.8568,0.6749,A
494,0.5005,1.2,1,0.24191,0.25025,0.78411,494,2.38571,0.222,0.10844,0.60894,5,2D1U,2.0,False,0.261,58,True,right,-0.16683,0.1555,0.9382,0.7827,1.7213,2.2302,0.5089,A
495,0.5005,0.1,2,0.28361,0.43376,0.6423,495,2.19383,-0.33,-0.16683,0.33366,5,2U1D,2.0,False,0.301,61,True,right,0.25025,1.5797,1.8969,0.3172,0.1376,0.9215,0.7839,A
496,0.5005,0.1,2,0.4421,0.41708,0.66733,496,2.34399,-0.366,-0.18351,0.31698,5,2U1D,1.0,True,0.318,62,True,left,0.0,1.6486,1.9468,0.2982,0.4304,0.964,0.5336,A
497,0.5005,0.1,2,0.37537,0.45045,0.71738,497,2.66932,0.258,0.12512,0.62562,5,2D1U,2.0,True,0.223,59,True,right,-0.16683,1.5382,2.1459,0.6078,0.4377,0.8044,0.3668,A
498,0.5005,1.2,2,0.2002,0.25025,0.7424,498,2.01033,-0.366,-0.18351,0.31698,5,2U1D,2.0,False,1.624,62,True,right,0.25025,1.7383,1.9626,0.2244,999,0.9133,-998.0867,A
499,0.5005,1.2,1,0.22522,0.32532,0.85918,499,2.21052,-0.402,-0.2002,0.3003,5,2U1D,2.0,True,0.366,62,False,right,0.0,0.1432,0.6188,0.4755,1.3935,2.0688,0.6752,A
500,0.5005,1.2,2,0.39205,0.34201,0.87587,500,2.73605,0.258,0.12512,0.62562,5,2D1U,2.0,True,0.378,59,True,right,-0.16683,1.8602,2.3934,0.5332,0.3932,0.9016,0.5083,A
501,0.5005,0.1,2,0.27527,0.28361,0.77577,501,2.44409,0.222,0.10844,0.60894,5,2D1U,2.0,True,0.25,60,True,right,0.25025,1.7052,2.2974,0.5922,0.1313,0.9139,0.7826,A
502,0.5005,0.1,1,0.24191,0.35035,0.70069,502,2.09375,-0.402,-0.2002,0.3003,5,2U1D,2.0,True,0.575,62,False,right,0.0,0.2221,0.5554,0.3333,1.2383,1.7722,0.5339,A
503,0.5005,0.1,1,0.4421,0.35035,0.57557,503,2.47746,0.222,0.10844,0.60894,5,2D1U,2.0,False,0.296,60,True,right,-0.16683,0.4236,1.0658,0.6422,1.7073,2.0744,0.3671,A
504,0.5005,1.2,2,0.36703,0.35869,0.45879,504,2.31063,0.258,0.12512,0.62562,5,2D1U,2.0,True,0.566,61,True,right,0.25025,1.6203,2.1538,0.5335,0.1546,1.0788,0.9242,A
505,0.5005,1.2,1,0.29196,0.4421,0.40874,505,1.96028,-0.366,-0.18351,0.31698,5,2U1D,2.0,True,0.342,63,True,right,0.0,0.2079,0.7,0.4921,1.0245,1.7001,0.6756,A
506,0.5005,1.2,1,0.24191,0.24191,0.83416,506,2.13546,-0.366,-0.18351,0.31698,5,2U1D,1.0,False,0.428,63,True,left,-0.16683,0.1612,0.6527,0.4915,1.4864,1.9947,0.5083,A
507,0.5005,0.1,1,0.28361,0.3003,0.60059,507,2.31062,0.258,0.12512,0.62562,5,2D1U,1.0,True,0.111,61,True,left,0.25025,0.2645,0.9232,0.6586,1.3814,2.1651,0.7837,A
508,0.5005,0.1,2,0.35035,0.25025,0.50884,508,1.91024,-0.402,-0.2002,0.3003,5,2U1D,1.0,True,0.375,64,True,left,0.0,1.3886,1.6721,0.2835,0.3312,0.8642,0.5329,A
509,0.5005,0.1,2,0.32532,0.42542,0.58391,509,2.44409,0.222,0.10844,0.60894,5,2D1U,1.0,False,0.668,62,True,left,-0.16683,1.361,1.9526,0.5916,0.394,0.7613,0.3673,A
510,0.5005,1.2,2,0.40874,0.39205,0.65899,510,2.5859,0.258,0.12512,0.62562,5,2D1U,1.0,False,0.3,63,True,left,0.25025,1.8674,2.4008,0.5333,0.2002,1.1252,0.925,A
511,0.5005,1.2,1,0.25025,0.25025,0.60894,511,1.91024,-0.402,-0.2002,0.3003,5,2U1D,2.0,True,0.225,64,True,right,0.0,0.1691,0.6436,0.4745,1.1688,1.844,0.6752,A
512,0.5005,1.2,2,0.32532,0.43376,0.5422,512,2.11876,-0.366,-0.18351,0.31698,5,2U1D,1.0,True,0.276,65,True,left,-0.16683,1.4573,1.6839,0.2266,0.3248,0.8332,0.5084,A
513,0.5005,0.1,1,0.21688,0.37537,0.76743,513,2.51082,0.294,0.15015,0.65064,5,2D1U,1.0,True,0.225,63,False,left,0.25025,0.1977,0.8804,0.6827,1.5064,2.2885,0.7821,A
514,0.5005,0.1,1,0.25859,0.4421,0.59225,514,2.44408,0.294,0.15015,0.65064,5,2D1U,1.0,True,0.476,63,False,left,0.0,0.2394,0.9227,0.6833,1.4969,2.0312,0.5343,A
515,0.5005,0.1,2,0.29196,0.22522,0.71738,515,2.36068,0.258,0.12512,0.62562,5,2D1U,1.0,False,0.276,64,True,left,-0.16683,1.4541,2.0629,0.6087,0.3544,0.7212,0.3668,A
516,0.5005,1.2,2,0.4004,0.38371,0.89255,516,2.49414,-0.366,-0.18351,0.31698,5,2U1D,1.0,True,0.369,65,True,left,0.25025,2.0944,2.3194,0.225,0.1941,1.1191,0.925,A
517,0.5005,1.2,1,0.43376,0.25859,0.87587,517,2.71936,0.294,0.15015,0.65064,5,2D1U,2.0,False,0.44,65,True,right,0.0,0.3526,1.1785,0.8259,1.9702,2.6447,0.6745,A
518,0.5005,1.2,2,0.26693,0.28361,0.65064,518,2.36901,0.33,0.16683,0.66733,5,2D1U,1.0,False,0.241,65,False,left,-0.16683,1.5116,2.0862,0.5746,0.2695,0.778,0.5085,A
519,0.5005,0.1,2,0.27527,0.38371,0.79245,519,2.28559,-0.33,-0.16683,0.33366,5,2U1D,1.0,True,0.272,65,False,left,0.25025,1.7227,2.0391,0.3164,0.131,0.9144,0.7834,A
520,0.5005,0.1,1,0.35035,0.34201,0.51718,520,2.0437,-0.33,-0.16683,0.33366,5,2U1D,2.0,True,0.11,65,False,right,0.0,0.3382,0.7042,0.3659,1.2051,1.7377,0.5326,A
521,0.5005,0.1,2,0.34201,0.43376,0.46713,521,2.42741,0.366,0.18351,0.68401,5,2D1U,2.0,True,0.156,65,False,right,-0.16683,1.2617,1.928,0.6664,0.4116,0.7785,0.3669,A
522,0.5005,1.2,2,0.35035,0.41708,0.89255,522,2.51083,-0.294,-0.15015,0.35035,5,2U1D,1.0,True,0.299,65,False,left,0.25025,2.0396,2.2979,0.2583,0.1402,1.0647,0.9246,A
523,0.5005,1.2,2,0.39205,0.40874,0.45879,523,2.11043,-0.294,-0.15015,0.35035,5,2U1D,1.0,True,0.285,65,False,left,0.0,1.5235,1.7823,0.2588,0.308,0.9812,0.6733,A
524,0.5005,1.2,1,0.21688,0.41708,0.5422,524,2.36067,0.366,0.18351,0.68401,5,2D1U,1.0,True,0.267,65,False,left,-0.16683,0.1311,0.9907,0.8596,1.5323,2.0407,0.5084,A
525,0.5005,0.1,1,0.23356,0.43376,0.85084,525,2.38569,-0.258,-0.12512,0.36703,5,2U1D,2.0,True,0.251,65,False,right,0.25025,0.2194,0.6192,0.3998,1.3269,2.1103,0.7834,A
526,0.5005,0.1,1,0.38371,0.25025,0.60059,526,2.40238,0.33,0.16683,0.66733,5,2D1U,1.0,True,0.258,66,True,left,0.0,0.3662,1.0662,0.7,1.6499,2.1828,0.533,A
527,0.5005,0.1,1,0.33366,0.4004,0.58391,527,2.4858,0.33,0.16683,0.66733,5,2D1U,1.0,True,0.253,66,True,left,-0.16683,0.3178,1.0176,0.6998,1.67,2.0346,0.3646,A
528,0.5005,1.2,1,0.21688,0.39205,0.5422,528,2.01866,-0.258,-0.12512,0.36703,5,2U1D,2.0,True,0.285,65,False,right,0.25025,0.135,0.6766,0.5416,1.0096,1.9351,0.9255,A
529,0.5005,1.2,1,0.25859,0.32532,0.45879,529,2.19384,0.294,0.15015,0.65064,5,2D1U,1.0,True,0.305,66,False,left,0.0,0.1745,0.9998,0.8253,1.3749,2.0491,0.6742,A
530,0.5005,1.2,2,0.27527,0.2002,0.62562,530,1.99364,-0.222,-0.10844,0.39205,5,2U1D,1.0,True,0.303,65,False,left,-0.16683,1.4952,1.7945,0.2993,0.2781,0.7866,0.5085,A
531,0.5005,0.1,1,0.41708,0.36703,0.51718,531,2.19384,-0.222,-0.10844,0.39205,5,2U1D,1.0,False,0.113,65,False,left,0.25025,0.3952,0.8196,0.4244,1.1947,1.9777,0.7829,A
532,0.5005,0.1,1,0.42542,0.25025,0.80913,532,2.63594,0.294,0.15015,0.65064,5,2D1U,2.0,False,0.313,66,False,right,0.0,0.4052,1.0888,0.6836,1.8801,2.4138,0.5338,A
533,0.5005,0.1,2,0.2002,0.39205,0.43376,533,1.89354,-0.258,-0.12512,0.36703,5,2U1D,1.0,True,0.116,66,True,left,-0.16683,1.0807,1.4306,0.3499,0.264,0.6306,0.3666,A
534,0.5005,1.2,1,0.24191,0.4421,0.41708,534,2.26892,0.33,0.16683,0.66733,5,2D1U,1.0,True,0.11,67,True,left,0.25025,0.1596,1.001,0.8414,1.2094,2.1347,0.9253,A
535,0.5005,1.2,2,0.26693,0.40874,0.53386,535,2.37736,0.33,0.16683,0.66733,5,2D1U,1.0,False,0.352,67,True,left,0.0,1.4712,2.0453,0.5742,0.1786,0.8539,0.6753,A
536,0.5005,1.2,1,0.22522,0.39205,0.47547,536,1.96027,-0.258,-0.12512,0.36703,5,2U1D,1.0,False,0.233,66,True,left,-0.16683,0.1382,0.6793,0.5411,1.1541,1.6625,0.5084,A
537,0.5005,0.1,2,0.30864,0.38371,0.56723,537,2.11043,-0.294,-0.15015,0.35035,5,2U1D,1.0,True,0.259,66,False,left,0.25025,1.5289,1.8618,0.3329,0.1612,0.9449,0.7837,A
538,0.5005,0.1,2,0.33366,0.3003,0.40874,538,2.22721,0.366,0.18351,0.68401,5,2D1U,2.0,True,0.271,67,False,right,0.0,1.2695,1.9364,0.6669,0.3108,0.8442,0.5334,A
539,0.5005,0.1,1,0.32532,0.37537,0.52552,539,2.41072,0.366,0.18351,0.68401,5,2D1U,1.0,True,0.21,67,False,left,-0.16683,0.3037,1.0219,0.7182,1.6124,1.9789,0.3664,A
540,0.5005,1.2,2,0.41708,0.35035,0.52552,540,2.1438,-0.294,-0.15015,0.35035,5,2U1D,1.0,True,0.333,66,False,left,0.25025,1.7436,2.0003,0.2566,0.2098,1.1357,0.9259,A
541,0.5005,1.2,2,0.4004,0.37537,0.83416,541,2.47746,-0.258,-0.12512,0.36703,5,2U1D,1.0,True,0.326,67,True,left,0.0,1.9123,2.1882,0.2758,0.3211,0.9961,0.6749,A
542,0.5005,1.2,1,0.21688,0.3003,0.86753,542,2.55254,0.33,0.16683,0.66733,5,2D1U,1.0,True,0.378,68,True,left,-0.16683,0.1305,0.9716,0.8411,1.8396,2.3473,0.5078,A
543,0.5005,0.1,2,0.24191,0.21688,0.85918,543,2.1855,-0.258,-0.12512,0.36703,5,2U1D,1.0,True,0.327,67,True,left,0.25025,1.7584,2.1082,0.3497,0.1012,0.8838,0.7825,A
544,0.5005,0.1,2,0.24191,0.3003,0.62562,544,2.06038,-0.222,-0.10844,0.39205,5,2U1D,1.0,True,0.133,67,False,left,0.0,1.3968,1.7719,0.3752,0.2224,0.7569,0.5345,A
545,0.5005,0.1,1,0.2002,0.4004,0.53386,545,2.02701,-0.222,-0.10844,0.39205,5,2U1D,1.0,False,0.242,67,False,left,-0.16683,0.1859,0.6111,0.4252,1.2104,1.5781,0.3677,A
546,0.5005,1.2,2,0.20854,0.21688,0.8425,546,2.13545,-0.258,-0.12512,0.36703,5,2U1D,1.0,True,0.434,68,True,left,0.25025,1.8517,2.1269,0.2752,0.0025,0.9267,0.9241,A
547,0.5005,1.2,2,0.28361,0.43376,0.77577,547,2.66097,0.33,0.16683,0.66733,5,2D1U,1.0,False,0.241,68,True,left,0.0,1.7352,2.311,0.5757,0.2022,0.8764,0.6742,A
548,0.5005,1.2,2,0.4004,0.30864,0.49215,548,2.06872,-0.258,-0.12512,0.36703,5,2U1D,1.0,True,0.346,68,True,left,-0.16683,1.4815,1.7574,0.2759,0.3991,0.9074,0.5083,A
549,0.5005,0.1,2,0.36703,0.35869,0.72572,549,2.63595,0.366,0.18351,0.68401,5,2D1U,1.0,False,0.337,69,True,left,0.25025,1.7457,2.4134,0.6676,0.2216,1.0039,0.7823,A
550,0.5005,0.1,2,0.23356,0.22522,0.50884,550,2.16881,0.402,0.2002,0.70069,5,2D1U,2.0,True,0.139,69,False,right,0.0,1.2745,1.9581,0.6836,0.2156,0.7495,0.5339,A
551,0.5005,0.1,1,0.20854,0.39205,0.59225,551,2.39403,0.402,0.2002,0.70069,5,2D1U,1.0,True,0.281,69,False,left,-0.16683,0.195,0.9284,0.7334,1.5866,1.9531,0.3665,A
552,0.5005,1.2,2,0.35869,0.37537,0.47547,552,2.39404,0.366,0.18351,0.68401,5,2D1U,1.0,False,0.271,70,True,left,0.25025,1.6351,2.2262,0.5911,0.1507,1.0765,0.9258,A
553,0.5005,1.2,2,0.38371,0.21688,0.79245,553,2.28559,-0.222,-0.10844,0.39205,5,2U1D,1.0,True,0.346,69,True,left,0.0,1.8471,2.1468,0.2997,0.2969,0.9722,0.6753,A
554,0.5005,1.2,2,0.25859,0.26693,0.58391,554,2.00198,-0.222,-0.10844,0.39205,5,2U1D,1.0,True,0.233,69,True,left,-0.16683,1.4312,1.7305,0.2993,0.2556,0.7642,0.5085,A
555,0.5005,0.1,2,0.42542,0.39205,0.59225,555,2.61091,0.402,0.2002,0.70069,5,2D1U,1.0,False,0.199,71,True,left,0.25025,1.6773,2.3601,0.6827,0.2853,1.0699,0.7847,A
556,0.5005,0.1,2,0.21688,0.25025,0.75908,556,2.44409,0.438,0.21688,0.71738,5,2D1U,2.0,True,0.276,71,False,right,0.0,1.5123,2.2121,0.6999,0.2038,0.7369,0.5331,A
557,0.5005,0.1,1,0.31698,0.35035,0.69235,557,2.26892,-0.186,-0.09176,0.40874,5,2U1D,1.0,False,0.233,69,False,left,-0.16683,0.2956,0.7374,0.4418,1.4961,1.8628,0.3667,A
558,0.5005,1.2,2,0.38371,0.35035,0.70069,558,2.3273,-0.222,-0.10844,0.39205,5,2U1D,1.0,True,0.394,70,True,left,0.25025,1.8864,2.1861,0.2997,0.1779,1.1024,0.9245,A
559,0.5005,1.2,1,0.3003,0.21688,0.89255,559,2.62761,0.438,0.21688,0.71738,5,2D1U,1.0,True,0.275,71,False,left,0.0,0.2153,1.1079,0.8926,1.9153,2.5904,0.6751,A
560,0.5005,1.2,2,0.4004,0.24191,0.63396,560,2.47746,0.402,0.2002,0.70069,5,2D1U,2.0,True,0.251,72,True,right,-0.16683,1.6289,2.2368,0.6079,0.4037,0.9124,0.5087,A
561,0.5005,0.1,2,0.24191,0.26693,0.60894,561,2.31897,0.402,0.2002,0.70069,5,2D1U,1.0,False,0.3,72,True,left,0.25025,1.5103,2.1931,0.6827,0.102,0.8843,0.7823,A
562,0.5005,0.1,1,0.3003,0.42542,0.48381,562,2.10208,-0.222,-0.10844,0.39205,5,2U1D,1.0,False,0.217,70,True,left,0.0,0.2854,0.71,0.4246,1.1759,1.7103,0.5344,A
563,0.5005,0.1,2,0.25025,0.34201,0.40874,563,2.21888,0.438,0.21688,0.71738,5,2D1U,2.0,True,0.273,73,True,right,-0.16683,1.1049,1.8048,0.6999,0.3123,0.68,0.3678,A
564,0.5005,1.2,1,0.32532,0.41708,0.5422,564,2.15213,-0.258,-0.12512,0.36703,5,2U1D,2.0,True,0.292,70,False,right,0.25025,0.2454,0.787,0.5416,1.1197,2.0448,0.9251,A
565,0.5005,1.2,1,0.34201,0.4421,0.4421,565,2.09374,-0.258,-0.12512,0.36703,5,2U1D,2.0,True,0.223,70,False,right,0.0,0.2557,0.7984,0.5427,1.1567,1.8317,0.675,A
566,0.5005,1.2,2,0.22522,0.36703,0.89255,566,2.70268,0.438,0.21688,0.71738,5,2D1U,2.0,True,0.272,73,True,right,-0.16683,1.7066,2.3317,0.6251,0.2242,0.7319,0.5077,A
567,0.5005,0.1,2,0.42542,0.26693,0.76743,567,2.35233,-0.222,-0.10844,0.39205,5,2U1D,1.0,True,0.296,71,True,left,0.25025,1.8476,2.2226,0.375,0.2812,1.0642,0.783,A
568,0.5005,0.1,2,0.43376,0.42542,0.76743,568,2.51916,-0.222,-0.10844,0.39205,5,2U1D,2.0,False,0.165,71,True,right,0.0,1.7288,2.1044,0.3756,0.4127,0.9458,0.5331,A
569,0.5005,0.1,1,0.33366,0.25859,0.45045,569,2.24389,0.402,0.2002,0.70069,5,2D1U,2.0,False,0.237,74,True,right,-0.16683,0.3216,1.0545,0.7328,1.5718,1.9389,0.3671,A
570,0.5005,1.2,1,0.37537,0.25859,0.40874,570,2.26058,0.438,0.21688,0.71738,5,2D1U,1.0,True,0.442,75,True,left,0.25025,0.2902,1.1829,0.8927,1.3817,999,997.6183,A
571,0.5005,1.2,1,0.2002,0.2002,0.88421,571,2.15214,-0.258,-0.12512,0.36703,5,2U1D,1.0,False,0.35,72,True,left,0.0,0.1183,0.6598,0.5415,1.4611,2.1347,0.6737,A
572,0.5005,1.2,2,0.33366,0.4004,0.6423,572,2.22721,-0.294,-0.15015,0.35035,5,2U1D,1.0,True,0.262,72,False,left,-0.16683,1.5656,1.823,0.2574,0.331,0.8401,0.5091,A
573,0.5005,0.1,2,0.20854,0.24191,0.61728,573,2.28561,0.438,0.21688,0.71738,5,2D1U,2.0,True,0.283,75,True,right,0.25025,1.4801,2.1802,0.7001,0.0638,0.8468,0.7831,A
574,0.5005,0.1,1,0.30864,0.26693,0.72572,574,2.50248,0.402,0.2002,0.70069,5,2D1U,2.0,False,0.24,76,True,right,0.0,0.2882,1.0211,0.733,1.729,2.2629,0.5339,A
575,0.5005,0.1,2,0.38371,0.37537,0.48381,575,2.46077,0.438,0.21688,0.71738,5,2D1U,1.0,False,0.112,77,True,left,-0.16683,1.3125,2.0125,0.7001,0.448,0.8126,0.3646,A
576,0.5005,1.2,1,0.23356,0.36703,0.47547,576,1.92691,-0.294,-0.15015,0.35035,5,2U1D,1.0,False,0.113,72,False,left,0.25025,0.1459,0.6709,0.5251,0.937,1.8624,0.9254,A
577,0.5005,1.2,2,0.41708,0.36703,0.4421,577,2.06037,-0.33,-0.16683,0.33366,5,2U1D,1.0,True,0.285,72,False,left,0.0,1.5317,1.7743,0.2426,0.3312,1.0071,0.6759,A
578,0.5005,1.2,2,0.4004,0.34201,0.81748,578,2.39405,-0.33,-0.16683,0.33366,5,2U1D,1.0,True,0.321,72,False,left,-0.16683,1.8119,2.0541,0.2422,0.4033,0.9122,0.5088,A
579,0.5005,0.1,2,0.29196,0.42542,0.87587,579,2.82781,0.474,0.23356,0.73406,5,2D1U,2.0,True,0.269,77,False,right,0.25025,1.8221,2.5393,0.7172,0.1479,0.9309,0.783,A
580,0.5005,0.1,1,0.22522,0.38371,0.48381,580,1.94359,-0.294,-0.15015,0.35035,5,2U1D,1.0,False,0.272,73,True,left,0.0,0.2118,0.5952,0.3834,1.0615,1.5951,0.5336,A
581,0.5005,0.1,1,0.27527,0.4004,0.8425,581,2.75273,0.474,0.23356,0.73406,5,2D1U,1.0,True,0.301,77,False,left,-0.16683,0.255,1.0219,0.7668,1.9297,2.2969,0.3672,A
582,0.5005,1.2,2,0.22522,0.25859,0.4421,582,2.14379,0.438,0.21688,0.71738,5,2D1U,2.0,True,0.602,78,True,right,0.25025,1.4687,2.0939,0.6252,0.019,0.9439,0.9249,A
583,0.5005,1.2,1,0.35869,0.2002,0.41708,583,1.81013,-0.33,-0.16683,0.33366,5,2U1D,2.0,True,0.359,74,True,right,0.0,0.2774,0.7857,0.5083,1.119,1.795,0.676,A
584,0.5005,1.2,2,0.32532,0.4004,0.49215,584,2.05203,-0.33,-0.16683,0.33366,5,2U1D,1.0,True,0.248,74,True,left,-0.16683,1.4061,1.6471,0.241,0.3221,0.8297,0.5075,A
585,0.5005,0.1,2,0.35869,0.4421,0.52552,585,2.17716,-0.294,-0.15015,0.35035,5,2U1D,1.0,True,0.298,75,True,left,0.25025,1.539,1.8731,0.3341,0.214,0.9972,0.7831,A
586,0.5005,0.1,2,0.35869,0.35035,0.60894,586,2.53586,0.438,0.21688,0.71738,5,2D1U,1.0,False,0.26,78,True,left,0.0,1.5011,2.201,0.7,0.3426,0.8764,0.5338,A
587,0.5005,0.1,1,0.33366,0.4421,0.5422,587,2.55252,0.474,0.23356,0.73406,5,2D1U,1.0,True,0.146,79,True,left,-0.16683,0.3179,1.0843,0.7665,1.6927,2.0582,0.3656,A
588,0.5005,1.2,1,0.29196,0.33366,0.57557,588,2.05204,-0.294,-0.15015,0.35035,5,2U1D,2.0,True,0.573,75,True,right,0.25025,0.21,0.735,0.525,1.1013,2.0262,0.9249,A
589,0.5005,1.2,2,0.38371,0.4421,0.73406,589,2.79443,0.474,0.23356,0.73406,5,2D1U,2.0,True,0.249,79,True,right,0.0,1.7911,2.4325,0.6414,0.2988,0.9748,0.676,A
590,0.5005,1.2,2,0.35869,0.4004,0.60894,590,2.58591,0.438,0.21688,0.71738,5,2D1U,1.0,False,0.251,80,True,left,-0.16683,1.5611,2.1853,0.6242,0.3608,0.8692,0.5084,A
591,0.5005,0.1,1,0.43376,0.37537,0.73406,591,2.41072,-0.258,-0.12512,0.36703,5,2U1D,2.0,True,0.288,75,False,right,0.25025,0.4168,0.8168,0.4,1.409,2.1917,0.7827,A
592,0.5005,0.1,2,0.29196,0.41708,0.5005,592,2.4441,0.474,0.23356,0.73406,5,2D1U,2.0,True,0.457,81,True,right,0.0,1.3274,2.0442,0.7169,0.2772,0.8106,0.5334,A
593,0.5005,0.1,2,0.32532,0.23356,0.72572,593,2.51916,0.474,0.23356,0.73406,5,2D1U,2.0,True,0.298,81,True,right,-0.16683,1.4979,2.2143,0.7164,0.3891,0.7558,0.3667,A
594,0.5005,1.2,1,0.39205,0.24191,0.86753,594,2.71937,0.438,0.21688,0.71738,5,2D1U,2.0,False,0.311,82,True,right,0.25025,0.3097,1.2012,0.8915,1.8584,999,997.1416,A
595,0.5005,1.2,1,0.36703,0.21688,0.58391,595,2.03535,-0.258,-0.12512,0.36703,5,2U1D,2.0,True,0.224,75,False,right,0.0,0.2863,0.8283,0.542,1.3283,2.0032,0.675,A
596,0.5005,1.2,2,0.4004,0.31698,0.8425,596,2.45243,-0.222,-0.10844,0.39205,5,2U1D,1.0,True,0.306,75,False,left,-0.16683,1.8306,2.1304,0.2998,0.3975,0.9053,0.5078,A
597,0.5005,0.1,2,0.37537,0.32532,0.47547,597,2.41072,0.474,0.23356,0.73406,5,2D1U,2.0,True,0.113,83,True,right,0.25025,1.5122,2.2281,0.7159,0.2364,1.021,0.7845,A
598,0.5005,0.1,2,0.41708,0.20854,0.55054,598,2.06871,-0.222,-0.10844,0.39205,5,2U1D,1.0,True,0.344,75,False,left,0.0,1.4966,1.8723,0.3757,0.3972,0.9307,0.5335,A
599,0.5005,0.1,2,0.20854,0.37537,0.67567,599,2.16882,-0.186,-0.09176,0.40874,5,2U1D,1.0,True,0.233,75,False,left,-0.16683,1.337,1.7279,0.391,0.2788,0.6455,0.3666,A
600,0.5005,1.2,1,0.28361,0.38371,0.4421,600,2.01866,-0.186,-0.09176,0.40874,5,2U1D,2.0,True,0.281,75,False,right,0.25025,0.1977,0.7813,0.5836,1.0138,1.9398,0.926,A
601,0.5005,1.2,2,0.33366,0.4004,0.60059,601,2.56921,0.474,0.23356,0.73406,5,2D1U,2.0,True,0.221,83,True,right,0.0,1.6056,2.2475,0.6419,0.2469,0.9217,0.6747,A
602,0.5005,1.2,1,0.42542,0.26693,0.87587,602,2.49414,-0.15,-0.07507,0.42542,5,2U1D,2.0,True,0.29,75,False,right,-0.16683,0.3432,0.9437,0.6005,1.8183,2.3268,0.5085,A
603,0.5005,0.1,2,0.32532,0.41708,0.73406,603,2.40238,-0.15,-0.07507,0.42542,5,2U1D,1.0,True,0.233,75,False,left,0.25025,1.7145,2.1229,0.4084,0.1806,0.9643,0.7837,A
604,0.5005,0.1,1,0.29196,0.38371,0.53386,604,2.42741,0.438,0.21688,0.71738,5,2D1U,1.0,True,0.193,84,True,left,0.0,0.2754,1.0268,0.7514,1.543,2.0762,0.5332,A
605,0.5005,0.1,2,0.26693,0.4421,0.72572,605,2.37735,-0.114,-0.05839,0.4421,5,2U1D,1.0,True,0.262,75,False,left,-0.16683,1.4407,1.8649,0.4242,0.332,0.6989,0.3669,A
606,0.5005,1.2,2,0.20854,0.35869,0.59225,606,2.37736,0.438,0.21688,0.71738,5,2D1U,1.0,False,0.231,84,True,left,0.25025,1.597,2.2223,0.6253,0.0032,0.922,0.9188,A
607,0.5005,1.2,2,0.42542,0.29196,0.85084,607,2.80278,0.474,0.23356,0.73406,5,2D1U,1.0,False,0.369,85,True,left,0.0,1.9475,2.5889,0.6414,0.3385,1.014,0.6755,A
608,0.5005,1.2,2,0.29196,0.40874,0.75074,608,2.71102,0.51,0.25859,0.75908,5,2D1U,2.0,True,0.297,85,False,right,-0.16683,1.6317,2.2983,0.6666,0.2898,0.7983,0.5086,A
609,0.5005,0.1,2,0.35035,0.36703,0.48381,609,2.14379,-0.114,-0.05839,0.4421,5,2U1D,1.0,True,0.248,75,False,left,0.25025,1.4923,1.9174,0.425,0.2087,0.9924,0.7837,A
610,0.5005,0.1,2,0.25859,0.40874,0.77577,610,2.40239,-0.078,-0.04171,0.45879,5,2U1D,1.0,True,0.262,75,False,left,0.0,1.5695,2.0109,0.4414,0.2445,0.7779,0.5334,A
611,0.5005,0.1,1,0.32532,0.4421,0.81748,611,2.54419,-0.078,-0.04171,0.45879,5,2U1D,1.0,False,0.113,75,False,left,-0.16683,0.3066,0.7993,0.4927,1.6819,2.0484,0.3665,A
