,standardDur,audNoise,order,preDur,postDur,isiDur,trial_num,totalDur,delta_dur_percents,deltaDurS,testDurS,intensities,current_stair,responses,is_correct,response_rts,stair_num_reversal,stair_is_reversal,response_keys,conflictDur,recordedOnsetVisualTest,recordedOffsetVisualTest,recordedDurVisualTest,recordedOnsetVisualStandard,recordedOffsetVisualStandard,recordedDurVisualStandard,modalityCue
0,0.49642,1.2,2,0.38886,0.38886,0.55434,0,2.00223,-0.65,-0.32268,0.17375,5,2U1D,1.0,True,1.439,0,False,left,0.24821,1.7429,1.8348,0.0918,0.1846,1.1006,0.916,A
1,0.49642,0.1,1,0.25649,0.41369,0.76946,1,2.08499,-0.7,-0.3475,0.14893,5,lapse_rate,2.0,True,0.283,0,False,right,0.0,0.1896,0.4811,0.2915,1.1896,1.8314,0.6418,A
2,0.49642,1.2,1,0.28131,0.29785,0.86047,2,2.78824,0.7,0.3475,0.85219,5,lapse_rate,1.0,True,2.284,0,False,left,-0.16547,0.1992,1.2237,1.0246,2.0905,2.5906,0.5001,A
3,0.49642,1.2,1,0.41369,0.43023,0.76118,3,2.92889,0.65,0.32268,0.82737,5,2D1U,2.0,False,0.25,0,False,right,0.24821,0.3315,1.3314,0.9999,1.8897,2.8064,0.9167,A
4,0.49642,1.2,2,0.3144,0.23994,0.52952,4,1.75403,-0.65,-0.32268,0.17375,5,2U1D,1.0,True,1.189,0,False,left,0.0,1.5154,1.607,0.0916,0.2321,0.8989,0.6668,A
5,0.49642,0.1,1,0.28131,0.27303,0.57089,5,2.49866,0.75,0.37232,0.87701,5,2D1U,1.0,True,1.775,0,False,left,-0.16547,0.2185,1.2433,1.0247,1.8353,2.3101,0.4748,A
6,0.49642,0.1,1,0.29785,0.20684,0.85219,6,2.00223,-0.7,-0.3475,0.14893,5,lapse_rate,2.0,True,0.49,0,False,right,0.24821,0.2291,0.5209,0.2918,1.1874,999,997.8126,A
7,0.49642,0.1,2,0.23166,0.40541,0.86047,7,2.21735,-0.55,-0.27303,0.22339,5,2U1D,1.0,True,1.25,0,False,left,0.0,1.7411,1.891,0.1499,0.1656,0.8076,0.6419,A
8,0.49642,0.1,2,0.38059,0.44678,0.69499,8,2.16771,-0.7,-0.3475,0.14893,5,lapse_rate,1.0,True,1.825,0,False,left,-0.16547,1.6373,1.7128,0.0755,0.3962,0.871,0.4748,A
9,0.49642,0.1,1,0.21512,0.33922,0.67017,9,1.94432,-0.55,-0.27303,0.22339,5,2U1D,2.0,True,0.586,0,False,right,0.24821,0.1458,0.5122,0.3664,0.9956,1.8868,0.8911,A
10,0.49642,1.2,1,0.24821,0.25649,0.65362,10,2.53175,0.75,0.37232,0.87701,5,2D1U,2.0,False,0.393,0,False,right,0.0,0.1641,1.2144,1.0502,1.7891,2.4559,0.6668,A
11,0.49642,0.1,2,0.30613,0.30613,0.52952,11,2.49039,0.7,0.3475,0.85219,5,lapse_rate,1.0,False,2.925,0,False,left,-0.16547,1.3969,2.1799,0.783,0.3217,0.7973,0.4756,A
12,0.49642,1.2,2,0.43023,0.27303,0.786,12,2.91234,0.85,0.42196,0.92666,5,2D1U,2.0,True,0.209,0,False,right,0.24821,2.0159,2.8662,0.8503,0.2244,1.1405,0.9161,A
13,0.49642,1.2,2,0.35577,0.38886,0.64535,13,2.15943,-0.45,-0.22339,0.27303,5,2U1D,1.0,True,0.976,0,False,left,0.0,1.6754,1.8665,0.1911,0.2756,0.9424,0.6668,A
14,0.49642,1.2,2,0.35577,0.3475,0.79428,14,2.84616,0.7,0.3475,0.85219,5,lapse_rate,2.0,True,0.111,0,False,right,-0.16547,1.7399,2.5156,0.7758,0.3574,0.8574,0.5,A
15,0.49642,0.1,1,0.38059,0.38059,0.67017,15,2.85443,0.85,0.42196,0.92666,5,2D1U,1.0,True,0.113,0,False,left,0.24821,0.3167,1.3923,1.0756,1.8762,2.7675,0.8913,A
16,0.49642,0.1,2,0.3144,0.22339,0.60398,16,1.91122,-0.45,-0.22339,0.27303,5,2U1D,1.0,True,0.267,0,False,left,0.0,1.565,1.7655,0.2005,0.2486,0.8904,0.6418,A
17,0.49642,0.1,2,0.37232,0.37232,0.5047,17,2.59795,0.7,0.3475,0.85219,5,lapse_rate,2.0,True,0.467,0,False,right,-0.16547,1.4385,2.2217,0.7832,0.3882,0.863,0.4747,A
18,0.49642,0.1,1,0.3475,0.21512,0.77773,18,2.15945,-0.35,-0.17375,0.32268,5,2U1D,2.0,True,1.199,0,False,right,0.24821,0.2813,0.7478,0.4665,1.3392,999,997.6608,A
19,0.49642,1.2,2,0.32268,0.38886,0.69499,19,2.79651,0.79,0.39714,0.89356,5,2D1U,2.0,True,0.601,1,True,right,0.0,1.6895,2.5061,0.8167,0.2395,0.906,0.6665,A
20,0.49642,1.2,2,0.37232,0.22339,0.90184,20,2.88753,0.79,0.39714,0.89356,5,2D1U,2.0,True,0.433,1,True,right,-0.16547,1.8643,2.6786,0.8143,0.3706,0.8713,0.5007,A
21,0.49642,1.2,1,0.27303,0.32268,0.40541,21,1.82022,-0.35,-0.17375,0.32268,5,2U1D,2.0,True,0.242,0,False,right,0.24821,0.1939,0.6853,0.4913,0.886,1.8026,0.9166,A
22,0.49642,0.1,2,0.33922,0.37232,0.54607,22,1.90296,-0.7,-0.3475,0.14893,5,lapse_rate,1.0,True,0.742,0,False,left,0.0,1.5328,1.6079,0.0751,0.2745,0.9166,0.6421,A
23,0.49642,0.1,1,0.40541,0.27303,0.47988,23,2.02706,-0.25,-0.12411,0.37232,5,2U1D,2.0,True,0.309,0,False,right,-0.16547,0.3438,0.8606,0.5168,1.3606,1.8354,0.4748,A
24,0.49642,1.2,2,0.21512,0.40541,0.49642,24,1.7623,-0.7,-0.3475,0.14893,5,lapse_rate,2.0,False,1.634,0,False,right,0.24821,1.5058,1.5729,0.0671,0.0071,0.9228,0.9156,A
25,0.49642,0.1,1,0.37232,0.42196,0.64535,25,2.80479,0.73,0.36404,0.86874,5,2D1U,2.0,False,0.475,1,False,right,0.0,0.3052,1.3217,1.0165,1.9049,2.5465,0.6416,A
26,0.49642,0.1,1,0.40541,0.41369,0.71154,26,2.39938,-0.25,-0.12411,0.37232,5,2U1D,2.0,True,0.609,0,False,right,-0.16547,0.3411,0.8576,0.5165,1.5919,2.0659,0.474,A
27,0.49642,1.2,1,0.26476,0.23994,0.47988,27,2.36629,0.766,0.38059,0.88529,5,2D1U,2.0,False,0.341,2,True,right,0.24821,0.1815,1.2401,1.0587,1.5149,999,997.4851,A
28,0.49642,0.1,2,0.39714,0.28131,0.61226,28,1.93606,-0.7,-0.3475,0.14893,5,lapse_rate,2.0,False,0.649,0,False,right,0.0,1.6557,1.7307,0.0749,0.331,0.9723,0.6413,A
29,0.49642,1.2,1,0.22339,0.22339,0.43023,29,2.27527,0.802,0.39714,0.90184,5,2D1U,1.0,True,0.716,2,False,left,-0.16547,0.1396,1.2135,1.0739,1.6476,2.1476,0.5,A
30,0.49642,0.1,2,0.30613,0.22339,0.73636,30,2.61449,0.7,0.3475,0.85219,5,lapse_rate,2.0,True,0.767,0,False,right,0.24821,1.8137,2.5978,0.7841,0.1141,1.0053,0.8912,A
31,0.49642,1.2,2,0.41369,0.19857,0.83565,31,2.36629,-0.15,-0.07446,0.42196,5,2U1D,2.0,False,0.425,0,False,right,0.0,1.9226,2.2642,0.3416,0.3309,0.9975,0.6665,A
32,0.49642,0.1,2,0.33922,0.37232,0.68672,32,2.29182,-0.21,-0.10756,0.39714,5,2U1D,1.0,True,0.308,1,True,left,-0.16547,1.5946,1.9197,0.3251,0.3616,0.8366,0.475,A
33,0.49642,0.1,2,0.35577,0.3144,0.83565,33,2.90408,0.802,0.39714,0.90184,5,2D1U,2.0,True,0.134,2,False,right,0.24821,1.9678,2.8017,0.8338,0.1679,1.0601,0.8922,A
34,0.49642,1.2,2,0.22339,0.24821,0.62053,34,2.44074,0.7,0.3475,0.85219,5,lapse_rate,2.0,True,0.15,0,False,right,0.0,1.5194,2.2939,0.7745,0.1438,0.811,0.6672,A
35,0.49642,0.1,1,0.23994,0.3144,0.79428,35,2.69723,0.7,0.3475,0.85219,5,lapse_rate,1.0,True,0.401,0,False,left,-0.16547,0.1726,1.1728,1.0002,1.9896,2.4648,0.4752,A
36,0.49642,0.1,2,0.32268,0.19857,0.45505,36,1.86986,-0.21,-0.10756,0.39714,5,2U1D,2.0,False,0.633,1,True,right,0.24821,1.5474,1.8718,0.3244,0.1303,1.022,0.8918,A
37,0.49642,1.2,1,0.20684,0.30613,0.44678,37,2.34146,0.766,0.38059,0.88529,5,2D1U,2.0,False,0.267,3,True,right,0.0,0.1223,1.1807,1.0584,1.548,2.2132,0.6652,A
38,0.49642,1.2,1,0.37232,0.3144,0.81082,38,2.8958,0.802,0.39714,0.90184,5,2D1U,1.0,True,1.083,4,True,left,-0.16547,0.2939,1.3684,1.0746,2.1852,2.6856,0.5004,A
39,0.49642,0.1,1,0.41369,0.29785,0.64535,39,2.00224,-0.7,-0.3475,0.14893,5,lapse_rate,2.0,True,0.217,0,False,right,0.24821,0.3474,0.6384,0.2911,1.097,1.9887,0.8918,A
40,0.49642,1.2,1,0.44678,0.38059,0.73636,40,2.42419,-0.27,-0.13238,0.36404,5,2U1D,2.0,True,0.2,1,False,right,0.0,0.3637,0.8966,0.5329,1.5548,2.222,0.6672,A
41,0.49642,0.1,2,0.32268,0.3144,0.58743,41,2.08497,-0.27,-0.13238,0.36404,5,2U1D,2.0,False,1.791,1,False,right,-0.16547,1.476,1.7674,0.2913,0.3429,0.8183,0.4754,A
42,0.49642,0.1,2,0.41369,0.37232,0.89356,42,2.32492,-0.7,-0.3475,0.14893,5,lapse_rate,1.0,True,0.293,0,False,left,0.24821,2.0854,2.1602,0.0748,0.2268,1.1188,0.892,A
43,0.49642,0.1,2,0.30613,0.29785,0.80255,43,2.80479,0.802,0.39714,0.90184,5,2D1U,2.0,True,0.208,4,True,right,0.0,1.756,2.5895,0.8335,0.2397,0.8811,0.6415,A
44,0.49642,0.1,1,0.39714,0.37232,0.69499,44,2.29182,-0.33,-0.16547,0.33095,5,2U1D,2.0,True,1.0,1,False,right,-0.16547,0.3295,0.8045,0.4749,1.5209,1.9961,0.4752,A
45,0.49642,1.2,1,0.24821,0.28958,0.67017,45,1.85331,-0.7,-0.3475,0.14893,5,lapse_rate,2.0,True,0.489,0,False,right,0.24821,0.1647,0.4811,0.3165,0.948,1.8647,0.9167,A
46,0.49642,1.2,2,0.23994,0.33095,0.49642,46,2.44902,0.766,0.38059,0.88529,5,2D1U,2.0,True,0.5,5,True,right,0.0,1.4062,2.2144,0.8083,0.1562,0.8224,0.6663,A
47,0.49642,1.2,1,0.3475,0.26476,0.85219,47,2.84616,0.766,0.38059,0.88529,5,2D1U,2.0,False,0.734,5,True,right,-0.16547,0.2623,1.3207,1.0583,2.1794,2.6795,0.5001,A
48,0.49642,1.2,1,0.36404,0.33095,0.75291,48,2.27527,-0.33,-0.16547,0.33095,5,2U1D,2.0,True,0.526,1,False,right,0.24821,0.2791,0.7793,0.5002,1.3293,2.246,0.9167,A
49,0.49642,0.1,1,0.26476,0.43851,0.82737,49,2.17599,-0.7,-0.3475,0.14893,5,lapse_rate,2.0,True,0.725,0,False,right,0.0,0.1984,0.4891,0.2907,1.2563,1.8978,0.6415,A
50,0.49642,0.1,2,0.25649,0.41369,0.81082,50,2.33319,-0.294,-0.14893,0.35577,5,2U1D,2.0,False,0.5,2,True,right,-0.16547,1.6364,1.9199,0.2834,0.2782,0.7531,0.4749,A
51,0.49642,1.2,2,0.39714,0.33922,0.72809,51,2.1098,-0.7,-0.3475,0.14893,5,lapse_rate,1.0,True,0.584,0,False,left,0.24821,1.9262,1.993,0.0669,0.1927,1.1094,0.9167,A
52,0.49642,0.1,1,0.21512,0.26476,0.84392,52,2.72206,0.802,0.39714,0.90184,5,2D1U,1.0,True,1.009,6,True,left,0.0,0.1527,1.203,1.0503,1.9861,2.6276,0.6415,A
53,0.49642,0.1,2,0.30613,0.23994,0.52124,53,2.46557,0.802,0.39714,0.90184,5,2D1U,2.0,True,0.116,6,True,right,-0.16547,1.3874,2.2207,0.8333,0.3213,0.796,0.4746,A
54,0.49642,1.2,1,0.41369,0.28131,0.64535,54,1.9857,-0.7,-0.3475,0.14893,5,lapse_rate,2.0,True,0.208,0,False,right,0.24821,0.3313,0.6485,0.3172,1.0902,999,997.9098,A
55,0.49642,1.2,2,0.21512,0.22339,0.6288,55,1.89468,-0.33,-0.16547,0.33095,5,2U1D,1.0,True,0.383,3,True,left,0.0,1.514,1.7635,0.2495,0.1306,0.7969,0.6663,A
56,0.49642,1.2,1,0.25649,0.40541,0.56261,56,2.60622,0.766,0.38059,0.88529,5,2D1U,1.0,True,0.533,7,True,left,-0.16547,0.1737,1.2319,1.0582,1.7992,2.2984,0.4992,A
57,0.49642,0.1,1,0.38886,0.3475,0.74463,57,2.12634,-0.7,-0.3475,0.14893,5,lapse_rate,2.0,True,0.267,0,False,right,0.24821,0.323,0.6143,0.2913,1.1725,2.0641,0.8917,A
58,0.49642,1.2,2,0.37232,0.35577,0.60398,58,2.15944,-0.33,-0.16547,0.33095,5,2U1D,1.0,True,1.775,3,True,left,0.0,1.6522,1.9012,0.249,0.2939,0.9605,0.6667,A
59,0.49642,1.2,2,0.21512,0.43851,0.44678,59,1.74576,-0.7,-0.3475,0.14893,5,lapse_rate,2.0,False,2.309,0,False,right,-0.16547,1.2533,1.3201,0.0668,0.2202,0.7192,0.499,A
60,0.49642,0.1,2,0.23994,0.22339,0.68672,60,2.00224,-0.294,-0.14893,0.35577,5,2U1D,1.0,True,1.034,4,True,left,0.24821,1.6972,1.9801,0.283,0.0463,0.9382,0.8919,A
61,0.49642,0.1,1,0.41369,0.21512,0.46333,61,2.47385,0.766,0.38059,0.88529,5,2D1U,1.0,True,2.151,7,True,left,0.0,0.3486,1.3815,1.033,1.7819,2.4238,0.6419,A
62,0.49642,1.2,2,0.23994,0.3475,0.60398,62,2.54003,0.7,0.3475,0.85219,5,lapse_rate,2.0,True,0.114,0,False,right,-0.16547,1.4327,2.2081,0.7754,0.2408,0.741,0.5003,A
63,0.49642,0.1,1,0.23166,0.33922,0.56261,63,1.98568,-0.294,-0.14893,0.35577,5,2U1D,1.0,False,0.242,4,True,left,0.24821,0.1625,0.6626,0.5002,1.0377,1.9295,0.8918,A
64,0.49642,1.2,1,0.43023,0.33095,0.786,64,2.91234,0.73,0.36404,0.86874,5,2D1U,2.0,False,0.342,7,False,right,0.0,0.346,1.3882,1.0421,2.096,2.7627,0.6667,A
65,0.49642,1.2,2,0.43851,0.39714,0.71981,65,2.93717,0.766,0.38059,0.88529,5,2D1U,2.0,True,0.434,8,True,right,-0.16547,1.7501,2.5585,0.8085,0.4418,0.9418,0.5,A
66,0.49642,1.2,1,0.38886,0.36404,0.67017,66,2.25044,-0.33,-0.16547,0.33095,5,2U1D,2.0,True,0.233,5,True,right,0.24821,0.3059,0.806,0.5001,1.2726,2.189,0.9164,A
67,0.49642,1.2,2,0.33922,0.29785,0.56261,67,1.84503,-0.7,-0.3475,0.14893,5,lapse_rate,1.0,True,1.079,0,False,left,0.0,1.573,1.64,0.0671,0.2566,0.923,0.6664,A
68,0.49642,0.1,2,0.25649,0.33922,0.71154,68,2.13462,-0.33,-0.16547,0.33095,5,2U1D,1.0,True,0.667,5,True,left,-0.16547,1.5349,1.7932,0.2583,0.2766,0.7516,0.475,A
69,0.49642,1.2,1,0.33922,0.20684,0.65362,69,1.84503,-0.7,-0.3475,0.14893,5,lapse_rate,2.0,True,0.542,0,False,right,0.24821,0.2591,0.5759,0.3168,1.0258,999,997.9742,A
70,0.49642,0.1,2,0.27303,0.20684,0.52124,70,2.38282,0.766,0.38059,0.88529,5,2D1U,2.0,True,0.115,8,True,right,0.0,1.4397,2.2564,0.8167,0.2066,0.8485,0.6419,A
71,0.49642,0.1,2,0.33922,0.38886,0.47988,71,2.06015,-0.294,-0.14893,0.35577,5,2U1D,1.0,True,0.241,6,True,left,-0.16547,1.3847,1.6692,0.2845,0.3606,0.836,0.4754,A
72,0.49642,1.2,2,0.41369,0.32268,0.58743,72,2.68896,0.73,0.36404,0.86874,5,2D1U,2.0,True,0.114,9,True,right,0.24821,1.8001,2.5919,0.7919,0.2088,1.1252,0.9164,A
73,0.49642,0.1,2,0.38059,0.38059,0.82737,73,2.93716,0.7,0.3475,0.85219,5,lapse_rate,2.0,True,0.458,0,False,right,0.0,1.8538,2.6371,0.7833,0.3126,0.9543,0.6417,A
74,0.49642,0.1,2,0.29785,0.28131,0.86047,74,2.78824,0.7,0.3475,0.85219,5,lapse_rate,2.0,True,0.276,0,False,right,-0.16547,1.7229,2.506,0.7831,0.3145,0.7894,0.475,A
75,0.49642,1.2,2,0.42196,0.36404,0.82737,75,2.97853,0.73,0.36404,0.86874,5,2D1U,2.0,True,0.114,9,True,right,0.24821,2.0522,2.8439,0.7917,0.2189,1.1355,0.9166,A
76,0.49642,1.2,1,0.38059,0.27303,0.69499,76,2.2008,-0.294,-0.14893,0.35577,5,2U1D,2.0,True,0.235,6,True,right,0.0,0.3015,0.8265,0.525,1.4432,2.1098,0.6666,A
77,0.49642,0.1,1,0.33095,0.33922,0.71981,77,2.73032,0.694,0.3475,0.84392,5,2D1U,1.0,True,0.216,9,False,left,-0.16547,0.2637,1.2553,0.9916,1.9965,2.4715,0.4749,A
78,0.49642,0.1,1,0.41369,0.36404,0.41369,78,2.06016,-0.258,-0.13238,0.37232,5,2U1D,2.0,True,0.113,6,False,right,0.24821,0.3482,0.8649,0.5167,1.0899,1.9817,0.8918,A
79,0.49642,1.2,1,0.41369,0.43023,0.6288,79,2.82133,0.7,0.3475,0.85219,5,lapse_rate,2.0,False,0.559,0,False,right,0.0,0.3298,1.3549,1.025,1.9049,2.5718,0.667,A
80,0.49642,1.2,2,0.21512,0.37232,0.43851,80,1.6713,-0.7,-0.3475,0.14893,5,lapse_rate,2.0,False,0.519,0,False,right,-0.16547,1.2391,1.3048,0.0657,0.2134,0.7137,0.5003,A
81,0.49642,0.1,2,0.43851,0.26476,0.60398,81,2.64759,0.694,0.3475,0.84392,5,2D1U,2.0,True,0.626,9,False,right,0.24821,1.8161,2.5896,0.7735,0.2487,1.1401,0.8913,A
82,0.49642,1.2,1,0.24821,0.33922,0.63708,82,2.09325,-0.258,-0.13238,0.37232,5,2U1D,2.0,True,0.441,6,False,right,0.0,0.1631,0.7045,0.5414,1.2627,1.929,0.6663,A
83,0.49642,1.2,2,0.41369,0.28958,0.49642,83,2.52348,0.658,0.33095,0.82737,5,2D1U,2.0,True,0.776,9,False,right,-0.16547,1.4977,2.2478,0.7501,0.4147,0.9149,0.5003,A
84,0.49642,1.2,2,0.21512,0.27303,0.59571,84,1.72921,-0.7,-0.3475,0.14893,5,lapse_rate,1.0,True,1.799,0,False,left,0.24821,1.605,1.6713,0.0663,0.0065,0.921,0.9146,A
85,0.49642,1.2,2,0.3144,0.23994,0.67017,85,2.10979,-0.222,-0.10756,0.38886,5,2U1D,2.0,False,0.531,6,False,right,0.0,1.6549,1.964,0.3091,0.2295,0.897,0.6674,A
86,0.49642,1.2,2,0.27303,0.3475,0.43023,86,2.39937,0.7,0.3475,0.85219,5,lapse_rate,2.0,True,0.176,0,False,right,-0.16547,1.2944,2.07,0.7756,0.2785,0.7776,0.4991,A
87,0.49642,0.1,1,0.42196,0.40541,0.6288,87,2.32491,-0.258,-0.13238,0.37232,5,2U1D,2.0,True,0.114,7,True,right,0.24821,0.3573,0.8741,0.5167,1.3148,2.2074,0.8925,A
88,0.49642,0.1,2,0.25649,0.30613,0.72809,88,2.6145,0.658,0.33095,0.82737,5,2D1U,2.0,True,0.114,9,False,right,0.0,1.635,2.393,0.7581,0.1934,0.8351,0.6417,A
89,0.49642,0.1,1,0.21512,0.36404,0.69499,89,1.9195,-0.7,-0.3475,0.14893,5,lapse_rate,2.0,True,0.183,0,False,right,-0.16547,0.1519,0.4434,0.2914,1.1601,1.6344,0.4742,A
90,0.49642,0.1,1,0.20684,0.30613,0.48815,90,1.86986,-0.258,-0.13238,0.37232,5,2U1D,2.0,True,1.733,7,True,right,0.24821,0.1383,0.6543,0.5161,0.9547,1.8466,0.8919,A
91,0.49642,1.2,1,0.40541,0.27303,0.57916,91,2.56484,0.622,0.3144,0.81082,5,2D1U,2.0,False,0.333,9,False,right,0.0,0.3266,1.3099,0.9832,1.8095,2.4765,0.667,A
92,0.49642,0.1,2,0.25649,0.28958,0.52124,92,1.71266,-0.7,-0.3475,0.14893,5,lapse_rate,1.0,True,0.498,0,False,left,-0.16547,1.3431,1.4181,0.0751,0.2764,0.752,0.4756,A
93,0.49642,1.2,1,0.41369,0.25649,0.6288,93,2.62277,0.658,0.33095,0.82737,5,2D1U,2.0,False,2.292,10,True,right,0.24821,0.3316,1.3322,1.0006,1.7572,999,997.2428,A
94,0.49642,1.2,1,0.38886,0.42196,0.71981,94,2.41591,-0.222,-0.10756,0.38886,5,2U1D,2.0,True,0.242,8,True,right,0.0,0.3041,0.8629,0.5588,1.5042,2.171,0.6669,A
95,0.49642,0.1,1,0.36404,0.20684,0.86874,95,2.78823,0.7,0.3475,0.85219,5,lapse_rate,2.0,False,0.6,0,False,right,-0.16547,0.2958,1.2959,1.0001,2.1875,2.6624,0.475,A
96,0.49642,0.1,2,0.28131,0.26476,0.87701,96,2.30836,-0.222,-0.10756,0.38886,5,2U1D,1.0,True,1.242,8,True,left,0.24821,1.9368,2.2529,0.3161,0.0948,0.9866,0.8917,A
97,0.49642,0.1,1,0.33922,0.37232,0.59571,97,2.64759,0.694,0.3475,0.84392,5,2D1U,1.0,True,0.113,10,False,left,0.0,0.2785,1.2699,0.9913,1.8028,2.4448,0.642,A
98,0.49642,0.1,1,0.25649,0.27303,0.53779,98,2.41592,0.7,0.3475,0.85219,5,lapse_rate,1.0,True,0.112,0,False,left,-0.16547,0.1898,1.1903,1.0004,1.7482,2.2239,0.4757,A
99,0.49642,0.1,1,0.32268,0.38886,0.89356,99,2.50693,-0.186,-0.09101,0.40541,5,2U1D,2.0,True,0.55,8,False,right,0.24821,0.2592,0.8097,0.5505,1.518,2.4095,0.8915,A
100,0.49642,1.2,2,0.38886,0.33922,0.80255,100,2.87097,0.694,0.3475,0.84392,5,2D1U,2.0,True,0.113,10,False,right,0.0,1.8695,2.6363,0.7668,0.3115,0.9781,0.6665,A
101,0.49642,1.2,1,0.33095,0.22339,0.86874,101,2.32491,-0.186,-0.09101,0.40541,5,2U1D,2.0,True,0.234,8,False,right,-0.16547,0.2482,0.8227,0.5745,1.6982,2.1973,0.4991,A
102,0.49642,1.2,2,0.41369,0.33095,0.43023,102,2.49866,0.658,0.33095,0.82737,5,2D1U,2.0,True,0.591,11,True,right,0.24821,1.6423,2.3921,0.7497,0.209,1.1255,0.9166,A
103,0.49642,1.2,2,0.22339,0.39714,0.5047,103,1.77058,-0.7,-0.3475,0.14893,5,lapse_rate,1.0,True,0.226,0,False,left,0.0,1.4028,1.4696,0.0668,0.1439,0.8115,0.6676,A
104,0.49642,1.2,1,0.28131,0.38059,0.45505,104,1.7623,-0.7,-0.3475,0.14893,5,lapse_rate,2.0,True,0.112,0,False,right,-0.16547,0.1997,0.5164,0.3167,0.9743,1.4745,0.5002,A
105,0.49642,0.1,2,0.3144,0.23166,0.73636,105,2.60621,0.658,0.33095,0.82737,5,2D1U,2.0,True,0.113,11,True,right,0.24821,1.8223,2.5812,0.7589,0.1226,1.0151,0.8925,A
106,0.49642,0.1,1,0.33922,0.41369,0.67017,106,2.34146,-0.15,-0.07446,0.42196,5,2U1D,2.0,True,1.057,8,False,right,0.0,0.2712,0.8376,0.5664,1.446,2.0878,0.6419,A
107,0.49642,0.1,2,0.40541,0.27303,0.54607,107,2.53175,0.622,0.3144,0.81082,5,2D1U,2.0,True,0.601,11,False,right,-0.16547,1.5148,2.2572,0.7424,0.4237,0.8984,0.4746,A
108,0.49642,1.2,2,0.43023,0.22339,0.83565,108,2.13462,-0.7,-0.3475,0.14893,5,lapse_rate,1.0,True,0.559,0,False,left,0.24821,2.0636,2.1303,0.0668,0.2221,1.1388,0.9167,A
109,0.49642,1.2,2,0.23994,0.37232,0.42196,109,1.9526,-0.15,-0.07446,0.42196,5,2U1D,2.0,False,0.409,8,False,right,0.0,1.3326,1.6747,0.3421,0.1573,0.8238,0.6665,A
110,0.49642,1.2,1,0.26476,0.44678,0.89356,110,2.91234,0.622,0.3144,0.81082,5,2D1U,1.0,True,1.217,11,False,left,-0.16547,0.1835,1.1669,0.9834,2.0674,2.5674,0.5,A
111,0.49642,1.2,2,0.29785,0.42196,0.67017,111,2.29181,-0.186,-0.09101,0.40541,5,2U1D,1.0,True,1.293,9,True,left,0.24821,1.7646,2.0897,0.3251,0.0896,1.0063,0.9167,A
112,0.49642,1.2,2,0.26476,0.36404,0.72809,112,2.7055,0.7,0.3475,0.85219,5,lapse_rate,1.0,False,1.493,0,False,left,0.0,1.668,2.4424,0.7744,0.1847,0.8514,0.6667,A
113,0.49642,0.1,1,0.24821,0.3475,0.70327,113,2.20081,-0.186,-0.09101,0.40541,5,2U1D,2.0,True,0.111,9,True,right,-0.16547,0.1795,0.7289,0.5493,1.455,1.9292,0.4742,A
114,0.49642,1.2,2,0.40541,0.24821,0.76118,114,2.76341,0.7,0.3475,0.85219,5,lapse_rate,2.0,True,0.115,0,False,right,0.24821,1.9691,2.7438,0.7747,0.2027,1.1179,0.9152,A
115,0.49642,0.1,1,0.32268,0.20684,0.67845,115,2.49867,0.586,0.28958,0.79428,5,2D1U,1.0,True,2.25,11,False,left,0.0,0.257,1.1987,0.9417,1.8154,2.457,0.6416,A
116,0.49642,0.1,1,0.30613,0.32268,0.40541,116,2.32492,0.586,0.28958,0.79428,5,2D1U,1.0,True,1.05,11,False,left,-0.16547,0.246,1.1875,0.9415,1.6128,2.0876,0.4748,A
117,0.49642,1.2,1,0.28131,0.35577,0.70327,117,2.68896,0.7,0.3475,0.85219,5,lapse_rate,2.0,False,0.267,0,False,right,0.24821,0.2014,1.2265,1.0251,1.726,2.643,0.917,A
118,0.49642,1.2,2,0.30613,0.25649,0.76946,118,2.25046,-0.15,-0.07446,0.42196,5,2U1D,1.0,True,0.751,10,True,left,0.0,1.7518,2.0934,0.3416,0.2266,0.8936,0.667,A
119,0.49642,1.2,2,0.28958,0.23994,0.62053,119,2.49866,0.7,0.3475,0.85219,5,lapse_rate,2.0,True,0.158,0,False,right,-0.16547,1.4993,2.274,0.7747,0.29,0.7901,0.5001,A
120,0.49642,1.2,2,0.33922,0.23166,0.43023,120,2.27526,0.55,0.27303,0.77773,5,2D1U,2.0,True,0.226,11,False,right,0.24821,1.5683,2.2684,0.7001,0.1349,1.0518,0.9169,A
121,0.49642,1.2,2,0.32268,0.22339,0.80255,121,2.267,-0.15,-0.07446,0.42196,5,2U1D,1.0,True,0.392,10,True,left,0.0,1.7957,2.1375,0.3417,0.2377,0.9046,0.6669,A
122,0.49642,1.2,1,0.21512,0.30613,0.79428,122,2.66414,0.7,0.3475,0.85219,5,lapse_rate,1.0,True,0.484,0,False,left,-0.16547,0.1364,1.1602,1.0238,1.9598,2.4607,0.5009,A
123,0.49642,0.1,1,0.37232,0.29785,0.6288,123,2.57312,0.55,0.27303,0.77773,5,2D1U,1.0,True,1.993,11,False,left,0.24821,0.3058,1.2315,0.9257,1.6732,2.5648,0.8916,A
124,0.49642,0.1,2,0.28131,0.20684,0.84392,124,2.27527,-0.114,-0.05792,0.44678,5,2U1D,1.0,True,0.383,10,False,left,0.0,1.7741,2.1486,0.3745,0.2148,0.8565,0.6417,A
125,0.49642,0.1,1,0.25649,0.36404,0.88529,125,2.85443,0.7,0.3475,0.85219,5,lapse_rate,1.0,True,0.375,0,False,left,-0.16547,0.1922,1.1917,0.9995,2.1003,2.5754,0.4751,A
126,0.49642,0.1,2,0.23994,0.39714,0.63708,126,2.21736,-0.114,-0.05792,0.44678,5,2U1D,1.0,True,2.651,10,False,left,0.24821,1.647,2.0209,0.3739,0.0464,0.9382,0.8918,A
127,0.49642,1.2,2,0.27303,0.33095,0.57089,127,2.4242,0.514,0.25649,0.75291,5,2D1U,2.0,True,0.534,11,False,right,0.0,1.5148,2.1903,0.6755,0.1897,0.8564,0.6667,A
128,0.49642,1.2,1,0.40541,0.44678,0.53779,128,2.34973,-0.078,-0.04137,0.46333,5,2U1D,1.0,False,1.125,10,False,left,-0.16547,0.3261,0.9595,0.6334,1.5012,2.0011,0.4999,A
129,0.49642,0.1,1,0.23166,0.25649,0.69499,129,2.53175,0.7,0.3475,0.85219,5,lapse_rate,1.0,True,0.967,0,False,left,0.24821,0.1623,1.1625,1.0002,1.6708,999,997.3292,A
130,0.49642,1.2,2,0.3475,0.32268,0.82737,130,2.74688,0.514,0.25649,0.75291,5,2D1U,2.0,True,0.112,11,False,right,0.0,1.8481,2.5225,0.6744,0.2643,0.9309,0.6666,A
131,0.49642,0.1,1,0.32268,0.36404,0.82737,131,2.8627,0.7,0.3475,0.85219,5,lapse_rate,2.0,False,2.333,0,False,right,-0.16547,0.2549,1.2549,0.9999,2.1045,2.5792,0.4747,A
132,0.49642,0.1,2,0.26476,0.33095,0.4716,132,2.30009,0.478,0.23994,0.73636,5,2D1U,2.0,True,0.124,11,False,right,0.24821,1.5065,2.1727,0.6662,0.0727,0.9646,0.8919,A
133,0.49642,0.1,2,0.38059,0.29785,0.71981,133,2.34145,-0.114,-0.05792,0.44678,5,2U1D,2.0,False,14.717,11,True,right,0.0,1.749,2.1238,0.3748,0.3157,0.9571,0.6414,A
134,0.49642,1.2,1,0.33922,0.40541,0.86047,134,2.95371,0.7,0.3475,0.85219,5,lapse_rate,1.0,True,4.909,0,False,left,-0.16547,0.2572,1.2817,1.0246,2.149,2.6479,0.4989,A
135,0.49642,0.1,2,0.36404,0.35577,0.72809,135,2.36628,-0.15,-0.07446,0.42196,5,2U1D,1.0,True,0.572,11,False,left,0.24821,1.8626,2.2123,0.3497,0.171,1.0619,0.8909,A
136,0.49642,1.2,1,0.26476,0.23166,0.69499,136,2.42419,0.478,0.23994,0.73636,5,2D1U,2.0,False,0.55,11,False,right,0.0,0.1804,1.089,0.9086,1.7057,2.3729,0.6671,A
137,0.49642,1.2,1,0.43023,0.38886,0.57916,137,2.0436,-0.7,-0.3475,0.14893,5,lapse_rate,2.0,True,0.265,0,False,right,-0.16547,0.3454,0.6619,0.3166,1.2458,1.746,0.5002,A
138,0.49642,1.2,1,0.22339,0.27303,0.8191,138,2.2339,-0.15,-0.07446,0.42196,5,2U1D,2.0,True,0.509,11,False,right,0.24821,0.1382,0.7294,0.5911,1.3462,999,997.6538,A
139,0.49642,1.2,1,0.33095,0.24821,0.61226,139,2.44075,0.514,0.25649,0.75291,5,2D1U,1.0,True,0.799,12,True,left,0.0,0.2526,1.1771,0.9245,1.7105,2.378,0.6674,A
140,0.49642,0.1,2,0.20684,0.42196,0.45505,140,2.02705,-0.114,-0.05792,0.44678,5,2U1D,1.0,True,1.401,12,True,left,-0.16547,1.2253,1.6013,0.376,0.225,0.7003,0.4753,A
141,0.49642,1.2,1,0.3144,0.35577,0.6619,141,1.97742,-0.7,-0.3475,0.14893,5,lapse_rate,2.0,True,1.166,0,False,right,0.24821,0.234,0.551,0.317,1.0092,1.9266,0.9173,A
142,0.49642,0.1,2,0.27303,0.42196,0.67017,142,2.61449,0.514,0.25649,0.75291,5,2D1U,2.0,True,0.449,12,True,right,0.0,1.5942,2.2777,0.6836,0.2105,0.8527,0.6422,A
143,0.49642,0.1,2,0.30613,0.24821,0.8191,143,2.60622,0.478,0.23994,0.73636,5,2D1U,2.0,True,0.341,13,True,right,-0.16547,1.6911,2.3575,0.6664,0.3242,0.7984,0.4741,A
144,0.49642,1.2,1,0.38059,0.20684,0.42196,144,1.95259,-0.114,-0.05792,0.44678,5,2U1D,2.0,True,1.065,12,True,right,0.24821,0.3,0.9165,0.6165,1.1326,999,997.8674,A
145,0.49642,1.2,1,0.39714,0.39714,0.83565,145,2.97854,0.7,0.3475,0.85219,5,lapse_rate,2.0,False,1.225,0,False,right,0.0,0.3145,1.34,1.0255,2.0975,2.7649,0.6674,A
146,0.49642,1.2,2,0.39714,0.37232,0.42196,146,2.15117,-0.078,-0.04137,0.46333,5,2U1D,1.0,True,0.65,12,False,left,-0.16547,1.4068,1.7902,0.3834,0.3983,0.8982,0.4999,A
147,0.49642,0.1,1,0.43851,0.24821,0.52124,147,1.85331,-0.7,-0.3475,0.14893,5,lapse_rate,2.0,True,0.449,0,False,right,0.24821,0.3724,0.6642,0.2917,0.997,999,998.003,A
148,0.49642,1.2,2,0.27303,0.33922,0.6619,148,2.50693,0.478,0.23994,0.73636,5,2D1U,2.0,True,1.267,13,True,right,0.0,1.6069,2.2641,0.6572,0.191,0.8566,0.6656,A
149,0.49642,0.1,1,0.37232,0.33095,0.76118,149,2.4242,-0.078,-0.04137,0.46333,5,2U1D,1.0,False,0.268,12,False,left,-0.16547,0.3054,0.9138,0.6084,1.6973,2.1722,0.4749,A
150,0.49642,0.1,1,0.3144,0.25649,0.87701,150,2.66413,0.442,0.22339,0.71981,5,2D1U,2.0,False,0.383,13,False,right,0.24821,0.2498,1.1164,0.8666,1.808,999,997.192,A
151,0.49642,0.1,1,0.36404,0.43023,0.88529,151,3.02817,0.7,0.3475,0.85219,5,lapse_rate,1.0,True,1.0,0,False,left,0.0,0.2988,1.2987,0.9999,2.1231,2.7648,0.6417,A
152,0.49642,1.2,1,0.43851,0.41369,0.65362,152,2.15117,-0.7,-0.3475,0.14893,5,lapse_rate,2.0,True,0.367,0,False,right,-0.16547,0.3615,0.6781,0.3165,1.3363,1.8365,0.5002,A
153,0.49642,0.1,2,0.23994,0.20684,0.57916,153,1.96914,-0.114,-0.05792,0.44678,5,2U1D,1.0,True,1.716,13,True,left,0.24821,1.5877,1.9635,0.3758,0.0469,0.9386,0.8917,A
154,0.49642,1.2,2,0.42196,0.42196,0.86047,154,2.93717,0.478,0.23994,0.73636,5,2D1U,2.0,True,0.176,14,True,right,0.0,1.9571,2.6146,0.6575,0.3403,1.0063,0.666,A
155,0.49642,1.2,1,0.43851,0.28131,0.81082,155,2.47384,-0.114,-0.05792,0.44678,5,2U1D,1.0,False,0.517,13,True,left,-0.16547,0.3595,0.9756,0.6161,1.7919,2.2919,0.4999,A
156,0.49642,1.2,2,0.41369,0.23994,0.69499,156,2.5814,0.478,0.23994,0.73636,5,2D1U,2.0,True,0.183,14,True,right,0.24821,1.9088,2.5676,0.6589,0.2083,1.1249,0.9166,A
157,0.49642,1.2,2,0.42196,0.24821,0.82737,157,2.14289,-0.7,-0.3475,0.14893,5,lapse_rate,1.0,True,0.91,0,False,left,0.0,1.9233,1.9905,0.0672,0.3407,1.0073,0.6666,A
158,0.49642,0.1,2,0.25649,0.33095,0.87701,158,2.38283,-0.15,-0.07446,0.42196,5,2U1D,2.0,False,0.333,13,False,right,-0.16547,1.7036,2.0527,0.3491,0.278,0.7533,0.4752,A
159,0.49642,1.2,1,0.44678,0.30613,0.75291,159,2.15117,-0.7,-0.3475,0.14893,5,lapse_rate,2.0,True,0.458,0,False,right,0.24821,0.3651,0.681,0.3159,1.231,2.1478,0.9168,A
160,0.49642,0.1,1,0.41369,0.19857,0.74463,160,2.57312,0.442,0.22339,0.71981,5,2D1U,2.0,False,0.532,15,True,right,0.0,0.3456,1.2116,0.866,1.8957,2.537,0.6413,A
161,0.49642,0.1,2,0.39714,0.44678,0.73636,161,2.22563,-0.7,-0.3475,0.14893,5,lapse_rate,1.0,True,0.468,0,False,left,-0.16547,1.6993,1.7741,0.0748,0.4161,0.8902,0.4741,A
162,0.49642,0.1,1,0.30613,0.33095,0.45505,162,2.32491,0.478,0.23994,0.73636,5,2D1U,2.0,False,0.517,16,True,right,0.24821,0.2389,1.1228,0.8839,1.39,2.2808,0.8908,A
163,0.49642,1.2,1,0.28958,0.38059,0.84392,163,2.41592,-0.186,-0.09101,0.40541,5,2U1D,1.0,False,0.892,13,False,left,0.0,0.2085,0.7839,0.5754,1.5509,2.2172,0.6663,A
164,0.49642,0.1,1,0.39714,0.43023,0.55434,164,2.73032,0.7,0.3475,0.85219,5,lapse_rate,1.0,True,0.459,0,False,left,-0.16547,0.3292,1.3291,0.9999,1.904,2.379,0.475,A
165,0.49642,1.2,1,0.3475,0.42196,0.67017,165,2.32491,-0.222,-0.10756,0.38886,5,2U1D,1.0,False,0.726,13,False,left,0.24821,0.2683,0.8267,0.5584,1.293,2.2091,0.9162,A
166,0.49642,1.2,2,0.28131,0.23166,0.58743,166,2.34973,0.514,0.25649,0.75291,5,2D1U,2.0,True,1.208,16,False,right,0.0,1.5378,2.2125,0.6748,0.1957,0.8618,0.6661,A
167,0.49642,0.1,2,0.3144,0.37232,0.85219,167,2.40765,-0.258,-0.13238,0.37232,5,2U1D,1.0,True,0.114,13,False,left,-0.16547,1.7307,2.0307,0.3,0.3304,0.8058,0.4754,A
168,0.49642,1.2,2,0.35577,0.42196,0.76118,168,2.88752,0.7,0.3475,0.85219,5,lapse_rate,2.0,True,0.374,0,False,right,0.24821,1.9199,2.6934,0.7736,0.1524,1.0695,0.9172,A
169,0.49642,0.1,2,0.26476,0.43851,0.77773,169,2.73033,0.514,0.25649,0.75291,5,2D1U,2.0,True,1.041,16,False,right,0.0,1.6891,2.3739,0.6847,0.1981,0.8398,0.6417,A
170,0.49642,0.1,2,0.21512,0.38886,0.80255,170,2.27527,-0.258,-0.13238,0.37232,5,2U1D,1.0,True,0.183,13,False,left,-0.16547,1.5816,1.8805,0.2989,0.2308,0.7055,0.4747,A
171,0.49642,1.2,2,0.42196,0.38059,0.40541,171,2.44074,0.478,0.23994,0.73636,5,2D1U,2.0,True,0.192,17,True,right,0.24821,1.6241,2.2826,0.6585,0.2154,1.1325,0.9171,A
172,0.49642,1.2,1,0.44678,0.35577,0.73636,172,2.88752,0.7,0.3475,0.85219,5,lapse_rate,1.0,True,1.257,0,False,left,0.0,0.3642,1.3895,1.0253,2.0476,2.7145,0.6669,A
173,0.49642,1.2,1,0.28958,0.43851,0.58743,173,2.5483,0.478,0.23994,0.73636,5,2D1U,1.0,True,0.114,17,True,left,-0.16547,0.2061,1.1153,0.9092,1.7067,2.2065,0.4999,A
174,0.49642,0.1,1,0.3144,0.19857,0.82737,174,1.98569,-0.7,-0.3475,0.14893,5,lapse_rate,2.0,True,0.142,0,False,right,0.24821,0.2489,0.5402,0.2914,1.1819,999,997.8181,A
175,0.49642,1.2,2,0.23166,0.27303,0.63708,175,2.02705,-0.222,-0.10756,0.38886,5,2U1D,1.0,True,0.784,14,True,left,0.0,1.5397,1.8473,0.3076,0.1467,0.8145,0.6678,A
176,0.49642,0.1,2,0.43023,0.35577,0.42196,176,2.09324,-0.222,-0.10756,0.38886,5,2U1D,2.0,False,0.726,14,True,right,-0.16547,1.4121,1.7289,0.3168,0.4457,0.9205,0.4748,A
177,0.49642,1.2,2,0.39714,0.37232,0.85219,177,2.267,-0.7,-0.3475,0.14893,5,lapse_rate,1.0,True,0.284,0,False,left,0.24821,2.0527,2.1194,0.0667,0.1953,1.1117,0.9164,A
178,0.49642,0.1,1,0.3475,0.41369,0.57916,178,2.55658,0.442,0.22339,0.71981,5,2D1U,1.0,True,1.8,17,False,left,0.0,0.2853,1.1523,0.867,1.6693,2.3101,0.6408,A
179,0.49642,0.1,1,0.33922,0.35577,0.57089,179,1.91123,-0.7,-0.3475,0.14893,5,lapse_rate,2.0,True,0.217,0,False,right,-0.16547,0.2775,0.5685,0.291,1.1601,1.6358,0.4757,A
180,0.49642,0.1,1,0.29785,0.21512,0.75291,180,2.13462,-0.258,-0.13238,0.37232,5,2U1D,1.0,False,0.399,15,True,left,0.24821,0.2357,0.7524,0.5167,1.3192,999,997.6808,A
181,0.49642,1.2,2,0.21512,0.39714,0.77773,181,2.60622,0.442,0.22339,0.71981,5,2D1U,2.0,True,0.11,17,False,right,0.0,1.6682,2.3101,0.6419,0.135,0.802,0.667,A
182,0.49642,1.2,1,0.25649,0.24821,0.46333,182,1.82022,-0.294,-0.14893,0.35577,5,2U1D,1.0,False,0.55,15,False,left,-0.16547,0.1773,0.7027,0.5254,1.1693,1.6695,0.5002,A
183,0.49642,0.1,1,0.37232,0.38886,0.77773,183,2.18426,-0.7,-0.3475,0.14893,5,lapse_rate,2.0,True,0.192,0,False,right,0.24821,0.3042,0.5964,0.2922,1.1889,2.0794,0.8905,A
184,0.49642,1.2,1,0.26476,0.28958,0.57916,184,2.33319,0.406,0.20684,0.70327,5,2D1U,2.0,False,0.184,17,False,right,0.0,0.1794,1.0532,0.8738,1.554,2.2207,0.6667,A
185,0.49642,0.1,2,0.24821,0.3144,0.53779,185,2.31663,0.442,0.22339,0.71981,5,2D1U,2.0,True,0.113,18,True,right,-0.16547,1.3459,1.9965,0.6506,0.2622,0.7378,0.4756,A
186,0.49642,0.1,2,0.41369,0.3144,0.62053,186,2.69723,0.7,0.3475,0.85219,5,lapse_rate,2.0,True,0.983,0,False,right,0.24821,1.8101,2.5933,0.7832,0.2266,1.1183,0.8917,A
187,0.49642,0.1,2,0.24821,0.37232,0.67017,187,2.11807,-0.33,-0.16547,0.33095,5,2U1D,1.0,True,0.391,15,False,left,0.0,1.5642,1.823,0.2588,0.1815,0.8234,0.6418,A
188,0.49642,1.2,1,0.23166,0.38886,0.4716,188,2.44073,0.7,0.3475,0.85219,5,lapse_rate,1.0,True,0.113,0,False,left,-0.16547,0.1462,1.1712,1.025,1.6459,2.1448,0.4989,A
189,0.49642,0.1,1,0.25649,0.20684,0.47988,189,2.15944,0.442,0.22339,0.71981,5,2D1U,1.0,True,0.383,18,True,left,0.24821,0.1948,1.0612,0.8664,1.3535,999,997.6465,A
190,0.49642,1.2,1,0.42196,0.3475,0.89356,190,2.49039,-0.33,-0.16547,0.33095,5,2U1D,2.0,True,0.592,15,False,right,0.0,0.3415,0.8423,0.5008,1.658,2.3247,0.6667,A
191,0.49642,1.2,1,0.33095,0.43851,0.84392,191,2.81307,0.406,0.20684,0.70327,5,2D1U,1.0,True,0.626,19,True,left,-0.16547,0.248,1.1226,0.8746,1.9731,2.4724,0.4993,A
192,0.49642,0.1,1,0.30613,0.40541,0.48815,192,2.5483,0.7,0.3475,0.85219,5,lapse_rate,1.0,True,0.25,0,False,left,0.24821,0.2416,1.2412,0.9996,1.5415,2.4327,0.8912,A
193,0.49642,1.2,1,0.41369,0.36404,0.49642,193,2.12634,-0.294,-0.14893,0.35577,5,2U1D,2.0,True,0.384,16,True,right,0.0,0.3356,0.8612,0.5256,1.2782,1.9445,0.6663,A
194,0.49642,0.1,2,0.33922,0.37232,0.88529,194,2.79652,0.406,0.20684,0.70327,5,2D1U,2.0,True,0.114,19,True,right,-0.16547,1.7901,2.4235,0.6334,0.3567,0.8318,0.4752,A
195,0.49642,0.1,2,0.38059,0.26476,0.42196,195,2.41592,0.7,0.3475,0.85219,5,lapse_rate,2.0,True,0.111,0,False,right,0.24821,1.5719,2.3559,0.784,0.1892,1.0805,0.8913,A
196,0.49642,0.1,1,0.35577,0.35577,0.79428,196,2.35801,-0.294,-0.14893,0.35577,5,2U1D,1.0,False,0.474,16,True,left,0.0,0.2885,0.7879,0.4994,1.5218,2.1634,0.6416,A
197,0.49642,0.1,2,0.43851,0.3144,0.67845,197,2.77997,0.7,0.3475,0.85219,5,lapse_rate,2.0,True,0.426,0,False,right,-0.16547,1.6807,2.4639,0.7832,0.4558,0.9312,0.4754,A
198,0.49642,0.1,2,0.24821,0.39714,0.83565,198,2.66414,0.37,0.18202,0.68672,5,2D1U,2.0,True,0.583,19,False,right,0.24821,1.8562,2.4728,0.6166,0.0569,0.9484,0.8915,A
199,0.49642,1.2,2,0.20684,0.3144,0.61226,199,1.96087,-0.33,-0.16547,0.33095,5,2U1D,2.0,False,1.585,17,True,right,0.0,1.4927,1.7423,0.2496,0.126,0.7926,0.6666,A
200,0.49642,1.2,2,0.3144,0.38059,0.80255,200,2.30836,-0.366,-0.18202,0.3144,5,2U1D,1.0,True,0.526,17,False,left,-0.16547,1.7056,1.9389,0.2334,0.314,0.814,0.5,A
201,0.49642,1.2,2,0.26476,0.32268,0.52952,201,2.3001,0.37,0.18202,0.68672,5,2D1U,2.0,True,0.208,19,False,right,0.24821,1.5907,2.1985,0.6078,0.0574,0.9734,0.916,A
202,0.49642,1.2,2,0.43851,0.22339,0.76118,202,2.77169,0.7,0.3475,0.85219,5,lapse_rate,2.0,True,0.991,0,False,right,0.0,1.8779,2.6529,0.775,0.3606,1.0282,0.6675,A
203,0.49642,0.1,2,0.38059,0.33922,0.42196,203,2.30836,0.334,0.16547,0.67017,5,2D1U,2.0,True,0.111,19,False,right,-0.16547,1.3684,1.9679,0.5995,0.4015,0.8761,0.4746,A
204,0.49642,0.1,1,0.33922,0.28958,0.6619,204,2.10152,-0.366,-0.18202,0.3144,5,2U1D,2.0,True,0.158,17,False,right,0.24821,0.2716,0.7306,0.459,1.2046,2.0969,0.8923,A
205,0.49642,0.1,1,0.33922,0.22339,0.77773,205,1.98569,-0.7,-0.3475,0.14893,5,lapse_rate,2.0,True,0.859,0,False,right,0.0,0.2764,0.5677,0.2913,1.2847,1.9264,0.6416,A
206,0.49642,0.1,2,0.20684,0.43851,0.65362,206,2.46556,0.334,0.16547,0.67017,5,2D1U,2.0,True,0.293,19,False,right,-0.16547,1.4237,2.0243,0.6005,0.2242,0.6993,0.4751,A
207,0.49642,1.2,2,0.23994,0.3475,0.56261,207,1.97742,-0.33,-0.16547,0.33095,5,2U1D,1.0,True,0.409,18,True,left,0.24821,1.6008,1.8504,0.2497,0.0339,0.9494,0.9155,A
208,0.49642,1.2,2,0.25649,0.35577,0.57916,208,1.83677,-0.7,-0.3475,0.14893,5,lapse_rate,1.0,True,0.218,0,False,left,0.0,1.5041,1.5706,0.0666,0.1712,0.8366,0.6654,A
209,0.49642,1.2,2,0.29785,0.37232,0.70327,209,2.20081,-0.33,-0.16547,0.33095,5,2U1D,1.0,True,0.2,18,True,left,-0.16547,1.5872,1.8379,0.2507,0.2958,0.7955,0.4997,A
210,0.49642,1.2,1,0.39714,0.3475,0.51297,210,2.39938,0.298,0.14893,0.64535,5,2D1U,2.0,False,0.684,19,False,right,0.24821,0.3119,1.129,0.8171,1.4372,2.3534,0.9163,A
211,0.49642,1.2,1,0.20684,0.3144,0.79428,211,2.66413,0.7,0.3475,0.85219,5,lapse_rate,2.0,False,0.499,0,False,right,0.0,0.1275,1.1526,1.0251,1.8692,2.5364,0.6672,A
212,0.49642,1.2,1,0.19857,0.25649,0.77773,212,1.87814,-0.7,-0.3475,0.14893,5,lapse_rate,2.0,True,0.625,0,False,right,-0.16547,0.113,0.4299,0.3169,1.2129,1.7129,0.5,A
213,0.49642,0.1,1,0.35577,0.30613,0.60398,213,2.11807,-0.294,-0.14893,0.35577,5,2U1D,2.0,True,2.767,18,False,right,0.24821,0.2924,0.7922,0.4998,1.2093,2.1013,0.8921,A
214,0.49642,0.1,1,0.32268,0.27303,0.89356,214,2.65586,0.334,0.16547,0.67017,5,2D1U,1.0,True,0.858,20,True,left,0.0,0.2583,1.0751,0.8168,1.9078,2.5501,0.6423,A
215,0.49642,1.2,2,0.32268,0.39714,0.85219,215,2.92062,0.7,0.3475,0.85219,5,lapse_rate,2.0,True,0.367,0,False,right,-0.16547,1.7654,2.5402,0.7747,0.3236,0.8239,0.5002,A
216,0.49642,0.1,1,0.20684,0.29785,0.67845,216,2.34973,0.334,0.16547,0.67017,5,2D1U,1.0,True,0.717,20,True,left,0.24821,0.1449,0.9623,0.8174,1.4539,2.345,0.8911,A
217,0.49642,1.2,2,0.30613,0.24821,0.67017,217,2.0767,-0.294,-0.14893,0.35577,5,2U1D,1.0,True,0.25,18,False,left,0.0,1.6476,1.9228,0.2752,0.2229,0.8889,0.6661,A
218,0.49642,1.2,1,0.43851,0.27303,0.65362,218,2.50693,0.298,0.14893,0.64535,5,2D1U,1.0,True,0.476,21,True,left,-0.16547,0.3541,1.1705,0.8164,1.8282,2.329,0.5008,A
219,0.49642,1.2,1,0.25649,0.27303,0.44678,219,1.84504,-0.258,-0.13238,0.37232,5,2U1D,2.0,True,0.758,18,False,right,0.24821,0.1784,0.72,0.5416,0.9614,999,998.0386,A
220,0.49642,0.1,1,0.27303,0.24821,0.56261,220,2.43246,0.7,0.3475,0.85219,5,lapse_rate,1.0,True,1.801,0,False,left,0.0,0.2047,1.2051,1.0004,1.7048,2.3465,0.6417,A
221,0.49642,0.1,1,0.3475,0.28131,0.68672,221,2.4573,0.298,0.14893,0.64535,5,2D1U,1.0,True,2.634,21,True,left,-0.16547,0.2795,1.0712,0.7917,1.7794,2.2541,0.4748,A
222,0.49642,0.1,2,0.41369,0.27303,0.76118,222,2.31664,-0.258,-0.13238,0.37232,5,2U1D,2.0,False,0.892,18,False,right,0.24821,1.9491,2.2494,0.3003,0.2242,1.115,0.8909,A
223,0.49642,0.1,1,0.26476,0.37232,0.8191,223,2.10153,-0.7,-0.3475,0.14893,5,lapse_rate,2.0,True,0.374,0,False,right,0.0,0.198,0.4898,0.2918,1.248,1.8898,0.6418,A
224,0.49642,1.2,2,0.43023,0.3475,0.40541,224,2.53175,0.7,0.3475,0.85219,5,lapse_rate,2.0,True,0.583,0,False,right,-0.16547,1.4226,2.197,0.7745,0.4307,0.9299,0.4993,A
225,0.49642,0.1,2,0.42196,0.36404,0.67017,225,2.30836,-0.294,-0.14893,0.35577,5,2U1D,1.0,True,0.291,19,True,left,0.24821,1.8679,2.1513,0.2834,0.2341,1.126,0.892,A
226,0.49642,1.2,1,0.23994,0.36404,0.52124,226,2.25044,0.262,0.13238,0.6288,5,2D1U,2.0,False,1.075,21,False,right,0.0,0.1601,0.9601,0.8001,1.401,2.068,0.667,A
227,0.49642,1.2,2,0.40541,0.23994,0.69499,227,2.48211,0.298,0.14893,0.64535,5,2D1U,2.0,True,0.716,22,True,right,-0.16547,1.6954,2.2609,0.5655,0.4117,0.912,0.5003,A
228,0.49642,0.1,1,0.38059,0.32268,0.43851,228,2.49039,0.7,0.3475,0.85219,5,lapse_rate,1.0,True,0.5,0,False,left,0.24821,0.3198,1.3199,1.0002,1.5698,2.4613,0.8915,A
229,0.49642,1.2,1,0.42196,0.33095,0.73636,229,2.34146,-0.294,-0.14893,0.35577,5,2U1D,2.0,True,0.258,19,True,right,0.0,0.3403,0.8653,0.5251,1.524,2.1908,0.6667,A
230,0.49642,0.1,2,0.36404,0.28958,0.69499,230,1.99396,-0.7,-0.3475,0.14893,5,lapse_rate,1.0,True,1.417,0,False,left,-0.16547,1.6211,1.6965,0.0754,0.3799,0.8537,0.4738,A
231,0.49642,0.1,2,0.40541,0.42196,0.54607,231,2.24218,-0.258,-0.13238,0.37232,5,2U1D,1.0,True,0.583,20,True,left,0.24821,1.7284,2.0278,0.2994,0.2196,1.1117,0.8922,A
232,0.49642,0.1,1,0.38059,0.28958,0.89356,232,2.7055,0.298,0.14893,0.64535,5,2D1U,2.0,False,0.475,22,True,right,0.0,0.3146,1.1067,0.7921,1.9406,2.5822,0.6416,A
233,0.49642,0.1,2,0.26476,0.27303,0.51297,233,1.9195,-0.258,-0.13238,0.37232,5,2U1D,1.0,True,0.391,20,True,left,-0.16547,1.3407,1.6407,0.2999,0.2822,0.7565,0.4743,A
234,0.49642,1.2,2,0.32268,0.43851,0.74463,234,2.67241,0.334,0.16547,0.67017,5,2D1U,2.0,True,0.111,22,False,right,0.24821,1.8648,2.456,0.5912,0.1146,1.0316,0.917,A
235,0.49642,0.1,1,0.41369,0.20684,0.63708,235,2.60622,0.7,0.3475,0.85219,5,lapse_rate,1.0,True,0.433,0,False,left,0.0,0.3468,1.3464,0.9996,1.9222,2.5641,0.6419,A
236,0.49642,1.2,1,0.25649,0.42196,0.62053,236,2.64759,0.7,0.3475,0.85219,5,lapse_rate,2.0,False,0.799,0,False,right,-0.16547,0.1755,1.2016,1.0261,1.8263,2.3261,0.4997,A
237,0.49642,1.2,2,0.41369,0.33922,0.83565,237,2.75515,0.334,0.16547,0.67017,5,2D1U,2.0,True,1.35,22,False,right,0.24821,2.0487,2.6407,0.592,0.2073,1.1239,0.9166,A
238,0.49642,1.2,1,0.37232,0.33095,0.8191,238,2.40765,-0.222,-0.10756,0.38886,5,2U1D,2.0,True,2.084,20,False,right,0.0,0.2928,0.8515,0.5587,1.5924,2.2595,0.6671,A
239,0.49642,0.1,1,0.44678,0.38059,0.48815,239,2.45729,0.298,0.14893,0.64535,5,2D1U,1.0,True,0.534,23,True,left,-0.16547,0.3848,1.1773,0.7925,1.6854,2.1608,0.4754,A
240,0.49642,0.1,2,0.28131,0.38886,0.76946,240,2.32491,-0.222,-0.10756,0.38886,5,2U1D,1.0,True,0.475,20,False,left,0.24821,1.8243,2.1409,0.3166,0.0918,0.9828,0.891,A
241,0.49642,0.1,1,0.44678,0.33095,0.47988,241,1.90296,-0.7,-0.3475,0.14893,5,lapse_rate,2.0,True,0.583,0,False,right,0.0,0.3844,0.6754,0.291,1.0923,1.7347,0.6424,A
242,0.49642,0.1,2,0.21512,0.27303,0.43851,242,1.82849,-0.186,-0.09101,0.40541,5,2U1D,2.0,False,3.425,20,False,right,-0.16547,1.2128,1.5468,0.334,0.2299,0.7051,0.4753,A
243,0.49642,1.2,1,0.3475,0.38886,0.81082,243,2.68895,0.298,0.14893,0.64535,5,2D1U,1.0,True,1.917,23,True,left,0.24821,0.2672,1.0836,0.8164,1.6921,2.6097,0.9176,A
244,0.49642,0.1,2,0.38059,0.44678,0.57089,244,2.74687,0.7,0.3475,0.85219,5,lapse_rate,2.0,True,0.176,0,False,right,0.0,1.6014,2.3843,0.7829,0.3187,0.9601,0.6414,A
245,0.49642,1.2,2,0.33095,0.25649,0.79428,245,2.50694,0.262,0.13238,0.6288,5,2D1U,2.0,True,0.417,23,False,right,-0.16547,1.7153,2.2651,0.5498,0.3318,0.832,0.5002,A
246,0.49642,0.1,2,0.22339,0.23994,0.82737,246,1.93605,-0.7,-0.3475,0.14893,5,lapse_rate,1.0,True,1.022,0,False,left,0.24821,1.8201,1.8959,0.0758,0.0286,0.9205,0.8919,A
247,0.49642,1.2,2,0.3475,0.32268,0.41369,247,1.96915,-0.222,-0.10756,0.38886,5,2U1D,1.0,True,1.083,21,True,left,0.0,1.4318,1.7404,0.3086,0.2656,0.9328,0.6672,A
248,0.49642,1.2,2,0.19857,0.26476,0.59571,248,1.70439,-0.7,-0.3475,0.14893,5,lapse_rate,1.0,True,0.284,0,False,left,-0.16547,1.3813,1.4482,0.0668,0.1981,0.6988,0.5007,A
249,0.49642,0.1,1,0.43023,0.37232,0.58743,249,2.27526,-0.222,-0.10756,0.38886,5,2U1D,2.0,True,0.199,21,True,right,0.24821,0.3649,0.8987,0.5338,1.2979,2.1904,0.8925,A
250,0.49642,0.1,1,0.33095,0.21512,0.4716,250,2.14289,0.262,0.13238,0.6288,5,2D1U,1.0,True,1.951,23,False,left,0.0,0.2612,1.036,0.7748,1.4445,2.086,0.6415,A
251,0.49642,0.1,1,0.43851,0.41369,0.6288,251,2.38283,-0.186,-0.09101,0.40541,5,2U1D,2.0,True,0.113,22,True,right,-0.16547,0.3727,0.9222,0.5496,1.5721,2.0472,0.4751,A
252,0.49642,1.2,1,0.38886,0.29785,0.6619,252,2.25044,-0.186,-0.09101,0.40541,5,2U1D,2.0,True,0.292,22,True,right,0.24821,0.3097,0.8844,0.5747,1.3426,2.2593,0.9167,A
253,0.49642,1.2,1,0.44678,0.40541,0.86874,253,2.82961,0.226,0.11583,0.61226,5,2D1U,2.0,False,0.233,23,False,right,0.0,0.3675,1.1504,0.7829,1.9419,2.6087,0.6668,A
254,0.49642,1.2,1,0.29785,0.21512,0.58743,254,2.22562,0.262,0.13238,0.6288,5,2D1U,2.0,False,0.242,24,True,right,-0.16547,0.2132,1.0131,0.7999,1.6054,2.105,0.4996,A
255,0.49642,0.1,1,0.40541,0.40541,0.76946,255,2.49866,-0.15,-0.07446,0.42196,5,2U1D,1.0,False,0.317,22,False,left,0.24821,0.3442,0.9103,0.5661,1.4936,2.3854,0.8918,A
256,0.49642,0.1,1,0.36404,0.22339,0.63708,256,2.12634,-0.186,-0.09101,0.40541,5,2U1D,1.0,False,0.509,23,True,left,0.0,0.3028,0.8528,0.55,1.4276,2.0691,0.6415,A
257,0.49642,0.1,1,0.40541,0.25649,0.79428,257,2.34146,-0.222,-0.10756,0.38886,5,2U1D,2.0,True,2.134,23,False,right,-0.16547,0.3433,0.8769,0.5336,1.6934,2.1682,0.4747,A
258,0.49642,1.2,2,0.37232,0.37232,0.60398,258,2.49039,0.298,0.14893,0.64535,5,2D1U,2.0,True,0.309,24,False,right,0.24821,1.773,2.3396,0.5666,0.1643,1.0813,0.9169,A
259,0.49642,1.2,1,0.28958,0.37232,0.84392,259,2.3911,-0.222,-0.10756,0.38886,5,2U1D,1.0,False,2.717,23,False,left,0.0,0.2065,0.7652,0.5587,1.532,2.1983,0.6662,A
260,0.49642,1.2,1,0.23994,0.27303,0.43023,260,2.08497,0.298,0.14893,0.64535,5,2D1U,2.0,False,0.259,24,False,right,-0.16547,0.1609,0.9785,0.8176,1.4118,1.9113,0.4995,A
261,0.49642,0.1,2,0.36404,0.3475,0.77773,261,2.35801,-0.258,-0.13238,0.37232,5,2U1D,1.0,True,0.466,23,False,left,0.24821,1.9155,2.2156,0.3001,0.1738,1.0652,0.8915,A
262,0.49642,0.1,1,0.43851,0.36404,0.59571,262,2.56485,0.334,0.16547,0.67017,5,2D1U,2.0,False,3.467,24,False,right,0.0,0.3732,1.1908,0.8176,1.7239,2.3649,0.641,A
263,0.49642,0.1,2,0.44678,0.36404,0.64535,263,2.32491,-0.258,-0.13238,0.37232,5,2U1D,1.0,True,0.259,23,False,left,-0.16547,1.6553,1.9553,0.3,0.4634,0.9385,0.4751,A
264,0.49642,1.2,2,0.33095,0.33922,0.59571,264,2.44902,0.37,0.18202,0.68672,5,2D1U,1.0,False,0.742,24,False,left,0.24821,1.7236,2.3316,0.608,0.1233,1.0402,0.9169,A
265,0.49642,1.2,2,0.39714,0.42196,0.47988,265,2.49867,0.406,0.20684,0.70327,5,2D1U,2.0,True,0.111,24,False,right,0.0,1.5418,2.1674,0.6256,0.3102,0.9768,0.6666,A
266,0.49642,1.2,2,0.25649,0.38886,0.44678,266,1.97741,-0.222,-0.10756,0.38886,5,2U1D,1.0,True,0.207,24,True,left,-0.16547,1.2869,1.595,0.3081,0.2543,0.7545,0.5002,A
267,0.49642,0.1,2,0.35577,0.39714,0.89356,267,2.53175,-0.222,-0.10756,0.38886,5,2U1D,1.0,True,1.175,24,True,left,0.24821,2.0218,2.3389,0.3172,0.1636,1.0553,0.8917,A
268,0.49642,0.1,1,0.37232,0.37232,0.75291,268,2.69724,0.406,0.20684,0.70327,5,2D1U,1.0,True,0.81,24,False,left,0.0,0.3059,1.1559,0.85,1.8476,2.489,0.6413,A
269,0.49642,0.1,2,0.33922,0.43023,0.67017,269,2.62276,0.37,0.18202,0.68672,5,2D1U,2.0,True,3.184,25,True,right,-0.16547,1.5746,2.1912,0.6165,0.3577,0.8327,0.475,A
270,0.49642,1.2,1,0.42196,0.33922,0.88529,270,2.5483,-0.186,-0.09101,0.40541,5,2U1D,2.0,True,0.125,24,False,right,0.24821,0.3391,0.9144,0.5753,1.5989,2.5147,0.9158,A
271,0.49642,1.2,2,0.43023,0.44678,0.58743,271,2.64758,0.37,0.18202,0.68672,5,2D1U,2.0,True,0.113,25,True,right,0.0,1.6931,2.3017,0.6086,0.3515,1.0186,0.6671,A
272,0.49642,1.2,1,0.40541,0.24821,0.76118,272,2.31663,-0.186,-0.09101,0.40541,5,2U1D,2.0,True,0.983,24,False,right,-0.16547,0.3232,0.8979,0.5747,1.6642,2.1643,0.5001,A
273,0.49642,0.1,1,0.21512,0.25649,0.57916,273,1.96915,-0.15,-0.07446,0.42196,5,2U1D,2.0,True,0.4,24,False,right,0.24821,0.1481,0.7143,0.5662,1.1058,999,997.8942,A
274,0.49642,0.1,1,0.33095,0.26476,0.44678,274,2.20908,0.334,0.16547,0.67017,5,2D1U,2.0,False,3.651,25,False,right,0.0,0.2623,1.0787,0.8165,1.4629,2.1043,0.6414,A
275,0.49642,0.1,1,0.32268,0.26476,0.46333,275,2.23391,0.37,0.18202,0.68672,5,2D1U,1.0,True,2.309,26,True,left,-0.16547,0.2557,1.0897,0.834,1.5721,2.0479,0.4758,A
276,0.49642,1.2,1,0.38059,0.37232,0.68672,276,2.35801,-0.15,-0.07446,0.42196,5,2U1D,2.0,True,0.35,24,False,right,0.24821,0.2988,0.8906,0.5918,1.373,2.2895,0.9165,A
277,0.49642,1.2,2,0.39714,0.21512,0.84392,277,2.39938,-0.114,-0.05792,0.44678,5,2U1D,1.0,True,0.451,24,False,left,0.0,1.9151,2.2818,0.3667,0.3151,0.9823,0.6672,A
278,0.49642,1.2,2,0.28958,0.39714,0.88529,278,2.51521,-0.114,-0.05792,0.44678,5,2U1D,2.0,False,0.134,24,False,right,-0.16547,1.7648,2.1317,0.3669,0.2898,0.7896,0.4998,A
279,0.49642,0.1,2,0.3475,0.20684,0.6288,279,2.10152,-0.15,-0.07446,0.42196,5,2U1D,1.0,True,0.483,25,True,left,0.24821,1.7474,2.0971,0.3497,0.1555,1.0477,0.8922,A
280,0.49642,0.1,1,0.3144,0.38886,0.84392,280,2.73032,0.37,0.18202,0.68672,5,2D1U,1.0,True,0.426,26,True,left,0.0,0.2524,1.0858,0.8334,1.8686,2.5108,0.6422,A
281,0.49642,0.1,1,0.35577,0.28958,0.44678,281,2.01051,-0.15,-0.07446,0.42196,5,2U1D,1.0,False,0.842,25,True,left,-0.16547,0.2884,0.8556,0.5672,1.3217,1.7969,0.4753,A
282,0.49642,1.2,2,0.24821,0.42196,0.64535,282,2.48211,0.334,0.16547,0.67017,5,2D1U,2.0,True,0.376,27,True,right,0.24821,1.6898,2.2809,0.5911,0.0403,0.957,0.9167,A
283,0.49642,1.2,2,0.32268,0.33095,0.4716,283,2.02706,-0.186,-0.09101,0.40541,5,2U1D,1.0,True,0.484,25,False,left,0.0,1.4668,1.7921,0.3253,0.242,0.9081,0.6661,A
284,0.49642,1.2,1,0.38886,0.22339,0.88529,284,2.39937,-0.186,-0.09101,0.40541,5,2U1D,2.0,True,0.484,25,False,right,-0.16547,0.3102,0.8855,0.5753,1.7773,2.2769,0.4997,A
285,0.49642,0.1,1,0.3144,0.36404,0.61226,285,2.45729,0.334,0.16547,0.67017,5,2D1U,1.0,True,1.093,27,True,left,0.24821,0.2524,1.0686,0.8162,1.4936,2.3852,0.8916,A
286,0.49642,0.1,2,0.37232,0.23166,0.5047,286,2.02706,-0.15,-0.07446,0.42196,5,2U1D,1.0,True,1.484,26,True,left,0.0,1.5233,1.8738,0.3505,0.3061,0.9484,0.6423,A
287,0.49642,0.1,1,0.42196,0.33095,0.61226,287,2.28355,-0.15,-0.07446,0.42196,5,2U1D,2.0,True,0.176,26,True,right,-0.16547,0.3572,0.9237,0.5664,1.5564,2.0321,0.4757,A
288,0.49642,1.2,2,0.22339,0.38059,0.87701,288,2.42419,-0.114,-0.05792,0.44678,5,2U1D,2.0,False,0.333,26,False,right,0.24821,1.9026,2.2702,0.3676,0.0204,0.9362,0.9159,A
289,0.49642,1.2,1,0.23994,0.35577,0.55434,289,2.29182,0.298,0.14893,0.64535,5,2D1U,1.0,True,1.749,27,False,left,0.0,0.1613,0.978,0.8167,1.4523,2.1192,0.6669,A
290,0.49642,1.2,2,0.33095,0.39714,0.62053,290,2.49039,0.298,0.14893,0.64535,5,2D1U,2.0,True,1.743,27,False,right,-0.16547,1.5375,2.1047,0.5672,0.3295,0.8298,0.5003,A
291,0.49642,0.1,2,0.35577,0.35577,0.43023,291,2.06015,-0.15,-0.07446,0.42196,5,2U1D,2.0,False,0.885,27,True,right,0.24821,1.5606,1.9106,0.3499,0.1683,1.06,0.8917,A
292,0.49642,0.1,2,0.3144,0.25649,0.81082,292,2.50693,0.262,0.13238,0.6288,5,2D1U,2.0,True,1.067,27,False,right,0.0,1.773,2.3314,0.5585,0.2486,0.8892,0.6405,A
293,0.49642,0.1,2,0.38886,0.23994,0.44678,293,2.2008,0.262,0.13238,0.6288,5,2D1U,2.0,True,1.917,27,False,right,-0.16547,1.3982,1.9569,0.5586,0.4061,0.8818,0.4757,A
294,0.49642,1.2,1,0.3144,0.43023,0.53779,294,2.3911,0.226,0.11583,0.61226,5,2D1U,2.0,False,3.183,27,False,right,0.24821,0.2371,1.0191,0.7819,1.3523,2.2701,0.9178,A
295,0.49642,1.2,2,0.23166,0.22339,0.79428,295,2.15116,-0.186,-0.09101,0.40541,5,2U1D,1.0,True,0.631,27,False,left,0.0,1.6965,2.0209,0.3245,0.1473,0.813,0.6657,A
296,0.49642,1.2,2,0.3144,0.25649,0.56261,296,2.03533,-0.186,-0.09101,0.40541,5,2U1D,2.0,False,0.54,27,False,right,-0.16547,1.4624,1.7874,0.3249,0.3128,0.8122,0.4994,A
297,0.49642,0.1,2,0.43851,0.30613,0.86874,297,2.7386,0.262,0.13238,0.6288,5,2D1U,2.0,True,0.225,28,True,right,0.24821,2.0856,2.6449,0.5593,0.2523,1.1443,0.892,A
298,0.49642,0.1,1,0.24821,0.26476,0.786,298,2.42419,0.262,0.13238,0.6288,5,2D1U,2.0,False,0.433,28,True,right,0.0,0.1808,0.9559,0.775,1.6813,2.323,0.6416,A
299,0.49642,0.1,1,0.38886,0.23166,0.86874,299,2.63103,0.298,0.14893,0.64535,5,2D1U,2.0,False,0.358,28,False,right,-0.16547,0.3267,1.1186,0.7918,2.0103,2.4848,0.4745,A
300,0.49642,1.2,1,0.41369,0.21512,0.53779,300,2.05188,-0.222,-0.10756,0.38886,5,2U1D,2.0,True,0.249,27,False,right,0.24821,0.331,0.8895,0.5585,1.2229,999,997.7771,A
301,0.49642,1.2,1,0.28131,0.24821,0.69499,301,2.3911,0.334,0.16547,0.67017,5,2D1U,2.0,False,1.643,28,False,right,0.0,0.1985,1.0396,0.8411,1.6566,2.323,0.6663,A
302,0.49642,1.2,1,0.43023,0.19857,0.90184,302,2.41592,-0.222,-0.10756,0.38886,5,2U1D,2.0,True,0.267,27,False,right,-0.16547,0.3478,0.9062,0.5584,1.8138,2.3137,0.4999,A
303,0.49642,0.1,2,0.20684,0.44678,0.72809,303,2.28354,-0.186,-0.09101,0.40541,5,2U1D,1.0,True,0.267,28,True,left,0.24821,1.7054,2.0394,0.334,0.0143,0.9058,0.8915,A
304,0.49642,0.1,1,0.36404,0.22339,0.46333,304,2.2339,0.37,0.18202,0.68672,5,2D1U,1.0,True,0.187,28,False,left,0.0,0.2962,1.1292,0.833,1.5293,2.1717,0.6424,A
305,0.49642,0.1,2,0.30613,0.44678,0.5047,305,2.44075,0.37,0.18202,0.68672,5,2D1U,2.0,True,0.159,28,False,right,-0.16547,1.3772,1.9943,0.6171,0.3266,0.8022,0.4755,A
306,0.49642,1.2,2,0.40541,0.25649,0.63708,306,2.46557,0.334,0.16547,0.67017,5,2D1U,1.0,False,0.243,29,True,left,0.24821,1.8368,2.4283,0.5915,0.1948,1.111,0.9162,A
307,0.49642,1.2,2,0.28131,0.20684,0.46333,307,1.85331,-0.186,-0.09101,0.40541,5,2U1D,1.0,True,0.459,28,True,left,0.0,1.4147,1.7391,0.3243,0.1977,0.8645,0.6668,A
308,0.49642,1.2,1,0.43851,0.39714,0.71154,308,2.73033,0.37,0.18202,0.68672,5,2D1U,1.0,True,0.467,30,True,left,-0.16547,0.36,1.2192,0.8592,1.9355,2.4348,0.4993,A
309,0.49642,0.1,2,0.37232,0.23166,0.77773,309,2.30009,-0.15,-0.07446,0.42196,5,2U1D,1.0,True,0.417,28,False,left,0.24821,1.923,2.273,0.35,0.1817,1.0726,0.8909,A
310,0.49642,0.1,1,0.20684,0.40541,0.55434,310,2.34973,0.37,0.18202,0.68672,5,2D1U,1.0,True,1.158,30,True,left,0.0,0.1369,0.9705,0.8337,1.4623,2.1036,0.6413,A
311,0.49642,0.1,1,0.26476,0.43851,0.85219,311,2.72205,0.334,0.16547,0.67017,5,2D1U,1.0,True,0.425,31,True,left,-0.16547,0.1965,1.0133,0.8168,1.8879,2.363,0.4751,A
312,0.49642,1.2,1,0.24821,0.42196,0.79428,312,2.63104,0.334,0.16547,0.67017,5,2D1U,1.0,True,4.233,31,True,left,0.24821,0.1624,1.0037,0.8413,1.5957,2.5126,0.9169,A
313,0.49642,1.2,1,0.35577,0.33095,0.67017,313,2.27527,-0.15,-0.07446,0.42196,5,2U1D,2.0,True,1.3,28,False,right,0.0,0.2706,0.8617,0.5911,1.4541,2.1204,0.6663,A
314,0.49642,1.2,2,0.22339,0.39714,0.53779,314,2.10152,-0.114,-0.05792,0.44678,5,2U1D,1.0,True,0.114,28,False,left,-0.16547,1.3519,1.7183,0.3664,0.2268,0.7267,0.4999,A
315,0.49642,0.1,1,0.3144,0.32268,0.45505,315,2.03533,-0.114,-0.05792,0.44678,5,2U1D,2.0,True,0.142,28,False,right,0.24821,0.2526,0.8441,0.5916,1.1105,2.0018,0.8913,A
316,0.49642,0.1,2,0.41369,0.29785,0.76118,316,2.61449,0.298,0.14893,0.64535,5,2D1U,2.0,True,0.113,31,False,right,0.0,1.8233,2.3986,0.5753,0.3483,0.9898,0.6415,A
317,0.49642,0.1,2,0.25649,0.3475,0.55434,317,2.3001,0.298,0.14893,0.64535,5,2D1U,2.0,True,0.115,31,False,right,-0.16547,1.3765,1.952,0.5754,0.277,0.7521,0.4751,A
318,0.49642,1.2,1,0.44678,0.3144,0.58743,318,2.30836,-0.078,-0.04137,0.46333,5,2U1D,2.0,True,1.018,28,False,right,0.24821,0.3671,1.0007,0.6336,1.3837,2.301,0.9172,A
319,0.49642,1.2,2,0.3475,0.25649,0.52952,319,2.09326,-0.078,-0.04137,0.46333,5,2U1D,2.0,False,0.856,28,False,right,0.0,1.5478,1.9305,0.3827,0.2645,0.9305,0.666,A
320,0.49642,1.2,1,0.40541,0.42196,0.86874,320,2.82133,0.262,0.13238,0.6288,5,2D1U,1.0,True,1.775,31,False,left,-0.16547,0.3231,1.1233,0.8002,1.998,2.4981,0.5001,A
321,0.49642,0.1,1,0.42196,0.43023,0.57916,321,2.37455,-0.114,-0.05792,0.44678,5,2U1D,2.0,True,0.425,29,True,right,0.24821,0.358,0.9488,0.5908,1.3414,2.2328,0.8915,A
322,0.49642,0.1,2,0.33095,0.23166,0.89356,322,2.58139,0.262,0.13238,0.6288,5,2D1U,2.0,True,0.11,31,False,right,0.0,1.8749,2.4339,0.5589,0.2673,0.9088,0.6416,A
323,0.49642,0.1,1,0.26476,0.36404,0.54607,323,2.11807,-0.114,-0.05792,0.44678,5,2U1D,2.0,True,0.599,29,True,right,-0.16547,0.1996,0.7905,0.5909,1.3578,1.832,0.4742,A
324,0.49642,1.2,2,0.38886,0.3475,0.65362,324,2.49866,0.226,0.11583,0.61226,5,2D1U,2.0,True,0.208,31,False,right,0.24821,1.842,2.3762,0.5342,0.1845,1.1009,0.9165,A
325,0.49642,1.2,1,0.33095,0.36404,0.46333,325,2.11807,-0.078,-0.04137,0.46333,5,2U1D,2.0,True,0.2,30,True,right,0.0,0.2535,0.8862,0.6327,1.2706,1.9365,0.6659,A
326,0.49642,1.2,1,0.38059,0.39714,0.67845,326,2.41593,-0.078,-0.04137,0.46333,5,2U1D,1.0,False,0.243,30,True,left,-0.16547,0.2941,0.9275,0.6334,1.6116,2.1118,0.5001,A
327,0.49642,0.1,2,0.33922,0.20684,0.85219,327,2.50693,0.226,0.11583,0.61226,5,2D1U,2.0,True,1.116,31,False,right,0.24821,1.9631,2.5054,0.5423,0.147,1.0386,0.8916,A
328,0.49642,0.1,1,0.38886,0.38059,0.59571,328,2.30836,-0.114,-0.05792,0.44678,5,2U1D,2.0,True,0.434,31,True,right,0.0,0.3206,0.9119,0.5913,1.445,2.0872,0.6422,A
329,0.49642,0.1,2,0.27303,0.38059,0.61226,329,2.35801,0.19,0.09101,0.59571,5,2D1U,1.0,False,0.225,31,False,left,-0.16547,1.4463,1.9719,0.5256,0.2889,0.7638,0.475,A
330,0.49642,1.2,2,0.41369,0.23166,0.6619,330,2.25045,-0.114,-0.05792,0.44678,5,2U1D,1.0,True,0.201,31,True,left,0.24821,1.8735,2.2395,0.366,0.2059,1.1227,0.9167,A
331,0.49642,1.2,2,0.28958,0.44678,0.83565,331,2.68069,0.226,0.11583,0.61226,5,2D1U,2.0,True,0.426,32,True,right,0.0,1.8011,2.3337,0.5326,0.2088,0.876,0.6672,A
332,0.49642,1.2,2,0.26476,0.43851,0.43023,332,2.09325,-0.078,-0.04137,0.46333,5,2U1D,2.0,False,1.181,32,True,right,-0.16547,1.2804,1.6636,0.3831,0.2632,0.7638,0.5006,A
333,0.49642,0.1,1,0.43023,0.19857,0.47988,333,2.05188,-0.114,-0.05792,0.44678,5,2U1D,1.0,False,0.326,33,True,left,0.24821,0.3655,0.9577,0.5922,1.2493,999,997.7507,A
334,0.49642,0.1,2,0.35577,0.3144,0.52952,334,2.30837,0.226,0.11583,0.61226,5,2D1U,2.0,True,0.114,32,True,right,0.0,1.5303,2.0719,0.5416,0.2889,0.9309,0.642,A
335,0.49642,0.1,2,0.33095,0.38059,0.77773,335,2.5814,0.19,0.09101,0.59571,5,2D1U,1.0,False,0.734,33,True,left,-0.16547,1.6706,2.1951,0.5246,0.3456,0.8204,0.4748,A
336,0.49642,1.2,1,0.41369,0.24821,0.40541,336,1.98569,-0.15,-0.07446,0.42196,5,2U1D,2.0,True,0.332,33,False,right,0.24821,0.3312,0.9233,0.5921,1.1235,999,997.8765,A
337,0.49642,1.2,1,0.28958,0.42196,0.51297,337,2.33319,0.226,0.11583,0.61226,5,2D1U,2.0,False,0.367,34,True,right,0.0,0.2095,0.9934,0.7839,1.4263,2.0924,0.6661,A
338,0.49642,1.2,2,0.42196,0.3144,0.786,338,2.64758,0.262,0.13238,0.6288,5,2D1U,2.0,True,0.234,34,False,right,-0.16547,1.797,2.3478,0.5508,0.4221,0.9224,0.5003,A
339,0.49642,0.1,2,0.22339,0.33922,0.71981,339,2.2008,-0.15,-0.07446,0.42196,5,2U1D,1.0,True,0.242,33,False,left,0.24821,1.7138,2.0643,0.3505,0.0314,0.9229,0.8916,A
340,0.49642,0.1,1,0.43023,0.30613,0.59571,340,2.45729,0.262,0.13238,0.6288,5,2D1U,1.0,True,0.341,34,False,left,0.0,0.3616,1.1363,0.7747,1.6704,2.3116,0.6412,A
341,0.49642,0.1,2,0.23166,0.38886,0.87701,341,2.44073,-0.114,-0.05792,0.44678,5,2U1D,1.0,True,1.092,34,True,left,-0.16547,1.6741,2.0486,0.3745,0.2487,0.7242,0.4755,A
342,0.49642,1.2,1,0.39714,0.33922,0.76118,342,2.60622,0.226,0.11583,0.61226,5,2D1U,2.0,False,0.191,35,True,right,0.24821,0.3133,1.0961,0.7827,1.655,2.5718,0.9168,A
343,0.49642,1.2,2,0.25649,0.24821,0.60398,343,2.05188,-0.114,-0.05792,0.44678,5,2U1D,1.0,True,0.451,34,True,left,0.0,1.5355,1.9024,0.3669,0.1768,0.8441,0.6673,A
344,0.49642,1.2,2,0.25649,0.25649,0.84392,344,2.48212,0.262,0.13238,0.6288,5,2D1U,2.0,True,0.167,36,True,right,-0.16547,1.6951,2.2445,0.5494,0.2611,0.7618,0.5006,A
345,0.49642,0.1,2,0.24821,0.23994,0.74463,345,2.19253,-0.078,-0.04137,0.46333,5,2U1D,1.0,True,0.225,34,False,left,0.24821,1.7684,2.16,0.3916,0.0596,0.9522,0.8926,A
346,0.49642,0.1,2,0.23166,0.33095,0.67017,346,2.19253,-0.078,-0.04137,0.46333,5,2U1D,1.0,True,0.2,34,False,left,0.0,1.5484,1.9403,0.392,0.1647,0.8064,0.6417,A
347,0.49642,0.1,2,0.28131,0.30613,0.786,347,2.49866,0.262,0.13238,0.6288,5,2D1U,1.0,False,1.975,36,True,left,-0.16547,1.6326,2.1909,0.5583,0.2997,0.7738,0.4741,A
348,0.49642,1.2,1,0.22339,0.25649,0.55434,348,2.01052,-0.042,-0.02482,0.47988,5,2U1D,2.0,True,0.476,34,False,right,0.24821,0.1439,0.7942,0.6503,1.1445,999,997.8555,A
349,0.49642,1.2,1,0.23166,0.27303,0.76946,349,2.41592,0.298,0.14893,0.64535,5,2D1U,1.0,True,0.451,36,False,left,0.0,0.1515,0.9685,0.8171,1.6593,2.3265,0.6672,A
350,0.49642,1.2,2,0.33922,0.23166,0.42196,350,2.13461,0.298,0.14893,0.64535,5,2D1U,2.0,True,0.111,36,False,right,-0.16547,1.348,1.9151,0.5671,0.3399,0.8402,0.5004,A
351,0.49642,0.1,2,0.44678,0.24821,0.86874,351,2.54003,-0.042,-0.02482,0.47988,5,2U1D,1.0,True,0.592,34,False,left,0.24821,2.0951,2.5032,0.4081,0.2615,1.1531,0.8916,A
352,0.49642,0.1,2,0.32268,0.26476,0.83565,352,2.41593,-0.006,0.0,0.49642,5,2U1D,2.0,False,0.967,34,False,right,0.0,1.805,2.2303,0.4253,0.2549,0.8973,0.6424,A
353,0.49642,0.1,1,0.25649,0.29785,0.46333,353,2.14289,0.262,0.13238,0.6288,5,2D1U,1.0,True,1.505,37,True,left,-0.16547,0.1895,0.9647,0.7752,1.4485,1.9228,0.4742,A
354,0.49642,1.2,1,0.27303,0.39714,0.61226,354,2.25873,-0.042,-0.02482,0.47988,5,2U1D,2.0,True,0.959,35,True,right,0.24821,0.1943,0.8444,0.65,1.2529,2.1699,0.917,A
355,0.49642,1.2,1,0.42196,0.33095,0.79428,355,2.67241,0.262,0.13238,0.6288,5,2D1U,1.0,True,0.111,37,True,left,0.0,0.3383,1.139,0.8007,1.8558,2.5216,0.6658,A
356,0.49642,1.2,1,0.33095,0.33095,0.76118,356,2.39938,-0.042,-0.02482,0.47988,5,2U1D,1.0,False,0.643,35,True,left,-0.16547,0.2503,0.9005,0.6502,1.6677,2.1676,0.4999,A
357,0.49642,0.1,2,0.37232,0.33922,0.77773,357,2.59795,0.226,0.11583,0.61226,5,2D1U,2.0,True,0.167,37,False,right,0.24821,1.9226,2.4647,0.542,0.1814,1.0727,0.8913,A
358,0.49642,0.1,1,0.22339,0.27303,0.5047,358,1.96087,-0.078,-0.04137,0.46333,5,2U1D,2.0,True,0.743,35,False,right,0.0,0.1603,0.7702,0.6099,1.2106,1.8524,0.6418,A
359,0.49642,0.1,1,0.26476,0.43023,0.73636,359,2.3911,-0.078,-0.04137,0.46333,5,2U1D,1.0,False,0.159,35,False,left,-0.16547,0.1986,0.8072,0.6086,1.5655,2.0399,0.4744,A
