,standardDur,audNoise,order,preDur,postDur,isiDur,trial_num,totalDur,delta_dur_percents,deltaDurS,testDurS,intensities,current_stair,responses,is_correct,response_rts,stair_num_reversal,stair_is_reversal,response_keys,conflictDur,recordedOnsetVisualTest,recordedOffsetVisualTest,recordedDurVisualTest,recordedOnsetVisualStandard,recordedOffsetVisualStandard,recordedDurVisualStandard,modalityCue
0,0.49979,1.2,1,0.20825,0.34153,0.53311,0,1.75761,-0.65,-0.32487,0.17493,5,2U1D,1.0,False,5.681,0,False,left,0.1666,0.1372,0.4539,0.3168,0.8372,1.6457,0.8085,A
1,0.49979,1.2,1,0.31654,0.23324,0.808,1,2.70722,0.7,0.34986,0.84965,5,lapse_rate,1.0,True,1.452,0,False,left,-0.0833,0.2521,1.2439,0.9918,2.0272,2.5859,0.5586,A
2,0.49979,1.2,1,0.38318,0.24157,0.40817,2,1.68265,-0.7,-0.34986,0.14994,5,2U1D,2.0,True,0.501,0,False,right,0.1666,0.3183,0.6108,0.2925,0.8684,1.6767,0.8084,A
3,0.49979,1.2,1,0.34153,0.34986,0.79967,3,2.14079,-0.7,-0.34986,0.14994,5,lapse_rate,2.0,True,0.109,0,False,right,-0.0833,0.2708,0.5624,0.2915,1.337,1.8954,0.5584,A
4,0.49979,0.1,2,0.27489,0.2499,0.54144,4,2.39068,0.65,0.32487,0.82466,5,2D1U,2.0,True,1.247,0,False,right,0.1666,1.5666,2.3083,0.7417,0.1086,0.9417,0.8331,A
5,0.49979,1.2,2,0.34153,0.42482,0.66639,5,2.78218,0.7,0.34986,0.84965,5,lapse_rate,2.0,True,0.74,0,False,right,-0.0833,1.6059,2.3804,0.7745,0.3139,0.8722,0.5582,A
6,0.49979,0.1,1,0.39151,0.41649,0.58309,6,2.04082,-0.7,-0.34986,0.14994,5,2U1D,1.0,False,52.175,0,False,left,0.1666,0.3066,0.6234,0.3169,1.0404,1.8736,0.8332,A
7,0.49979,1.2,2,0.28322,0.30821,0.59142,7,2.5073,0.65,0.32487,0.82466,5,2D1U,2.0,True,1.204,0,False,right,-0.0833,1.4714,2.2215,0.75,0.2546,0.8135,0.5589,A
8,0.49979,0.1,2,0.21658,0.32487,0.8913,8,2.78219,0.7,0.34986,0.84965,5,lapse_rate,2.0,True,1.183,0,False,right,0.1666,1.8552,2.6219,0.7667,0.047,0.8798,0.8328,A
9,0.49979,1.2,1,0.27489,0.28322,0.41649,9,1.62433,-0.7,-0.34986,0.14994,5,2U1D,2.0,True,1.239,0,False,right,-0.0833,0.2107,0.5027,0.292,0.894,1.4527,0.5587,A
10,0.49979,0.1,1,0.41649,0.34153,0.88297,10,2.91546,0.55,0.27489,0.77468,5,2D1U,1.0,True,0.717,0,False,left,0.1666,0.3317,1.274,0.9423,1.9903,2.8242,0.8339,A
11,0.49979,0.1,2,0.31654,0.29988,0.64973,11,2.54062,0.55,0.27489,0.77468,5,2D1U,2.0,True,1.565,0,False,right,-0.0833,1.5884,2.2794,0.691,0.271,0.8549,0.5838,A
12,0.49979,0.1,2,0.22491,0.43315,0.59975,12,1.90754,-0.7,-0.34986,0.14994,5,lapse_rate,1.0,True,0.429,0,False,left,0.1666,1.5744,1.6407,0.0663,0.0576,0.8908,0.8332,A
13,0.49979,1.2,2,0.30821,0.43315,0.808,13,2.19909,-0.7,-0.34986,0.14994,5,2U1D,1.0,True,0.385,0,False,left,-0.0833,1.7166,1.7922,0.0756,0.2832,0.842,0.5588,A
14,0.49979,1.2,2,0.39151,0.37485,0.57476,14,2.02417,-0.64,-0.31654,0.18326,5,2U1D,2.0,False,0.485,1,True,right,0.1666,1.6933,1.8016,0.1083,0.2439,1.0525,0.8086,A
15,0.49979,0.1,1,0.31654,0.26656,0.54144,15,2.34903,0.45,0.22491,0.7247,5,2D1U,1.0,True,0.86,0,False,left,-0.0833,0.2356,1.1268,0.8912,1.6285,2.2102,0.5818,A
16,0.49979,1.2,1,0.2499,0.29988,0.75802,16,2.65724,0.7,0.34986,0.84965,5,lapse_rate,2.0,False,0.229,0,False,right,0.1666,0.1861,1.1771,0.9911,1.7855,2.5943,0.8088,A
17,0.49979,0.1,1,0.30821,0.3332,0.44148,17,2.43233,0.7,0.34986,0.84965,5,lapse_rate,1.0,True,0.809,0,False,left,-0.0833,0.227,1.2441,1.017,1.6431,2.2268,0.5837,A
18,0.49979,0.1,1,0.42482,0.23324,0.63307,18,1.94919,-0.676,-0.34153,0.15827,5,2U1D,2.0,True,0.863,2,True,right,0.1666,0.3391,0.6639,0.3249,1.1313,999,997.8687,A
19,0.49979,1.2,2,0.38318,0.28322,0.69138,19,2.58227,0.45,0.22491,0.7247,5,2D1U,2.0,True,0.121,0,False,right,-0.0833,1.6767,2.326,0.6493,0.3596,0.9176,0.558,A
20,0.49979,1.2,2,0.38318,0.43315,0.64973,20,2.11579,-0.7,-0.34986,0.14994,5,lapse_rate,1.0,True,0.338,0,False,left,0.1666,1.7566,1.8317,0.0751,0.2311,1.0393,0.8082,A
21,0.49979,1.2,1,0.29988,0.32487,0.43315,21,1.71596,-0.676,-0.34153,0.15827,5,2U1D,2.0,True,0.463,2,True,right,-0.0833,0.235,0.5353,0.3003,0.9438,1.5026,0.5588,A
22,0.49979,0.1,2,0.40817,0.29988,0.87464,22,2.7572,0.35,0.17493,0.67472,5,2D1U,2.0,True,0.725,0,False,right,0.1666,2.0308,2.623,0.5922,0.2392,1.0726,0.8334,A
23,0.49979,0.1,1,0.21658,0.26656,0.78301,23,1.9492,-0.64,-0.31654,0.18326,5,2U1D,2.0,True,1.078,3,True,right,-0.0833,0.1297,0.4797,0.35,1.2213,1.8051,0.5838,A
24,0.49979,1.2,2,0.29155,0.23324,0.74969,24,2.44899,0.35,0.17493,0.67472,5,2D1U,2.0,True,0.748,0,False,right,0.1666,1.764,2.3637,0.5997,0.1386,0.947,0.8084,A
25,0.49979,1.2,2,0.34986,0.21658,0.40817,25,1.62434,-0.7,-0.34986,0.14994,5,lapse_rate,1.0,True,0.373,0,False,left,-0.0833,1.3536,1.4287,0.0751,0.3208,0.8787,0.5579,A
26,0.49979,0.1,2,0.28322,0.35819,0.54977,26,2.54062,0.7,0.34986,0.84965,5,lapse_rate,2.0,True,0.673,0,False,right,0.1666,1.5776,2.3447,0.7671,0.1111,0.9446,0.8335,A
27,0.49979,1.2,1,0.39151,0.42482,0.73303,27,2.67389,0.25,0.12495,0.62474,5,2D1U,2.0,False,0.268,0,False,right,-0.0833,0.3205,1.087,0.7665,1.7959,2.3539,0.558,A
28,0.49979,0.1,1,0.44981,0.28322,0.46647,28,1.88255,-0.64,-0.31654,0.18326,5,2U1D,2.0,True,2.499,3,True,right,0.1666,0.3619,0.712,0.3501,1.0118,1.8454,0.8335,A
29,0.49979,0.1,1,0.21658,0.42482,0.86631,29,2.66556,0.31,0.15827,0.65806,5,2D1U,1.0,True,0.699,1,True,left,-0.0833,0.1297,0.9546,0.8249,1.7803,2.3631,0.5829,A
30,0.49979,1.2,1,0.39984,0.29155,0.6414,30,2.68223,0.7,0.34986,0.84965,5,lapse_rate,2.0,False,0.325,0,False,right,0.1666,0.3346,1.3261,0.9915,1.8184,2.6267,0.8083,A
31,0.49979,1.2,2,0.34986,0.25823,0.808,31,2.1158,-0.604,-0.29988,0.19992,5,2U1D,2.0,False,0.612,3,False,right,-0.0833,1.755,1.8792,0.1242,0.3216,0.8795,0.5579,A
32,0.49979,1.2,1,0.40817,0.22491,0.6414,32,2.43233,0.31,0.15827,0.65806,5,2D1U,2.0,False,0.416,1,True,right,0.1666,0.3391,1.1392,0.8002,1.6317,2.4402,0.8085,A
33,0.49979,1.2,1,0.19992,0.2499,0.54144,33,2.3407,0.7,0.34986,0.84965,5,lapse_rate,1.0,True,0.401,0,False,left,-0.0833,0.1296,1.1217,0.9922,1.639,2.1968,0.5578,A
34,0.49979,0.1,2,0.38318,0.20825,0.76635,34,2.04083,-0.64,-0.31654,0.18326,5,2U1D,1.0,True,0.967,4,True,left,0.1666,1.8965,1.9959,0.0994,0.2128,1.046,0.8332,A
35,0.49979,0.1,2,0.32487,0.29988,0.77468,35,2.08248,-0.64,-0.31654,0.18326,5,2U1D,1.0,True,0.334,4,True,left,-0.0833,1.7253,1.8257,0.1004,0.2845,0.8672,0.5827,A
36,0.49979,0.1,2,0.34986,0.3332,0.73303,36,2.76553,0.7,0.34986,0.84965,5,lapse_rate,2.0,True,0.557,0,False,right,0.1666,1.8366,2.6031,0.7665,0.1862,1.0197,0.8336,A
37,0.49979,1.2,2,0.31654,0.44981,0.50812,37,2.45731,0.37,0.18326,0.68305,5,2D1U,2.0,True,0.182,1,False,right,-0.0833,1.4292,2.0378,0.6086,0.2967,0.854,0.5572,A
38,0.49979,1.2,1,0.35819,0.25823,0.49146,38,2.45732,0.7,0.34986,0.84965,5,lapse_rate,1.0,True,0.667,0,False,left,0.1666,0.2908,1.2835,0.9927,1.6246,2.432,0.8074,A
39,0.49979,1.2,2,0.22491,0.39984,0.56643,39,2.37402,0.37,0.18326,0.68305,5,2D1U,1.0,False,0.372,1,False,left,-0.0833,1.3885,1.997,0.6085,0.1969,0.7553,0.5584,A
40,0.49979,0.1,2,0.37485,0.37485,0.89963,40,2.34904,-0.604,-0.29988,0.19992,5,2U1D,2.0,False,0.699,5,True,right,0.1666,2.0231,2.1397,0.1166,0.2061,1.0397,0.8336,A
41,0.49979,0.1,2,0.38318,0.2499,0.56643,41,2.41567,0.43,0.21658,0.71637,5,2D1U,2.0,True,0.199,1,False,right,-0.0833,1.5736,2.2066,0.633,0.34,0.924,0.584,A
42,0.49979,1.2,1,0.34153,0.37485,0.63307,42,2.0325,-0.64,-0.31654,0.18326,5,2U1D,2.0,True,0.129,6,True,right,0.1666,0.2763,0.6011,0.3248,1.084,1.8931,0.8091,A
43,0.49979,1.2,2,0.39984,0.39151,0.808,43,2.24908,-0.7,-0.34986,0.14994,5,lapse_rate,1.0,True,1.627,0,False,left,-0.0833,1.8104,1.8856,0.0752,0.3763,0.9349,0.5586,A
44,0.49979,1.2,1,0.34153,0.19992,0.61641,44,2.37402,0.43,0.21658,0.71637,5,2D1U,1.0,True,1.963,1,False,left,0.1666,0.2754,1.1331,0.8578,1.6008,999,997.3992,A
45,0.49979,0.1,1,0.44148,0.44148,0.8913,45,2.45731,-0.64,-0.31654,0.18326,5,2U1D,2.0,True,1.046,6,True,right,-0.0833,0.3564,0.707,0.3506,1.5565,2.1402,0.5838,A
46,0.49979,0.1,1,0.24157,0.40817,0.53311,46,1.83258,-0.7,-0.34986,0.14994,5,lapse_rate,2.0,True,0.584,0,False,right,0.1666,0.1567,0.4736,0.3169,0.8399,1.6734,0.8335,A
47,0.49979,0.1,2,0.41649,0.39151,0.53311,47,2.54061,0.394,0.19992,0.69971,5,2D1U,2.0,True,0.916,2,True,right,-0.0833,1.5744,2.1916,0.6172,0.3754,0.9579,0.5824,A
48,0.49979,1.2,1,0.40817,0.22491,0.4748,48,1.75761,-0.7,-0.34986,0.14994,5,lapse_rate,2.0,True,0.34,0,False,right,0.1666,0.3433,0.6348,0.2915,0.9607,999,998.0393,A
49,0.49979,1.2,1,0.39984,0.35819,0.56643,49,2.02417,-0.604,-0.29988,0.19992,5,2U1D,2.0,True,2.962,7,True,right,-0.0833,0.3292,0.6701,0.3409,1.2117,1.7709,0.5591,A
50,0.49979,1.2,2,0.41649,0.20825,0.54144,50,1.81591,-0.7,-0.34986,0.14994,5,lapse_rate,1.0,True,0.454,0,False,left,0.1666,1.6849,1.7593,0.0743,0.2671,1.0759,0.8087,A
51,0.49979,1.2,2,0.39151,0.22491,0.69971,51,2.51563,0.394,0.19992,0.69971,5,2D1U,2.0,True,0.237,2,True,right,-0.0833,1.6888,2.3134,0.6245,0.3633,0.9219,0.5586,A
52,0.49979,0.1,1,0.39151,0.20825,0.48313,52,1.7826,-0.604,-0.29988,0.19992,5,2U1D,2.0,True,0.406,7,True,right,0.1666,0.3058,0.6727,0.3669,0.9897,999,998.0103,A
53,0.49979,0.1,1,0.3332,0.3332,0.44981,53,2.29905,0.358,0.17493,0.68305,5,2D1U,1.0,True,0.601,2,False,left,-0.0833,0.2488,1.0985,0.8497,1.5073,2.0906,0.5833,A
54,0.49979,1.2,2,0.3332,0.3332,0.87464,54,2.25741,-0.568,-0.28322,0.21658,5,2U1D,1.0,True,0.904,7,False,left,0.1666,1.9342,2.0762,0.1419,0.1842,0.9921,0.8079,A
55,0.49979,0.1,1,0.2499,0.31654,0.74136,55,1.95753,-0.7,-0.34986,0.14994,5,lapse_rate,2.0,True,0.662,0,False,right,-0.0833,0.1644,0.4812,0.3167,1.1812,1.7649,0.5837,A
56,0.49979,1.2,1,0.30821,0.2499,0.71637,56,1.99085,-0.568,-0.28322,0.21658,5,2U1D,2.0,True,0.717,7,False,right,0.1666,0.2383,0.5963,0.358,1.1629,1.9715,0.8087,A
57,0.49979,1.2,1,0.42482,0.36652,0.54977,57,1.99084,-0.7,-0.34986,0.14994,5,lapse_rate,2.0,True,0.7,0,False,right,-0.0833,0.3606,0.6522,0.2916,1.1772,1.7358,0.5586,A
58,0.49979,0.1,1,0.20825,0.41649,0.58309,58,2.39067,0.358,0.17493,0.68305,5,2D1U,1.0,True,1.643,2,False,left,0.1666,0.1224,0.9724,0.85,1.3893,2.2228,0.8335,A
59,0.49979,0.1,2,0.30821,0.34153,0.79967,59,2.09914,-0.7,-0.34986,0.14994,5,lapse_rate,1.0,True,0.598,0,False,left,-0.0833,1.7296,1.7966,0.0669,0.2627,0.8466,0.5839,A
60,0.49979,0.1,2,0.43315,0.28322,0.48313,60,2.35735,0.322,0.15827,0.65806,5,2D1U,2.0,True,3.811,2,False,right,0.1666,1.667,2.2425,0.5754,0.2673,1.0999,0.8326,A
61,0.49979,1.2,2,0.41649,0.39984,0.54144,61,2.0908,-0.532,-0.26656,0.23324,5,2U1D,1.0,True,1.624,7,False,left,-0.0833,1.5546,1.713,0.1584,0.388,0.9469,0.559,A
62,0.49979,1.2,2,0.34986,0.40817,0.49146,62,1.98252,-0.532,-0.26656,0.23324,5,2U1D,1.0,True,1.145,7,False,left,0.1666,1.5618,1.7211,0.1593,0.1962,1.0038,0.8076,A
63,0.49979,0.1,1,0.38318,0.42482,0.74969,63,2.71554,0.322,0.15827,0.65806,5,2D1U,1.0,True,0.108,2,False,left,-0.0833,0.2988,1.1239,0.8251,1.8326,2.4157,0.5831,A
64,0.49979,0.1,2,0.29155,0.41649,0.69138,64,2.04915,-0.7,-0.34986,0.14994,5,lapse_rate,1.0,True,0.136,0,False,left,0.1666,1.7365,1.8028,0.0663,0.1278,0.9611,0.8333,A
65,0.49979,1.2,2,0.28322,0.25823,0.4748,65,2.36569,0.7,0.34986,0.84965,5,lapse_rate,2.0,True,0.404,0,False,right,-0.0833,1.3599,2.1349,0.775,0.2596,0.8185,0.5589,A
66,0.49979,0.1,1,0.38318,0.29155,0.59975,66,2.02417,-0.496,-0.2499,0.2499,5,2U1D,2.0,True,1.405,7,False,right,0.1666,0.2992,0.7159,0.4167,1.1493,1.9827,0.8333,A
67,0.49979,1.2,1,0.34986,0.39151,0.89963,67,2.78219,0.286,0.14161,0.6414,5,2D1U,2.0,False,2.296,2,False,right,-0.0833,0.2801,1.0631,0.7829,1.9377,2.4958,0.5582,A
68,0.49979,0.1,2,0.29988,0.44148,0.75802,68,2.84882,0.7,0.34986,0.84965,5,lapse_rate,2.0,True,0.329,0,False,right,0.1666,1.8115,2.578,0.7666,0.1366,0.9697,0.8331,A
69,0.49979,1.2,1,0.41649,0.3332,0.75802,69,2.2574,-0.496,-0.2499,0.2499,5,2U1D,2.0,True,0.109,7,False,right,-0.0833,0.3474,0.74,0.3926,1.4724,2.0309,0.5584,A
70,0.49979,0.1,2,0.44981,0.32487,0.67472,70,2.60725,0.322,0.15827,0.65806,5,2D1U,2.0,True,0.11,3,True,right,0.1666,1.8776,2.4522,0.5746,0.2858,1.1196,0.8338,A
71,0.49979,1.2,2,0.37485,0.40817,0.75802,71,2.89048,0.7,0.34986,0.84965,5,lapse_rate,2.0,True,0.758,0,False,right,-0.0833,1.7339,2.5096,0.7757,0.3505,0.9088,0.5583,A
72,0.49979,0.1,2,0.42482,0.28322,0.84132,72,2.31571,-0.46,-0.23324,0.26656,5,2U1D,1.0,True,0.729,7,False,left,0.1666,2.014,2.1979,0.1838,0.2559,1.0892,0.8333,A
73,0.49979,1.2,2,0.20825,0.20825,0.808,73,2.38235,0.322,0.15827,0.65806,5,2D1U,2.0,True,1.05,3,True,right,-0.0833,1.6149,2.1987,0.5837,0.1814,0.7398,0.5584,A
74,0.49979,1.2,1,0.27489,0.28322,0.86631,74,2.56561,0.286,0.14161,0.6414,5,2D1U,2.0,False,1.426,4,True,right,0.1666,0.2067,0.9901,0.7834,1.7065,2.5155,0.809,A
75,0.49979,0.1,1,0.34153,0.20825,0.77468,75,2.09081,-0.46,-0.23324,0.26656,5,2U1D,2.0,True,0.458,7,False,right,-0.0833,0.2547,0.6881,0.4333,1.4218,2.0047,0.5829,A
76,0.49979,0.1,1,0.44148,0.2499,0.73303,76,2.07414,-0.7,-0.34986,0.14994,5,lapse_rate,2.0,True,0.22,0,False,right,0.1666,0.3614,0.6791,0.3177,1.2449,2.079,0.8341,A
77,0.49979,0.1,1,0.32487,0.42482,0.65806,77,2.05748,-0.7,-0.34986,0.14994,5,lapse_rate,2.0,True,0.328,0,False,right,-0.0833,0.2399,0.5574,0.3175,1.1731,1.7572,0.5841,A
78,0.49979,0.1,2,0.37485,0.28322,0.6414,78,2.45732,0.322,0.15827,0.65806,5,2D1U,2.0,True,1.15,5,True,right,0.1666,1.7684,2.3429,0.5745,0.2105,1.0438,0.8333,A
79,0.49979,1.2,1,0.42482,0.31654,0.7247,79,2.2574,-0.424,-0.20825,0.29155,5,2U1D,2.0,True,0.254,7,False,right,-0.0833,0.3573,0.79,0.4327,1.4908,2.0482,0.5573,A
80,0.49979,1.2,1,0.42482,0.36652,0.87464,80,2.45732,-0.424,-0.20825,0.29155,5,2U1D,2.0,True,0.274,7,False,right,0.1666,0.3561,0.79,0.4339,1.5151,2.3236,0.8085,A
81,0.49979,0.1,2,0.29155,0.34153,0.66639,81,2.45732,0.322,0.15827,0.65806,5,2D1U,1.0,False,0.689,5,True,left,-0.0833,1.5845,2.1599,0.5753,0.251,0.8357,0.5847,A
82,0.49979,1.2,1,0.26656,0.28322,0.81633,82,2.71555,0.7,0.34986,0.84965,5,lapse_rate,2.0,False,0.642,0,False,right,0.1666,0.1981,1.1892,0.9911,1.8557,2.6643,0.8086,A
83,0.49979,0.1,2,0.24157,0.19992,0.70804,83,1.95753,-0.388,-0.19159,0.30821,5,2U1D,1.0,True,0.67,7,False,left,-0.0833,1.5711,1.796,0.2249,0.197,0.7804,0.5834,A
84,0.49979,0.1,2,0.38318,0.34986,0.87464,84,2.95712,0.7,0.34986,0.84965,5,lapse_rate,2.0,True,0.111,0,False,right,0.1666,2.0052,2.7715,0.7663,0.2135,1.0465,0.833,A
85,0.49979,1.2,2,0.38318,0.22491,0.6414,85,2.43233,0.358,0.17493,0.68305,5,2D1U,2.0,True,0.601,5,False,right,-0.0833,1.6246,2.2325,0.6079,0.3576,0.9156,0.5579,A
86,0.49979,1.2,2,0.34153,0.32487,0.69971,86,2.54895,0.358,0.17493,0.68305,5,2D1U,2.0,True,0.151,5,False,right,0.1666,1.7658,2.374,0.6082,0.1908,0.9994,0.8086,A
87,0.49979,0.1,2,0.24157,0.19992,0.70804,87,1.95753,-0.388,-0.19159,0.30821,5,2U1D,2.0,False,3.047,7,False,right,-0.0833,1.5771,1.8023,0.2252,0.2023,0.7862,0.5839,A
88,0.49979,1.2,2,0.2499,0.34153,0.88297,88,2.12413,-0.7,-0.34986,0.14994,5,lapse_rate,1.0,True,1.35,0,False,left,0.1666,1.8575,1.9329,0.0754,0.0994,0.9073,0.8079,A
89,0.49979,0.1,2,0.41649,0.36652,0.74969,89,2.69055,0.322,0.15827,0.65806,5,2D1U,2.0,True,0.112,6,True,right,-0.0833,1.7919,2.3669,0.575,0.3757,0.9586,0.5828,A
90,0.49979,1.2,1,0.34153,0.39984,0.74969,90,2.14079,-0.7,-0.34986,0.14994,5,lapse_rate,2.0,True,0.125,0,False,right,0.1666,0.2732,0.5651,0.2919,1.1652,1.9732,0.808,A
91,0.49979,1.2,1,0.39984,0.35819,0.69138,91,2.24075,-0.424,-0.20825,0.29155,5,2U1D,2.0,True,1.876,8,True,right,-0.0833,0.3332,0.7668,0.4335,1.4336,1.9921,0.5585,A
92,0.49979,1.2,2,0.30821,0.3332,0.88297,92,2.31572,-0.424,-0.20825,0.29155,5,2U1D,1.0,True,1.276,8,True,left,0.1666,1.917,2.134,0.217,0.1582,0.9671,0.8089,A
93,0.49979,0.1,2,0.27489,0.39984,0.84965,93,2.68223,0.322,0.15827,0.65806,5,2D1U,2.0,True,1.274,6,True,right,-0.0833,1.7474,2.3227,0.5753,0.2305,0.8139,0.5834,A
94,0.49979,1.2,2,0.22491,0.31654,0.62474,94,2.51563,0.7,0.34986,0.84965,5,lapse_rate,2.0,True,0.112,0,False,right,0.1666,1.5708,2.3464,0.7756,0.0706,0.8791,0.8084,A
95,0.49979,0.1,1,0.24157,0.39984,0.70804,95,2.15745,-0.388,-0.19159,0.30821,5,2U1D,2.0,True,0.111,9,True,right,-0.0833,0.1545,0.6294,0.4749,1.2959,1.8794,0.5835,A
96,0.49979,1.2,1,0.21658,0.32487,0.49979,96,2.18243,0.286,0.14161,0.6414,5,2D1U,2.0,False,0.392,6,False,right,0.1666,0.1461,0.9292,0.7831,1.2798,2.0874,0.8077,A
97,0.49979,0.1,1,0.23324,0.38318,0.58309,97,2.54895,0.7,0.34986,0.84965,5,lapse_rate,1.0,True,1.083,0,False,left,-0.0833,0.1471,1.1647,1.0176,1.7055,2.2892,0.5837,A
98,0.49979,1.2,1,0.29155,0.26656,0.88297,98,2.59893,0.322,0.15827,0.65806,5,2D1U,2.0,False,0.497,7,True,right,0.1666,0.2195,1.0198,0.8003,1.7534,2.5618,0.8084,A
99,0.49979,0.1,2,0.30821,0.20825,0.49979,99,1.82425,-0.388,-0.19159,0.30821,5,2U1D,1.0,True,1.368,9,True,left,-0.0833,1.4311,1.6556,0.2245,0.2637,0.8476,0.5839,A
100,0.49979,1.2,2,0.36652,0.39984,0.43315,100,2.54895,0.7,0.34986,0.84965,5,lapse_rate,2.0,True,0.532,0,False,right,0.1666,1.523,2.2977,0.7747,0.2144,1.0232,0.8088,A
101,0.49979,0.1,2,0.44148,0.24157,0.43315,101,2.29904,0.358,0.17493,0.68305,5,2D1U,2.0,True,0.163,7,False,right,-0.0833,1.5006,2.1003,0.5997,0.401,0.9845,0.5835,A
102,0.49979,0.1,2,0.30821,0.2499,0.87464,102,2.08248,-0.7,-0.34986,0.14994,5,lapse_rate,1.0,True,0.529,0,False,left,0.1666,1.9349,2.0014,0.0665,0.143,0.9765,0.8336,A
103,0.49979,1.2,2,0.36652,0.34986,0.87464,103,2.41568,-0.352,-0.17493,0.32487,5,2U1D,1.0,True,0.131,9,False,left,-0.0833,1.8437,2.0936,0.2499,0.3437,0.902,0.5583,A
104,0.49979,1.2,1,0.42482,0.32487,0.69138,104,2.62391,0.358,0.17493,0.68305,5,2D1U,2.0,False,0.425,7,False,right,0.1666,0.3604,1.185,0.8246,1.7273,2.5359,0.8086,A
105,0.49979,0.1,2,0.34986,0.35819,0.59975,105,2.13246,-0.352,-0.17493,0.32487,5,2U1D,1.0,True,0.146,9,False,left,-0.0833,1.5778,1.819,0.2412,0.3116,0.8943,0.5827,A
106,0.49979,0.1,2,0.29155,0.32487,0.44148,106,1.70763,-0.7,-0.34986,0.14994,5,lapse_rate,1.0,True,0.27,0,False,left,0.1666,1.4864,1.5527,0.0664,0.1285,0.9609,0.8324,A
107,0.49979,0.1,2,0.29988,0.31654,0.83299,107,2.29073,-0.316,-0.15827,0.34153,5,2U1D,1.0,True,0.208,9,False,left,-0.0833,1.7569,2.0158,0.2589,0.2565,0.8401,0.5836,A
108,0.49979,1.2,2,0.42482,0.31654,0.81633,108,2.75719,0.394,0.19992,0.69971,5,2D1U,2.0,True,0.106,7,False,right,0.1666,1.9672,2.5924,0.6252,0.2762,1.0846,0.8084,A
109,0.49979,1.2,2,0.34153,0.43315,0.44981,109,1.87422,-0.7,-0.34986,0.14994,5,lapse_rate,1.0,True,0.177,0,False,left,-0.0833,1.3894,1.4646,0.0752,0.315,0.8729,0.5579,A
110,0.49979,1.2,2,0.28322,0.2499,0.83299,110,2.20743,-0.316,-0.15827,0.34153,5,2U1D,1.0,True,0.362,9,False,left,0.1666,1.8398,2.1071,0.2673,0.1314,0.9398,0.8084,A
111,0.49979,0.1,1,0.31654,0.32487,0.69138,111,1.98252,-0.7,-0.34986,0.14994,5,lapse_rate,2.0,True,0.179,0,False,right,-0.0833,0.2337,0.551,0.3173,1.2007,1.7845,0.5838,A
112,0.49979,0.1,2,0.26656,0.28322,0.59975,112,2.34903,0.394,0.19992,0.69971,5,2D1U,2.0,True,0.112,7,False,right,0.1666,1.6149,2.231,0.6161,0.0979,0.931,0.8331,A
113,0.49979,0.1,2,0.3332,0.42482,0.74136,113,2.68222,0.358,0.17493,0.68305,5,2D1U,2.0,True,2.179,8,True,right,-0.0833,1.6981,2.2977,0.5996,0.2896,0.8732,0.5836,A
114,0.49979,0.1,2,0.26656,0.25823,0.56643,114,2.44066,0.7,0.34986,0.84965,5,lapse_rate,2.0,True,0.111,0,False,right,0.1666,1.581,2.3484,0.7673,0.0982,0.9317,0.8336,A
115,0.49979,1.2,2,0.20825,0.41649,0.85798,115,2.3407,-0.28,-0.14161,0.35819,5,2U1D,1.0,True,0.181,9,False,left,-0.0833,1.6635,1.9469,0.2835,0.1802,0.7386,0.5584,A
116,0.49979,1.2,2,0.29155,0.32487,0.67472,116,2.47398,0.358,0.17493,0.68305,5,2D1U,2.0,True,0.107,8,True,right,0.1666,1.6943,2.3019,0.6076,0.1434,0.9522,0.8088,A
117,0.49979,1.2,2,0.28322,0.20825,0.45814,117,2.29905,0.7,0.34986,0.84965,5,lapse_rate,2.0,True,0.5,0,False,right,-0.0833,1.3439,2.1194,0.7755,0.2609,0.8189,0.558,A
118,0.49979,0.1,2,0.31654,0.2499,0.44148,118,1.8659,-0.28,-0.14161,0.35819,5,2U1D,1.0,True,1.619,9,False,left,0.1666,1.5062,1.7817,0.2755,0.1484,0.9811,0.8327,A
119,0.49979,0.1,2,0.26656,0.38318,0.56643,119,2.56561,0.7,0.34986,0.84965,5,lapse_rate,2.0,True,0.207,0,False,right,-0.0833,1.4549,2.2222,0.7673,0.2215,0.8053,0.5837,A
120,0.49979,0.1,2,0.29988,0.42482,0.89963,120,2.78218,0.322,0.15827,0.65806,5,2D1U,2.0,True,0.112,8,False,right,0.1666,1.9465,2.5211,0.5747,0.1297,0.9634,0.8337,A
121,0.49979,1.2,2,0.23324,0.36652,0.54144,121,2.01584,-0.244,-0.12495,0.37485,5,2U1D,1.0,True,0.287,9,False,left,-0.0833,1.3748,1.6758,0.301,0.2085,0.767,0.5584,A
122,0.49979,1.2,1,0.34986,0.28322,0.51645,122,2.30738,0.322,0.15827,0.65806,5,2D1U,2.0,False,0.305,8,False,right,0.1666,0.2859,1.086,0.8,1.4531,2.2606,0.8075,A
123,0.49979,0.1,1,0.21658,0.29155,0.84132,123,2.22409,-0.244,-0.12495,0.37485,5,2U1D,2.0,True,1.521,9,False,right,-0.0833,0.1341,0.6761,0.542,1.4756,2.0594,0.5838,A
124,0.49979,0.1,1,0.36652,0.34153,0.6414,124,2.69889,0.7,0.34986,0.84965,5,lapse_rate,1.0,True,0.19,0,False,left,0.1666,0.2819,1.2977,1.0159,1.7731,2.6064,0.8333,A
125,0.49979,0.1,2,0.35819,0.28322,0.46647,125,2.00751,-0.208,-0.09996,0.39984,5,2U1D,2.0,False,1.171,9,False,right,-0.0833,1.4518,1.7676,0.3157,0.318,0.9009,0.5829,A
126,0.49979,0.1,1,0.32487,0.22491,0.59142,126,1.79093,-0.7,-0.34986,0.14994,5,lapse_rate,2.0,True,0.192,0,False,right,0.1666,0.2367,0.5529,0.3162,0.9782,999,998.0218,A
127,0.49979,1.2,1,0.28322,0.36652,0.49979,127,2.33237,0.358,0.17493,0.68305,5,2D1U,2.0,False,1.53,9,True,right,-0.0833,0.2135,1.0385,0.825,1.5134,2.0724,0.559,A
128,0.49979,1.2,1,0.42482,0.29155,0.43315,128,2.34902,0.394,0.19992,0.69971,5,2D1U,2.0,False,0.195,9,False,right,0.1666,0.3568,1.1985,0.8417,1.4819,2.2899,0.8081,A
129,0.49979,0.1,2,0.37485,0.2499,0.42482,129,1.92421,-0.244,-0.12495,0.37485,5,2U1D,1.0,True,1.755,10,True,left,-0.0833,1.4229,1.7141,0.2912,0.3309,0.9142,0.5833,A
130,0.49979,0.1,2,0.43315,0.28322,0.67472,130,2.74053,0.7,0.34986,0.84965,5,lapse_rate,2.0,True,0.112,0,False,right,0.1666,1.8551,2.6222,0.7671,0.2636,1.0973,0.8337,A
131,0.49979,0.1,1,0.43315,0.26656,0.82466,131,2.39901,-0.244,-0.12495,0.37485,5,2U1D,2.0,True,0.549,10,True,right,-0.0833,0.3518,0.8932,0.5414,1.6767,2.261,0.5842,A
132,0.49979,0.1,2,0.36652,0.3332,0.40817,132,1.75762,-0.7,-0.34986,0.14994,5,lapse_rate,1.0,True,0.267,0,False,left,0.1666,1.5238,1.5897,0.0659,0.1982,1.0316,0.8334,A
133,0.49979,1.2,1,0.2499,0.41649,0.66639,133,2.54894,0.43,0.21658,0.71637,5,2D1U,1.0,True,3.373,9,False,left,-0.0833,0.1828,1.0409,0.8581,1.6821,2.2403,0.5582,A
134,0.49979,1.2,1,0.24157,0.35819,0.74136,134,2.69056,0.7,0.34986,0.84965,5,lapse_rate,2.0,False,0.368,0,False,right,0.1666,0.176,1.1681,0.992,1.7598,2.568,0.8082,A
135,0.49979,1.2,2,0.38318,0.37485,0.42482,135,2.08248,-0.208,-0.09996,0.39984,5,2U1D,2.0,False,0.625,11,True,right,-0.0833,1.4108,1.7367,0.326,0.3611,0.9195,0.5584,A
136,0.49979,0.1,1,0.21658,0.35819,0.82466,136,2.61559,0.43,0.21658,0.71637,5,2D1U,2.0,False,2.766,9,False,right,0.1666,0.1333,1.017,0.8838,1.6747,2.5081,0.8333,A
137,0.49979,0.1,1,0.43315,0.37485,0.53311,137,2.57393,0.466,0.23324,0.73303,5,2D1U,1.0,True,0.178,9,False,left,-0.0833,0.3451,1.2455,0.9004,1.7369,2.3208,0.5839,A
138,0.49979,1.2,1,0.23324,0.22491,0.73303,138,2.06582,-0.244,-0.12495,0.37485,5,2U1D,2.0,True,0.261,12,True,right,0.1666,0.1635,0.6807,0.5172,1.264,2.0719,0.8079,A
139,0.49979,0.1,2,0.27489,0.39151,0.83299,139,2.84883,0.7,0.34986,0.84965,5,lapse_rate,2.0,True,0.196,0,False,right,-0.0833,1.7357,2.5023,0.7666,0.2356,0.8191,0.5834,A
140,0.49979,1.2,1,0.36652,0.21658,0.53311,140,2.34903,0.466,0.23324,0.73303,5,2D1U,1.0,True,1.165,9,False,left,0.1666,0.2967,1.172,0.8753,1.5554,999,997.4446,A
141,0.49979,0.1,2,0.27489,0.29988,0.59142,141,1.81592,-0.7,-0.34986,0.14994,5,lapse_rate,1.0,True,2.213,0,False,left,-0.0833,1.489,1.5556,0.0666,0.2312,0.8145,0.5833,A
142,0.49979,0.1,1,0.25823,0.42482,0.64973,142,2.20742,-0.244,-0.12495,0.37485,5,2U1D,2.0,True,0.567,12,True,right,0.1666,0.1739,0.7162,0.5423,1.1991,2.0329,0.8338,A
143,0.49979,0.1,2,0.23324,0.41649,0.7247,143,2.59059,0.43,0.21658,0.71637,5,2D1U,2.0,True,0.142,10,True,right,-0.0833,1.5812,2.2152,0.634,0.1893,0.773,0.5837,A
144,0.49979,1.2,1,0.28322,0.3332,0.45814,144,1.72429,-0.7,-0.34986,0.14994,5,lapse_rate,2.0,True,0.432,0,False,right,0.1666,0.2191,0.511,0.2919,0.8199,1.6278,0.8079,A
145,0.49979,1.2,2,0.43315,0.32487,0.74969,145,2.40734,-0.208,-0.09996,0.39984,5,2U1D,2.0,False,1.304,13,True,right,-0.0833,1.7796,2.1035,0.3239,0.4034,0.9618,0.5585,A
146,0.49979,1.2,2,0.19992,0.38318,0.4748,146,2.27406,0.43,0.21658,0.71637,5,2D1U,2.0,True,0.239,10,True,right,0.1666,1.3981,2.0397,0.6416,0.0488,0.8562,0.8074,A
147,0.49979,1.2,2,0.30821,0.29155,0.6414,147,1.89089,-0.7,-0.34986,0.14994,5,lapse_rate,1.0,True,0.341,0,False,left,-0.0833,1.5462,1.6213,0.0751,0.2802,0.8378,0.5576,A
148,0.49979,0.1,1,0.41649,0.42482,0.6414,148,2.35735,-0.244,-0.12495,0.37485,5,2U1D,2.0,True,0.666,14,True,right,0.1666,0.3294,0.8711,0.5416,1.346,2.1799,0.834,A
149,0.49979,0.1,1,0.21658,0.37485,0.69138,149,2.63225,0.7,0.34986,0.84965,5,lapse_rate,1.0,True,0.275,0,False,left,-0.0833,0.1308,1.1472,1.0164,1.797,2.3806,0.5836,A
150,0.49979,0.1,2,0.31654,0.19992,0.70804,150,2.09914,-0.244,-0.12495,0.37485,5,2U1D,1.0,True,0.992,14,True,left,0.1666,1.7757,2.0675,0.2918,0.1503,0.9836,0.8333,A
151,0.49979,1.2,1,0.40817,0.44981,0.79967,151,2.85715,0.394,0.19992,0.69971,5,2D1U,2.0,False,0.184,10,False,right,-0.0833,0.3425,1.1848,0.8423,1.96,2.5173,0.5574,A
152,0.49979,1.2,2,0.20825,0.37485,0.49979,152,1.98252,-0.208,-0.09996,0.39984,5,2U1D,1.0,True,0.875,15,True,left,0.1666,1.4306,1.7555,0.3249,0.0561,0.8638,0.8077,A
153,0.49979,1.2,2,0.29988,0.44148,0.43315,153,1.82424,-0.7,-0.34986,0.14994,5,lapse_rate,1.0,True,0.85,0,False,left,-0.0833,1.3313,1.4062,0.075,0.273,0.8318,0.5588,A
154,0.49979,0.1,2,0.22491,0.26656,0.43315,154,2.14078,0.43,0.21658,0.71637,5,2D1U,2.0,True,0.183,11,True,right,0.1666,1.4056,2.0392,0.6336,0.056,0.8896,0.8335,A
155,0.49979,1.2,2,0.24157,0.34153,0.6414,155,1.87423,-0.7,-0.34986,0.14994,5,lapse_rate,1.0,True,1.948,0,False,left,-0.0833,1.4799,1.555,0.0751,0.2134,0.7717,0.5583,A
156,0.49979,0.1,1,0.3332,0.2499,0.43315,156,1.91588,-0.208,-0.09996,0.39984,5,2U1D,2.0,True,0.126,15,True,right,0.1666,0.2476,0.8138,0.5661,1.0805,1.9139,0.8333,A
157,0.49979,1.2,2,0.44148,0.39984,0.85798,157,2.91546,0.43,0.21658,0.71637,5,2D1U,2.0,True,0.107,11,True,right,-0.0833,1.9009,2.5429,0.642,0.4179,0.9759,0.558,A
158,0.49979,1.2,1,0.41649,0.32487,0.42482,158,2.08246,-0.172,-0.0833,0.41649,5,2U1D,2.0,True,0.555,15,False,right,0.1666,0.3501,0.9087,0.5586,1.1838,1.9923,0.8085,A
159,0.49979,0.1,1,0.29155,0.26656,0.8913,159,2.64891,0.394,0.19992,0.69971,5,2D1U,1.0,True,0.234,12,True,left,-0.0833,0.2104,1.0772,0.8668,1.9268,2.5106,0.5837,A
160,0.49979,0.1,2,0.22491,0.34153,0.77468,160,1.99085,-0.7,-0.34986,0.14994,5,lapse_rate,1.0,True,0.383,0,False,left,0.1666,1.7464,1.8131,0.0666,0.055,0.8881,0.8331,A
161,0.49979,1.2,2,0.23324,0.39151,0.52478,161,2.49897,0.7,0.34986,0.84965,5,lapse_rate,2.0,True,0.52,0,False,right,-0.0833,1.3609,2.1356,0.7748,0.2106,0.7691,0.5585,A
162,0.49979,0.1,2,0.37485,0.21658,0.85798,162,2.64891,0.394,0.19992,0.69971,5,2D1U,2.0,True,1.031,12,True,right,0.1666,1.9844,2.6016,0.6172,0.21,1.0433,0.8334,A
163,0.49979,1.2,1,0.27489,0.23324,0.40817,163,1.83258,-0.172,-0.0833,0.41649,5,2U1D,2.0,True,0.824,15,False,right,-0.0833,0.2099,0.7683,0.5584,1.1513,1.7102,0.5589,A
164,0.49979,1.2,1,0.2499,0.27489,0.49979,164,1.95752,-0.136,-0.06664,0.43315,5,2U1D,2.0,True,0.863,15,False,right,0.1666,0.1838,0.759,0.5752,1.1089,1.9175,0.8087,A
165,0.49979,0.1,1,0.27489,0.42482,0.40817,165,2.29072,0.358,0.17493,0.68305,5,2D1U,1.0,True,0.491,12,False,left,-0.0833,0.1888,1.0387,0.8499,1.4054,1.9883,0.583,A
166,0.49979,0.1,1,0.26656,0.2499,0.70804,166,2.57394,0.7,0.34986,0.84965,5,lapse_rate,1.0,True,1.16,0,False,left,0.1666,0.1807,1.1967,1.0161,1.7385,2.572,0.8335,A
167,0.49979,0.1,1,0.32487,0.29155,0.84965,167,2.39901,-0.136,-0.06664,0.43315,5,2U1D,2.0,True,1.361,15,False,right,-0.0833,0.2428,0.8427,0.5999,1.6507,2.2347,0.584,A
168,0.49979,1.2,1,0.31654,0.2499,0.78301,168,2.53229,0.358,0.17493,0.68305,5,2D1U,2.0,False,0.517,12,False,right,0.1666,0.2491,1.0743,0.8252,1.7071,2.5157,0.8086,A
169,0.49979,1.2,2,0.41649,0.30821,0.59142,169,2.51562,0.394,0.19992,0.69971,5,2D1U,2.0,True,0.508,13,True,right,-0.0833,1.6057,2.2308,0.6252,0.3891,0.9475,0.5583,A
170,0.49979,0.1,1,0.19992,0.22491,0.77468,170,2.39901,0.394,0.19992,0.69971,5,2D1U,1.0,True,1.758,13,True,left,0.1666,0.1196,0.9864,0.8668,1.5952,999,997.4048,A
171,0.49979,0.1,2,0.25823,0.43315,0.78301,171,2.65723,0.358,0.17493,0.68305,5,2D1U,2.0,True,0.713,14,True,right,-0.0833,1.6632,2.2626,0.5994,0.2126,0.7968,0.5842,A
172,0.49979,1.2,2,0.34986,0.29988,0.60808,172,2.20742,-0.1,-0.04998,0.44981,5,2U1D,1.0,True,0.806,15,False,left,0.1666,1.6818,2.0567,0.375,0.198,1.0075,0.8095,A
173,0.49979,1.2,2,0.29155,0.21658,0.52478,173,2.21575,0.358,0.17493,0.68305,5,2D1U,2.0,True,0.262,14,True,right,-0.0833,1.4185,2.0275,0.6089,0.2686,0.8265,0.5579,A
174,0.49979,0.1,2,0.21658,0.20825,0.81633,174,2.39901,0.322,0.15827,0.65806,5,2D1U,2.0,True,0.957,14,False,right,0.1666,1.7801,2.3558,0.5758,0.0474,0.8804,0.8329,A
175,0.49979,0.1,1,0.43315,0.31654,0.51645,175,2.21574,-0.1,-0.04998,0.44981,5,2U1D,2.0,True,1.595,15,False,right,-0.0833,0.3486,0.9654,0.6169,1.4401,2.0236,0.5836,A
176,0.49979,1.2,1,0.39984,0.41649,0.57476,176,2.54894,0.322,0.15827,0.65806,5,2D1U,1.0,True,0.256,14,False,left,0.1666,0.3313,1.1311,0.7998,1.5566,2.3644,0.8078,A
177,0.49979,1.2,2,0.40817,0.34153,0.73303,177,2.44899,-0.064,-0.03332,0.46647,5,2U1D,2.0,False,0.977,15,False,right,-0.0833,1.7408,2.1324,0.3916,0.3825,0.9414,0.559,A
178,0.49979,0.1,2,0.34986,0.3332,0.49979,178,2.32404,0.286,0.14161,0.6414,5,2D1U,2.0,True,0.662,14,False,right,0.1666,1.5971,2.1555,0.5584,0.1812,1.0141,0.8329,A
179,0.49979,0.1,2,0.44148,0.36652,0.7247,179,2.67389,0.286,0.14161,0.6414,5,2D1U,2.0,True,1.212,14,False,right,-0.0833,1.788,2.3461,0.5581,0.3962,0.9799,0.5837,A
180,0.49979,1.2,2,0.21658,0.34153,0.57476,180,2.08247,-0.1,-0.04998,0.44981,5,2U1D,2.0,False,2.861,16,True,right,0.1666,1.5187,1.8935,0.3748,0.0684,0.8774,0.8089,A
181,0.49979,1.2,2,0.37485,0.34153,0.89963,181,2.74054,0.25,0.12495,0.62474,5,2D1U,2.0,True,0.975,14,False,right,-0.0833,1.8724,2.4219,0.5495,0.3468,0.9054,0.5586,A
182,0.49979,0.1,1,0.27489,0.34986,0.74136,182,2.49064,0.25,0.12495,0.62474,5,2D1U,1.0,True,0.558,14,False,left,0.1666,0.1892,0.9814,0.7921,1.5554,2.3893,0.8339,A
183,0.49979,0.1,1,0.22491,0.2499,0.89963,183,2.30738,-0.136,-0.06664,0.43315,5,2U1D,2.0,True,0.75,16,False,right,-0.0833,0.1407,0.7404,0.5997,1.5988,2.1821,0.5833,A
184,0.49979,1.2,1,0.27489,0.27489,0.84132,184,2.49897,0.214,0.10829,0.60808,5,2D1U,1.0,True,4.777,14,False,left,0.1666,0.2043,0.9539,0.7496,1.6457,2.4537,0.808,A
185,0.49979,1.2,1,0.28322,0.39151,0.46647,185,2.07414,-0.136,-0.06664,0.43315,5,2U1D,2.0,True,0.43,16,False,right,-0.0833,0.2109,0.7866,0.5757,1.2281,1.7864,0.5584,A
186,0.49979,0.1,2,0.25823,0.36652,0.84132,186,2.57394,0.214,0.10829,0.60808,5,2D1U,2.0,True,0.958,14,False,right,0.1666,1.8517,2.376,0.5243,0.0932,0.9264,0.8332,A
187,0.49979,0.1,1,0.30821,0.24157,0.49146,187,1.99084,-0.1,-0.04998,0.44981,5,2U1D,2.0,True,0.359,17,True,right,-0.0833,0.22,0.8367,0.6166,1.2872,1.8698,0.5827,A
188,0.49979,1.2,1,0.38318,0.34986,0.5581,188,2.24074,-0.1,-0.04998,0.44981,5,2U1D,2.0,True,1.23,17,True,right,0.1666,0.3135,0.9056,0.5921,1.3135,2.1218,0.8082,A
189,0.49979,1.2,1,0.28322,0.44148,0.75802,189,2.57393,0.178,0.09163,0.59142,5,2D1U,2.0,False,0.549,14,False,right,-0.0833,0.2133,0.9464,0.7331,1.6796,2.238,0.5584,A
190,0.49979,0.1,1,0.22491,0.34153,0.59142,190,2.12412,-0.064,-0.03332,0.46647,5,2U1D,2.0,True,0.8,17,False,right,0.1666,0.1388,0.7725,0.6337,1.1982,2.0305,0.8324,A
191,0.49979,0.1,1,0.3332,0.20825,0.4748,191,2.12412,0.214,0.10829,0.60808,5,2D1U,2.0,False,0.818,15,True,right,-0.0833,0.2484,1.0231,0.7747,1.4564,2.0401,0.5836,A
192,0.49979,1.2,2,0.21658,0.38318,0.87464,192,2.44066,-0.064,-0.03332,0.46647,5,2U1D,1.0,True,1.357,17,False,left,0.1666,1.8179,2.2095,0.3916,0.0678,0.8763,0.8085,A
193,0.49979,1.2,2,0.39151,0.26656,0.7247,193,2.5073,0.25,0.12495,0.62474,5,2D1U,2.0,True,0.106,15,False,right,-0.0833,1.7191,2.2695,0.5504,0.3694,0.9273,0.5579,A
194,0.49979,0.1,1,0.36652,0.35819,0.63307,194,2.48231,0.25,0.12495,0.62474,5,2D1U,1.0,True,0.938,15,False,left,0.1666,0.2815,1.0731,0.7916,1.5396,2.3733,0.8337,A
195,0.49979,0.1,1,0.44148,0.24157,0.49146,195,2.15743,-0.028,-0.01666,0.48313,5,2U1D,2.0,True,0.723,17,False,right,-0.0833,0.3565,1.0069,0.6504,1.4568,2.0403,0.5835,A
196,0.49979,1.2,1,0.42482,0.23324,0.54977,196,2.3157,0.214,0.10829,0.60808,5,2D1U,2.0,False,0.24,16,True,right,0.1666,0.3538,1.1038,0.75,1.5033,2.3123,0.809,A
197,0.49979,1.2,2,0.30821,0.39151,0.53311,197,2.35736,0.25,0.12495,0.62474,5,2D1U,2.0,True,0.484,17,True,right,-0.0833,1.4362,1.9859,0.5497,0.278,0.8366,0.5587,A
198,0.49979,0.1,2,0.43315,0.30821,0.82466,198,2.69055,0.25,0.12495,0.62474,5,2D1U,2.0,True,0.417,17,True,right,0.1666,2.0048,2.5469,0.5421,0.2632,1.0966,0.8335,A
199,0.49979,0.1,2,0.34986,0.29155,0.84965,199,2.47398,-0.028,-0.01666,0.48313,5,2U1D,2.0,False,1.22,17,False,right,-0.0833,1.8278,2.2278,0.3999,0.311,0.8944,0.5834,A
200,0.49979,1.2,2,0.44981,0.36652,0.81633,200,2.74053,0.214,0.10829,0.60808,5,2D1U,2.0,True,0.283,18,True,right,0.1666,1.9884,2.5213,0.5329,0.2967,1.1051,0.8084,A
201,0.49979,1.2,1,0.29988,0.35819,0.73303,201,2.35736,-0.064,-0.03332,0.46647,5,2U1D,2.0,True,0.114,18,True,right,-0.0833,0.2346,0.8428,0.6082,1.5516,2.1093,0.5577,A
202,0.49979,0.1,1,0.19992,0.40817,0.77468,202,2.34903,-0.064,-0.03332,0.46647,5,2U1D,2.0,True,0.474,18,True,right,0.1666,0.1153,0.7491,0.6337,1.3568,2.1902,0.8334,A
203,0.49979,0.1,2,0.21658,0.2499,0.6414,203,2.21575,0.214,0.10829,0.60808,5,2D1U,2.0,True,1.042,18,True,right,-0.0833,1.4837,2.0084,0.5247,0.1751,0.7582,0.5831,A
204,0.49979,1.2,1,0.23324,0.35819,0.86631,204,2.54895,0.178,0.09163,0.59142,5,2D1U,2.0,False,1.011,18,False,right,0.1666,0.1671,0.901,0.7339,1.6175,2.4266,0.8091,A
205,0.49979,1.2,2,0.42482,0.41649,0.85798,205,2.68221,-0.028,-0.01666,0.48313,5,2U1D,2.0,False,2.946,19,True,right,-0.0833,1.8777,2.2866,0.4088,0.3954,0.9529,0.5574,A
206,0.49979,0.1,1,0.29155,0.2499,0.4748,206,2.12412,0.214,0.10829,0.60808,5,2D1U,1.0,True,1.095,19,True,left,0.1666,0.2069,0.9817,0.7748,1.29,2.1236,0.8336,A
207,0.49979,0.1,1,0.2499,0.34986,0.86631,207,2.57394,0.214,0.10829,0.60808,5,2D1U,2.0,False,0.108,19,True,right,-0.0833,0.1636,0.9387,0.7751,1.7638,2.3467,0.5829,A
208,0.49979,1.2,1,0.40817,0.40817,0.87464,208,2.65724,-0.064,-0.03332,0.46647,5,2U1D,2.0,True,0.113,20,True,right,0.1666,0.3393,0.947,0.6077,1.6717,2.4801,0.8085,A
209,0.49979,1.2,1,0.28322,0.3332,0.41649,209,1.99917,-0.064,-0.03332,0.46647,5,2U1D,2.0,True,0.417,20,True,right,-0.0833,0.2195,0.8284,0.6089,1.2195,1.7781,0.5586,A
210,0.49979,0.1,1,0.27489,0.24157,0.6414,210,2.14078,-0.028,-0.01666,0.48313,5,2U1D,2.0,True,0.775,21,True,right,0.1666,0.1886,0.8394,0.6508,1.3132,2.1476,0.8344,A
211,0.49979,0.1,2,0.44981,0.22491,0.39984,211,2.19909,0.25,0.12495,0.62474,5,2D1U,2.0,True,0.111,19,False,right,-0.0833,1.4726,2.0136,0.5411,0.4058,0.9891,0.5834,A
212,0.49979,1.2,1,0.39984,0.25823,0.59142,212,2.23241,-0.028,-0.01666,0.48313,5,2U1D,2.0,True,0.292,21,True,right,0.1666,0.3349,0.9601,0.6252,1.4015,2.2099,0.8084,A
213,0.49979,1.2,2,0.20825,0.21658,0.41649,213,1.84923,0.008,0.0,0.50812,5,2U1D,2.0,True,0.993,21,False,right,-0.0833,1.2243,1.6571,0.4328,0.1826,0.7406,0.558,A
214,0.49979,0.1,2,0.34986,0.21658,0.808,214,2.49897,0.25,0.12495,0.62474,5,2D1U,2.0,True,1.215,19,False,right,0.1666,1.9057,2.4477,0.5419,0.181,1.0141,0.8331,A
215,0.49979,0.1,2,0.40817,0.43315,0.68305,215,2.53228,0.008,0.0,0.50812,5,2U1D,2.0,True,0.156,21,False,right,-0.0833,1.7158,2.1405,0.4247,0.3657,0.9484,0.5827,A
216,0.49979,1.2,2,0.31654,0.31654,0.86631,216,2.60726,0.214,0.10829,0.60808,5,2D1U,2.0,True,0.263,20,True,right,0.1666,1.9064,2.4393,0.533,0.1642,0.9726,0.8084,A
217,0.49979,1.2,2,0.36652,0.21658,0.46647,217,2.15744,0.214,0.10829,0.60808,5,2D1U,2.0,True,0.896,20,True,right,-0.0833,1.4335,1.9664,0.5329,0.3418,0.9003,0.5585,A
218,0.49979,0.1,2,0.23324,0.28322,0.67472,218,2.28239,0.178,0.09163,0.59142,5,2D1U,2.0,True,1.097,20,False,right,0.1666,1.6553,2.1637,0.5084,0.0639,0.8972,0.8333,A
219,0.49979,0.1,2,0.20825,0.29155,0.7247,219,2.31571,0.178,0.09163,0.59142,5,2D1U,2.0,True,0.32,20,False,right,-0.0833,1.5541,2.0628,0.5087,0.1629,0.7462,0.5834,A
220,0.49979,1.2,2,0.44148,0.28322,0.74969,220,2.45731,-0.028,-0.01666,0.48313,5,2U1D,2.0,False,0.35,21,False,right,0.1666,1.9125,2.3211,0.4086,0.2878,1.0966,0.8088,A
221,0.49979,1.2,2,0.30821,0.26656,0.45814,221,1.99917,-0.064,-0.03332,0.46647,5,2U1D,1.0,True,0.727,22,True,left,-0.0833,1.3691,1.7604,0.3913,0.286,0.8437,0.5577,A
222,0.49979,0.1,1,0.20825,0.31654,0.44981,222,2.04915,0.142,0.07497,0.57476,5,2D1U,1.0,True,0.45,20,False,left,0.1666,0.1279,0.8694,0.7415,1.1526,1.9857,0.8332,A
223,0.49979,0.1,1,0.21658,0.40817,0.48313,223,2.18243,0.142,0.07497,0.57476,5,2D1U,2.0,False,0.816,20,False,right,-0.0833,0.1356,0.8773,0.7417,1.3186,1.902,0.5834,A
224,0.49979,1.2,1,0.39984,0.20825,0.74969,224,2.32404,-0.064,-0.03332,0.46647,5,2U1D,2.0,True,0.321,22,True,right,0.1666,0.3345,0.9427,0.6082,1.5433,999,997.4567,A
225,0.49979,1.2,1,0.28322,0.2499,0.61641,225,2.24074,0.178,0.09163,0.59142,5,2D1U,2.0,False,0.114,21,True,right,-0.0833,0.2154,0.9485,0.7331,1.5409,2.0982,0.5573,A
226,0.49979,0.1,1,0.38318,0.28322,0.4748,226,2.12412,-0.028,-0.01666,0.48313,5,2U1D,2.0,True,1.518,23,True,right,0.1666,0.3011,0.9514,0.6503,1.2598,2.0929,0.8332,A
227,0.49979,0.1,1,0.20825,0.42482,0.67472,227,2.29071,-0.028,-0.01666,0.48313,5,2U1D,2.0,True,0.11,23,True,right,-0.0833,0.1212,0.7713,0.6502,1.4048,1.9883,0.5835,A
228,0.49979,1.2,2,0.24157,0.20825,0.41649,228,1.87422,0.008,0.0,0.50812,5,2U1D,2.0,True,0.557,23,False,right,0.1666,1.3838,1.8166,0.4328,0.0916,0.9001,0.8085,A
229,0.49979,1.2,2,0.43315,0.36652,0.74136,229,2.6489,0.214,0.10829,0.60808,5,2D1U,2.0,True,0.82,21,False,right,-0.0833,1.7777,2.3113,0.5336,0.4111,0.9696,0.5585,A
230,0.49979,0.1,2,0.42482,0.38318,0.56643,230,2.38234,0.008,0.0,0.50812,5,2U1D,2.0,True,0.792,23,False,right,0.1666,1.7364,2.1625,0.426,0.2534,1.0873,0.8338,A
231,0.49979,0.1,1,0.21658,0.24157,0.74136,231,2.18243,-0.028,-0.01666,0.48313,5,2U1D,2.0,True,0.217,23,False,right,-0.0833,0.1323,0.7828,0.6504,1.4826,2.0656,0.5831,A
232,0.49979,1.2,2,0.24157,0.24157,0.82466,232,2.41567,0.214,0.10829,0.60808,5,2D1U,2.0,True,0.218,21,False,right,0.1666,1.7868,2.3196,0.5328,0.0868,0.8945,0.8077,A
233,0.49979,1.2,1,0.29155,0.29155,0.58309,233,2.2574,0.178,0.09163,0.59142,5,2D1U,2.0,False,0.323,22,True,right,-0.0833,0.2271,0.9603,0.7333,1.5188,2.077,0.5581,A
234,0.49979,0.1,2,0.26656,0.19992,0.61641,234,2.19076,0.214,0.10829,0.60808,5,2D1U,2.0,True,0.125,23,True,right,0.1666,1.6366,2.161,0.5244,0.1024,0.9359,0.8335,A
235,0.49979,0.1,1,0.23324,0.44148,0.66639,235,2.32403,-0.028,-0.01666,0.48313,5,2U1D,2.0,True,0.325,23,False,right,-0.0833,0.1526,0.8025,0.6499,1.4274,2.0107,0.5833,A
236,0.49979,1.2,1,0.42482,0.36652,0.49979,236,2.29904,0.008,0.0,0.50812,5,2U1D,2.0,False,0.107,23,False,right,0.1666,0.3601,1.0099,0.6498,1.3601,2.1683,0.8081,A
237,0.49979,1.2,2,0.2499,0.20825,0.61641,237,2.18243,0.214,0.10829,0.60808,5,2D1U,2.0,True,0.75,23,True,right,-0.0833,1.4646,1.998,0.5334,0.2232,0.7822,0.559,A
238,0.49979,0.1,2,0.35819,0.39151,0.50812,238,2.28239,0.044,0.02499,0.52478,5,2U1D,2.0,True,0.215,24,True,right,0.1666,1.6182,2.06,0.4419,0.1928,1.0268,0.834,A
239,0.49979,0.1,1,0.22491,0.25823,0.52478,239,2.03249,0.044,0.02499,0.52478,5,2U1D,2.0,False,1.241,24,True,right,-0.0833,0.1388,0.8302,0.6914,1.3143,1.8975,0.5833,A
240,0.49979,1.2,2,0.26656,0.27489,0.79134,240,2.424,0.178,0.09163,0.59142,5,2D1U,1.0,False,0.455,24,True,left,0.1666,1.7831,2.2993,0.5162,0.1151,0.9235,0.8084,A
241,0.49979,1.2,1,0.40817,0.25823,0.43315,241,2.14078,0.08,0.04165,0.54144,5,2U1D,1.0,True,0.367,24,False,left,-0.0833,0.3413,1.0249,0.6836,1.434,1.9916,0.5577,A
242,0.49979,0.1,1,0.40817,0.26656,0.54144,242,2.32404,0.214,0.10829,0.60808,5,2D1U,1.0,True,0.708,25,True,left,0.1666,0.3231,1.0981,0.775,1.4733,2.3066,0.8333,A
243,0.49979,0.1,2,0.3332,0.3332,0.69971,243,2.47398,0.214,0.10829,0.60808,5,2D1U,2.0,True,0.146,25,True,right,-0.0833,1.6563,2.1814,0.5251,0.2894,0.8727,0.5834,A
244,0.49979,1.2,2,0.44981,0.44981,0.49979,244,2.44064,0.08,0.04165,0.54144,5,2U1D,2.0,True,0.113,24,False,right,0.1666,1.674,2.1397,0.4657,0.2978,1.1065,0.8087,A
245,0.49979,1.2,1,0.32487,0.38318,0.45814,245,2.19076,0.044,0.02499,0.52478,5,2U1D,2.0,False,0.217,25,True,right,-0.0833,0.254,0.9209,0.6669,1.3543,1.9122,0.5579,A
246,0.49979,0.1,2,0.41649,0.37485,0.43315,246,2.3157,0.178,0.09163,0.59142,5,2D1U,1.0,False,2.367,26,True,left,0.1666,1.5964,2.105,0.5086,0.2463,1.0809,0.8346,A
247,0.49979,0.1,2,0.39984,0.2499,0.54144,247,2.29905,0.214,0.10829,0.60808,5,2D1U,2.0,True,0.912,27,True,right,-0.0833,1.5649,2.0898,0.5248,0.357,0.9404,0.5834,A
248,0.49979,1.2,1,0.36652,0.20825,0.74136,248,2.35736,0.08,0.04165,0.54144,5,2U1D,2.0,False,0.902,26,True,right,0.1666,0.2983,0.9815,0.6832,1.5727,999,997.4273,A
249,0.49979,1.2,1,0.22491,0.21658,0.83299,249,2.38235,0.214,0.10829,0.60808,5,2D1U,2.0,False,0.159,27,True,right,-0.0833,0.1593,0.9088,0.7495,1.7177,2.2759,0.5583,A
250,0.49979,0.1,1,0.37485,0.35819,0.51645,250,2.30738,0.116,0.05831,0.5581,5,2U1D,1.0,True,2.562,26,False,left,0.1666,0.2917,1.0167,0.725,1.3668,2.2005,0.8338,A
251,0.49979,0.1,1,0.43315,0.21658,0.83299,251,2.54061,0.116,0.05831,0.5581,5,2U1D,1.0,True,0.367,26,False,left,-0.0833,0.3453,1.0703,0.725,1.8618,2.4454,0.5837,A
252,0.49979,1.2,1,0.30821,0.23324,0.57476,252,2.24074,0.25,0.12495,0.62474,5,2D1U,2.0,False,0.449,27,False,right,0.1666,0.2423,1.0097,0.7674,1.4342,2.2432,0.809,A
253,0.49979,1.2,2,0.43315,0.44148,0.67472,253,2.69054,0.286,0.14161,0.6414,5,2D1U,2.0,True,1.242,27,False,right,-0.0833,1.7032,2.2699,0.5666,0.4031,0.9615,0.5584,A
254,0.49979,0.1,1,0.2499,0.44981,0.77468,254,2.51562,0.08,0.04165,0.54144,5,2U1D,2.0,False,0.67,27,True,right,0.1666,0.1674,0.8755,0.7082,1.484,2.317,0.833,A
255,0.49979,0.1,2,0.25823,0.26656,0.59142,255,2.1741,0.116,0.05831,0.5581,5,2U1D,2.0,True,0.857,28,True,right,-0.0833,1.4714,1.948,0.4766,0.2132,0.7962,0.583,A
256,0.49979,1.2,1,0.36652,0.24157,0.64973,256,2.39901,0.286,0.14161,0.6414,5,2D1U,2.0,False,0.919,27,False,right,0.1666,0.2984,1.0812,0.7828,1.5813,2.3891,0.8078,A
257,0.49979,1.2,1,0.3332,0.29155,0.69971,257,2.38235,0.116,0.05831,0.5581,5,2U1D,2.0,False,1.149,28,True,right,-0.0833,0.2674,0.9677,0.7003,1.6432,2.201,0.5578,A
258,0.49979,0.1,1,0.26656,0.37485,0.41649,258,2.21575,0.322,0.15827,0.65806,5,2D1U,2.0,False,2.277,27,False,right,0.1666,0.186,1.0109,0.8249,1.2609,2.0947,0.8338,A
259,0.49979,0.1,2,0.2499,0.28322,0.69138,259,2.29905,0.152,0.07497,0.57476,5,2U1D,1.0,False,1.745,28,False,left,-0.0833,1.5676,2.0597,0.4921,0.2097,0.7929,0.5832,A
260,0.49979,1.2,1,0.43315,0.41649,0.6414,260,2.58225,0.188,0.09163,0.59142,5,2U1D,2.0,False,0.137,28,False,right,0.1666,0.366,1.0987,0.7327,1.5901,2.3991,0.809,A
261,0.49979,1.2,1,0.27489,0.34986,0.70804,261,2.51563,0.358,0.17493,0.68305,5,2D1U,2.0,False,0.441,27,False,right,-0.0833,0.2057,1.0303,0.8246,1.7136,2.2726,0.559,A
262,0.49979,0.1,2,0.23324,0.25823,0.44148,262,2.13245,0.394,0.19992,0.69971,5,2D1U,2.0,True,0.116,27,False,right,0.1666,1.4259,2.0418,0.6159,0.0674,0.9003,0.8329,A
263,0.49979,0.1,1,0.40817,0.32487,0.87464,263,2.71555,0.224,0.10829,0.60808,5,2U1D,1.0,True,0.973,28,False,left,-0.0833,0.3255,1.1005,0.7751,1.9341,2.518,0.5839,A
264,0.49979,1.2,1,0.35819,0.28322,0.84965,264,2.69056,0.394,0.19992,0.69971,5,2D1U,2.0,False,1.49,27,False,right,0.1666,0.2897,1.1314,0.8418,1.8315,2.6394,0.8078,A
265,0.49979,1.2,1,0.3332,0.31654,0.88297,265,2.64058,0.224,0.10829,0.60808,5,2U1D,1.0,True,0.258,28,False,left,-0.0833,0.2647,1.0148,0.7501,1.8732,2.4313,0.5581,A
266,0.49979,0.1,2,0.29988,0.36652,0.68305,266,2.56561,0.43,0.21658,0.71637,5,2D1U,2.0,True,0.21,27,False,right,0.1666,1.7314,2.3653,0.6339,0.1318,0.9646,0.8327,A
267,0.49979,0.1,1,0.25823,0.27489,0.63307,267,2.2574,0.188,0.09163,0.59142,5,2U1D,2.0,False,0.596,29,True,right,-0.0833,0.1761,0.9342,0.7581,1.5259,2.1097,0.5838,A
268,0.49979,1.2,1,0.23324,0.35819,0.84132,268,2.54062,0.224,0.10829,0.60808,5,2U1D,2.0,False,0.192,30,True,right,0.1666,0.164,0.9133,0.7493,1.6049,2.4133,0.8085,A
269,0.49979,1.2,2,0.3332,0.2499,0.69138,269,2.49064,0.43,0.21658,0.71637,5,2D1U,2.0,True,0.109,27,False,right,-0.0833,1.6259,2.2676,0.6416,0.3093,0.8674,0.5581,A
270,0.49979,0.1,1,0.21658,0.20825,0.58309,270,2.20742,0.394,0.19992,0.69971,5,2D1U,2.0,False,1.497,28,True,right,0.1666,0.1362,1.0026,0.8664,1.4197,999,997.5803,A
271,0.49979,0.1,2,0.28322,0.36652,0.48313,271,2.26573,0.26,0.13328,0.63307,5,2U1D,1.0,False,1.068,30,False,left,-0.0833,1.3894,1.9399,0.5505,0.2394,0.823,0.5836,A
272,0.49979,1.2,1,0.27489,0.22491,0.64973,272,2.36569,0.43,0.21658,0.71637,5,2D1U,2.0,False,0.127,29,True,right,0.1666,0.2048,1.0632,0.8584,1.5635,2.3717,0.8082,A
273,0.49979,1.2,2,0.38318,0.34153,0.49146,273,2.36569,0.296,0.14994,0.64973,5,2U1D,2.0,True,0.107,30,False,right,-0.0833,1.4718,2.0466,0.5748,0.3547,0.9136,0.5589,A
274,0.49979,0.1,2,0.24157,0.30821,0.73303,274,2.51563,0.466,0.23324,0.73303,5,2D1U,2.0,True,1.641,29,False,right,0.1666,1.7203,2.3698,0.6496,0.0702,0.9034,0.8332,A
275,0.49979,0.1,1,0.41649,0.19992,0.53311,275,2.29904,0.296,0.14994,0.64973,5,2U1D,1.0,True,0.754,30,False,left,-0.0833,0.3332,1.1499,0.8167,1.6427,2.2253,0.5826,A
276,0.49979,1.2,1,0.29988,0.39151,0.86631,276,2.79052,0.466,0.23324,0.73303,5,2D1U,2.0,False,0.111,29,False,right,0.1666,0.2292,1.1043,0.8752,1.8201,2.6286,0.8085,A
277,0.49979,1.2,2,0.39151,0.28322,0.84965,277,2.77386,0.502,0.2499,0.74969,5,2D1U,2.0,True,2.097,29,False,right,-0.0833,1.8443,2.5188,0.6745,0.3687,0.9274,0.5586,A
278,0.49979,0.1,1,0.32487,0.19992,0.82466,278,2.48231,0.26,0.13328,0.63307,5,2U1D,1.0,True,2.617,31,True,left,0.1666,0.2392,1.0392,0.8,1.6975,999,997.3025,A
279,0.49979,0.1,1,0.22491,0.20825,0.70804,279,2.27406,0.26,0.13328,0.63307,5,2U1D,2.0,False,1.425,31,True,right,-0.0833,0.1435,0.9428,0.7994,1.6095,2.1926,0.5832,A
280,0.49979,1.2,2,0.44981,0.35819,0.73303,280,2.79051,0.502,0.2499,0.74969,5,2D1U,2.0,True,1.189,29,False,right,0.1666,1.9028,2.5785,0.6756,0.2947,1.1028,0.808,A
281,0.49979,1.2,1,0.42482,0.24157,0.4748,281,2.29071,0.296,0.14994,0.64973,5,2U1D,2.0,False,1.142,32,True,right,-0.0833,0.3607,1.1523,0.7916,1.6021,2.1607,0.5586,A
282,0.49979,0.1,1,0.2499,0.37485,0.79134,282,2.58227,0.332,0.1666,0.66639,5,2U1D,2.0,False,1.099,32,False,right,0.1666,0.1694,1.0035,0.834,1.6277,2.4617,0.834,A
283,0.49979,0.1,2,0.29155,0.34153,0.50812,283,2.37402,0.466,0.23324,0.73303,5,2D1U,2.0,True,2.184,30,True,right,-0.0833,1.427,2.0775,0.6505,0.2525,0.835,0.5825,A
284,0.49979,1.2,2,0.30821,0.36652,0.8913,284,2.79885,0.466,0.23324,0.73303,5,2D1U,1.0,False,0.327,30,True,left,0.1666,1.9241,2.5816,0.6576,0.1571,0.9643,0.8072,A
285,0.49979,1.2,2,0.39984,0.22491,0.83299,285,2.70722,0.502,0.2499,0.74969,5,2D1U,2.0,True,0.107,31,True,right,-0.0833,1.8307,2.5057,0.6751,0.3723,0.9311,0.5588,A
286,0.49979,0.1,2,0.31654,0.44148,0.78301,286,2.72387,0.368,0.18326,0.68305,5,2U1D,2.0,True,0.416,32,False,right,0.1666,1.8525,2.4531,0.6006,0.1529,0.9864,0.8335,A
287,0.49979,0.1,1,0.43315,0.27489,0.73303,287,2.69055,0.502,0.2499,0.74969,5,2D1U,1.0,True,0.109,31,True,left,-0.0833,0.3516,1.2683,0.9167,1.9597,2.5429,0.5832,A
288,0.49979,1.2,1,0.22491,0.39151,0.60808,288,2.40734,0.368,0.18326,0.68305,5,2U1D,2.0,False,0.254,32,False,right,0.1666,0.1601,0.9862,0.826,1.4444,2.252,0.8076,A
289,0.49979,1.2,1,0.44981,0.21658,0.46647,289,2.36568,0.466,0.23324,0.73303,5,2D1U,1.0,True,0.657,32,True,left,-0.0833,0.384,1.2594,0.8754,1.7012,2.2598,0.5586,A
290,0.49979,0.1,1,0.34986,0.34986,0.69971,290,2.63225,0.466,0.23324,0.73303,5,2D1U,1.0,True,0.384,32,True,left,0.1666,0.2629,1.1627,0.8998,1.6957,2.5299,0.8342,A
291,0.49979,0.1,1,0.38318,0.30821,0.51645,291,2.40734,0.404,0.19992,0.69971,5,2U1D,1.0,True,0.387,32,False,left,-0.0833,0.3032,1.1702,0.867,1.6445,2.2285,0.584,A
292,0.49979,1.2,1,0.41649,0.23324,0.49146,292,2.35735,0.43,0.21658,0.71637,5,2D1U,1.0,True,0.684,32,False,left,0.1666,0.3448,1.204,0.8591,1.5452,2.3544,0.8092,A
293,0.49979,1.2,1,0.32487,0.3332,0.44981,293,2.30738,0.404,0.19992,0.69971,5,2U1D,2.0,False,0.601,32,False,right,-0.0833,0.255,1.096,0.841,1.5217,2.0802,0.5585,A
294,0.49979,0.1,2,0.39984,0.26656,0.69971,294,2.58227,0.44,0.21658,0.71637,5,2U1D,2.0,True,1.906,32,False,right,0.1666,1.8523,2.4847,0.6324,0.2354,1.0687,0.8333,A
295,0.49979,0.1,1,0.32487,0.39984,0.54977,295,2.49064,0.43,0.21658,0.71637,5,2D1U,1.0,True,0.805,32,False,left,-0.0833,0.2396,1.123,0.8834,1.6311,2.2152,0.584,A
296,0.49979,1.2,1,0.34153,0.31654,0.71637,296,2.57394,0.394,0.19992,0.69971,5,2D1U,2.0,False,0.904,32,False,right,0.1666,0.2765,1.1183,0.8418,1.6856,2.4934,0.8078,A
297,0.49979,1.2,2,0.39984,0.24157,0.7247,297,2.58227,0.43,0.21658,0.71637,5,2D1U,2.0,True,0.196,33,True,right,-0.0833,1.7214,2.3632,0.6418,0.372,0.9303,0.5583,A
298,0.49979,0.1,2,0.36652,0.42482,0.808,298,2.8155,0.44,0.21658,0.71637,5,2U1D,2.0,True,0.131,32,False,right,0.1666,1.9274,2.5599,0.6325,0.2018,1.0356,0.8338,A
299,0.49979,0.1,2,0.28322,0.41649,0.45814,299,2.35735,0.404,0.19992,0.69971,5,2U1D,2.0,True,0.336,33,True,right,-0.0833,1.368,1.9851,0.617,0.2438,0.8262,0.5824,A
300,0.49979,1.2,1,0.38318,0.23324,0.79967,300,2.63225,0.43,0.21658,0.71637,5,2D1U,2.0,False,0.106,33,True,right,0.1666,0.3173,1.1757,0.8584,1.8258,2.6341,0.8082,A
301,0.49979,1.2,1,0.34153,0.25823,0.43315,301,2.26573,0.466,0.23324,0.73303,5,2D1U,2.0,False,0.185,33,False,right,-0.0833,0.2729,1.1485,0.8756,1.5568,2.1145,0.5577,A
302,0.49979,0.1,1,0.29155,0.41649,0.74969,302,2.65723,0.404,0.19992,0.69971,5,2U1D,1.0,True,1.515,33,True,left,0.1666,0.2073,1.0743,0.867,1.6569,2.4908,0.8338,A
303,0.49979,0.1,2,0.35819,0.24157,0.49979,303,2.28239,0.368,0.18326,0.68305,5,2U1D,2.0,True,0.114,33,False,right,-0.0833,1.4845,2.0844,0.5999,0.3179,0.9006,0.5827,A
304,0.49979,1.2,2,0.44148,0.19992,0.78301,304,2.67389,0.502,0.2499,0.74969,5,2D1U,2.0,True,0.188,33,False,right,0.1666,1.9479,2.624,0.6761,0.2903,1.0988,0.8085,A
305,0.49979,1.2,1,0.29155,0.30821,0.59142,305,2.37402,0.368,0.18326,0.68305,5,2U1D,1.0,True,4.598,33,False,left,-0.0833,0.2206,1.0451,0.8245,1.6124,2.1701,0.5576,A
306,0.49979,0.1,2,0.27489,0.26656,0.59142,306,2.29905,0.332,0.1666,0.66639,5,2U1D,2.0,True,0.389,33,False,right,0.1666,1.6118,2.1954,0.5836,0.1038,0.9361,0.8324,A
307,0.49979,0.1,2,0.23324,0.34986,0.83299,307,2.66557,0.502,0.2499,0.74969,5,2D1U,2.0,True,1.255,33,False,right,-0.0833,1.6938,2.3602,0.6664,0.1937,0.7772,0.5834,A
308,0.49979,1.2,1,0.25823,0.24157,0.70804,308,2.37402,0.332,0.1666,0.66639,5,2U1D,2.0,False,0.11,33,False,right,0.1666,0.1872,0.9957,0.8085,1.5533,2.3625,0.8093,A
309,0.49979,1.2,1,0.30821,0.28322,0.60808,309,2.43233,0.466,0.23324,0.73303,5,2D1U,1.0,True,0.256,34,True,left,-0.0833,0.2395,1.1148,0.8752,1.6978,2.2561,0.5584,A
310,0.49979,0.1,2,0.34986,0.28322,0.53311,310,2.39901,0.466,0.23324,0.73303,5,2D1U,2.0,True,0.128,34,True,right,0.1666,1.6355,2.2847,0.6492,0.1853,1.0187,0.8334,A
311,0.49979,0.1,2,0.38318,0.29155,0.86631,311,2.7572,0.43,0.21658,0.71637,5,2D1U,2.0,True,0.115,34,False,right,-0.0833,1.8741,2.5081,0.634,0.3414,0.9242,0.5829,A
312,0.49979,1.2,2,0.27489,0.30821,0.7247,312,2.49064,0.368,0.18326,0.68305,5,2U1D,2.0,True,0.492,34,True,right,0.1666,1.7272,2.3358,0.6086,0.1277,0.9362,0.8085,A
313,0.49979,1.2,1,0.23324,0.35819,0.4748,313,2.24907,0.368,0.18326,0.68305,5,2U1D,2.0,False,0.164,34,True,right,-0.0833,0.1691,0.9942,0.8252,1.4437,2.0018,0.5581,A
314,0.49979,0.1,2,0.40817,0.44148,0.5581,314,2.62391,0.43,0.21658,0.71637,5,2D1U,2.0,True,0.467,34,False,right,0.1666,1.7179,2.3529,0.635,0.243,1.0766,0.8336,A
315,0.49979,0.1,2,0.22491,0.25823,0.54144,315,2.22408,0.404,0.19992,0.69971,5,2U1D,2.0,True,0.149,34,False,right,-0.0833,1.3867,2.0041,0.6174,0.1791,0.7621,0.583,A
316,0.49979,1.2,2,0.35819,0.38318,0.65806,316,2.59893,0.404,0.19992,0.69971,5,2U1D,2.0,True,0.407,34,False,right,0.1666,1.7369,2.3624,0.6255,0.2035,1.0116,0.8081,A
317,0.49979,1.2,2,0.38318,0.19992,0.82466,317,2.5906,0.368,0.18326,0.68305,5,2U1D,2.0,True,0.113,35,True,right,-0.0833,1.8097,2.418,0.6083,0.3593,0.9181,0.5588,A
318,0.49979,0.1,1,0.34153,0.3332,0.808,318,2.66557,0.368,0.18326,0.68305,5,2U1D,2.0,False,0.539,35,True,right,0.1666,0.2618,1.1116,0.8498,1.753,2.5869,0.8339,A
319,0.49979,0.1,1,0.34986,0.36652,0.50812,319,2.424,0.394,0.19992,0.69971,5,2D1U,2.0,False,0.114,34,False,right,-0.0833,0.2685,1.1354,0.8669,1.6017,2.1853,0.5836,A
320,0.49979,1.2,2,0.39984,0.37485,0.64973,320,2.64058,0.43,0.21658,0.71637,5,2D1U,2.0,True,0.241,35,True,right,0.1666,1.7733,2.4149,0.6415,0.2482,1.0566,0.8084,A
321,0.49979,1.2,2,0.26656,0.30821,0.71637,321,2.49064,0.404,0.19992,0.69971,5,2U1D,2.0,True,0.709,36,True,right,-0.0833,1.5821,2.2072,0.6251,0.2401,0.7986,0.5585,A
322,0.49979,0.1,2,0.39151,0.20825,0.79134,322,2.60726,0.43,0.21658,0.71637,5,2D1U,2.0,True,0.895,35,True,right,0.1666,1.9338,2.5669,0.6331,0.2252,1.058,0.8327,A
323,0.49979,0.1,2,0.34153,0.25823,0.62474,323,2.424,0.394,0.19992,0.69971,5,2D1U,2.0,True,4.007,36,True,right,-0.0833,1.5925,2.2092,0.6166,0.3007,0.8845,0.5838,A
324,0.49979,1.2,1,0.31654,0.44148,0.7247,324,2.68222,0.404,0.19992,0.69971,5,2U1D,1.0,True,0.179,36,True,left,0.1666,0.2511,1.0926,0.8416,1.6678,2.4765,0.8087,A
325,0.49979,1.2,1,0.40817,0.23324,0.87464,325,2.69889,0.368,0.18326,0.68305,5,2U1D,1.0,True,1.145,37,True,left,-0.0833,0.34,1.1649,0.8248,2.0149,2.5728,0.558,A
326,0.49979,0.1,2,0.24157,0.40817,0.43315,326,2.26573,0.368,0.18326,0.68305,5,2U1D,2.0,True,0.374,37,True,right,0.1666,1.4227,2.0225,0.5998,0.0722,0.9066,0.8344,A
327,0.49979,0.1,2,0.25823,0.25823,0.79134,327,2.47398,0.332,0.1666,0.66639,5,2U1D,2.0,True,0.253,37,False,right,-0.0833,1.6724,2.255,0.5825,0.2134,0.7971,0.5838,A
328,0.49979,1.2,2,0.38318,0.42482,0.85798,328,2.86548,0.394,0.19992,0.69971,5,2D1U,2.0,True,0.113,36,True,right,0.1666,1.9648,2.5904,0.6256,0.2321,1.04,0.8079,A
329,0.49979,1.2,1,0.29988,0.30821,0.65806,329,2.44899,0.358,0.17493,0.68305,5,2D1U,2.0,False,0.13,36,False,right,-0.0833,0.2286,1.0526,0.824,1.6862,2.2442,0.558,A
330,0.49979,0.1,1,0.41649,0.30821,0.49979,330,2.42399,0.394,0.19992,0.69971,5,2D1U,1.0,True,0.486,37,True,left,0.1666,0.3286,1.195,0.8664,1.5282,2.3615,0.8333,A
331,0.49979,0.1,1,0.30821,0.24157,0.68305,331,2.39901,0.332,0.1666,0.66639,5,2U1D,1.0,True,0.405,37,False,left,-0.0833,0.2202,1.0543,0.8341,1.696,2.279,0.583,A
332,0.49979,1.2,1,0.26656,0.34986,0.41649,332,2.18243,0.296,0.14994,0.64973,5,2U1D,2.0,False,0.175,37,False,right,0.1666,0.1968,0.9891,0.7923,1.2556,2.064,0.8084,A
333,0.49979,1.2,2,0.37485,0.35819,0.84132,333,2.77386,0.394,0.19992,0.69971,5,2D1U,2.0,True,0.212,37,True,right,-0.0833,1.8199,2.4447,0.6249,0.3528,0.9113,0.5584,A
334,0.49979,0.1,2,0.34153,0.31654,0.59975,334,2.44066,0.358,0.17493,0.68305,5,2D1U,2.0,True,0.11,38,True,right,0.1666,1.6945,2.2952,0.6007,0.178,1.0115,0.8335,A
335,0.49979,0.1,1,0.28322,0.21658,0.60808,335,2.29072,0.358,0.17493,0.68305,5,2D1U,2.0,False,1.708,38,True,right,-0.0833,0.2017,1.0517,0.8501,1.6181,2.2016,0.5835,A
336,0.49979,1.2,2,0.21658,0.35819,0.40817,336,2.14912,0.332,0.1666,0.66639,5,2U1D,1.0,False,1.612,38,True,left,0.1666,1.3488,1.9402,0.5914,0.0646,0.8728,0.8082,A
337,0.49979,1.2,1,0.39151,0.28322,0.84965,337,2.72388,0.394,0.19992,0.69971,5,2D1U,2.0,False,0.704,39,True,right,-0.0833,0.3211,1.1628,0.8417,1.9882,2.5461,0.558,A
338,0.49979,0.1,1,0.31654,0.27489,0.40817,338,2.18244,0.368,0.18326,0.68305,5,2U1D,2.0,False,3.459,38,False,right,0.1666,0.2308,1.0809,0.8501,1.323,2.1554,0.8324,A
339,0.49979,0.1,1,0.35819,0.25823,0.808,339,2.64058,0.43,0.21658,0.71637,5,2D1U,1.0,True,1.67,39,False,left,-0.0833,0.2727,1.1563,0.8836,1.9229,2.5059,0.583,A
340,0.49979,1.2,1,0.27489,0.26656,0.69971,340,2.44066,0.404,0.19992,0.69971,5,2U1D,2.0,False,0.514,38,False,right,0.1666,0.2097,1.0517,0.8419,1.6016,2.4099,0.8083,A
341,0.49979,1.2,1,0.40817,0.39984,0.75802,341,2.78219,0.44,0.21658,0.71637,5,2U1D,2.0,False,1.575,38,False,right,-0.0833,0.3396,1.198,0.8584,1.9321,2.4896,0.5576,A
342,0.49979,0.1,1,0.30821,0.38318,0.56643,342,2.47398,0.43,0.21658,0.71637,5,2D1U,1.0,True,0.134,39,False,left,0.1666,0.2256,1.109,0.8834,1.509,2.3423,0.8333,A
343,0.49979,0.1,2,0.37485,0.44148,0.74969,343,2.76552,0.394,0.19992,0.69971,5,2D1U,2.0,True,0.484,40,True,right,-0.0833,1.7503,2.3666,0.6163,0.3341,0.9175,0.5834,A
344,0.49979,1.2,1,0.44981,0.44981,0.49979,344,2.59891,0.394,0.19992,0.69971,5,2D1U,2.0,False,0.97,40,True,right,0.1666,0.3818,1.2239,0.8421,1.5737,2.3816,0.8079,A
345,0.49979,1.2,1,0.24157,0.3332,0.85798,345,2.64891,0.43,0.21658,0.71637,5,2D1U,1.0,True,0.418,41,True,left,-0.0833,0.1767,1.0346,0.8579,1.8676,2.4255,0.5579,A
346,0.49979,0.1,2,0.28322,0.35819,0.87464,346,2.7572,0.476,0.24157,0.74136,5,2U1D,1.0,False,0.865,38,False,left,0.1666,1.9054,2.5638,0.6584,0.113,0.947,0.834,A
347,0.49979,0.1,1,0.32487,0.21658,0.66639,347,2.424,0.43,0.21658,0.71637,5,2D1U,2.0,False,1.456,41,True,right,-0.0833,0.2441,1.1276,0.8835,1.7519,2.3357,0.5837,A
348,0.49979,1.2,2,0.3332,0.40817,0.46647,348,2.46565,0.512,0.25823,0.75802,5,2U1D,2.0,True,0.109,38,False,right,0.1666,1.5261,2.2094,0.6833,0.1849,0.9924,0.8075,A
349,0.49979,1.2,2,0.26656,0.3332,0.45814,349,2.29072,0.466,0.23324,0.73303,5,2D1U,2.0,True,0.584,41,False,right,-0.0833,1.3239,1.9822,0.6583,0.2402,0.7985,0.5584,A
350,0.49979,0.1,2,0.2499,0.27489,0.74969,350,2.53229,0.512,0.25823,0.75802,5,2U1D,2.0,True,0.113,38,False,right,0.1666,1.7498,2.4247,0.6749,0.0829,0.9155,0.8327,A
351,0.49979,0.1,1,0.22491,0.37485,0.83299,351,2.6739,0.476,0.24157,0.74136,5,2U1D,1.0,True,0.42,39,True,left,-0.0833,0.1378,1.0472,0.9094,1.838,2.4216,0.5837,A
352,0.49979,1.2,1,0.26656,0.40817,0.64973,352,2.55728,0.466,0.23324,0.73303,5,2D1U,1.0,True,0.647,41,False,left,0.1666,0.1988,1.0736,0.8748,1.5736,2.3822,0.8086,A
353,0.49979,1.2,1,0.39151,0.29155,0.44148,353,2.3407,0.43,0.21658,0.71637,5,2D1U,1.0,True,0.872,42,True,left,-0.0833,0.3265,1.1848,0.8583,1.6008,2.1598,0.559,A
354,0.49979,0.1,2,0.30821,0.27489,0.53311,354,2.35736,0.476,0.24157,0.74136,5,2U1D,2.0,True,0.553,39,True,right,0.1666,1.5935,2.2517,0.6583,0.1431,0.976,0.8329,A
355,0.49979,0.1,2,0.29155,0.30821,0.82466,355,2.64058,0.44,0.21658,0.71637,5,2U1D,2.0,True,0.451,39,False,right,-0.0833,1.7392,2.3726,0.6333,0.247,0.8308,0.5838,A
356,0.49979,1.2,1,0.29988,0.28322,0.84132,356,2.64058,0.43,0.21658,0.71637,5,2D1U,1.0,True,2.384,42,True,left,0.1666,0.2293,1.0879,0.8586,1.7793,2.5868,0.8075,A
357,0.49979,1.2,2,0.34153,0.39151,0.45814,357,2.40734,0.44,0.21658,0.71637,5,2U1D,2.0,True,0.317,39,False,right,-0.0833,1.4023,2.0437,0.6413,0.3184,0.8772,0.5588,A
358,0.49979,0.1,2,0.22491,0.44148,0.79967,358,2.66556,0.394,0.19992,0.69971,5,2D1U,2.0,True,2.571,42,False,right,0.1666,1.7762,2.3928,0.6166,0.0591,0.8932,0.8341,A
359,0.49979,0.1,2,0.36652,0.34153,0.48313,359,2.39068,0.404,0.19992,0.69971,5,2U1D,2.0,True,0.275,39,False,right,-0.0833,1.4736,2.0906,0.617,0.3236,0.9071,0.5836,A
360,0.49979,1.2,1,0.39984,0.26656,0.70804,360,2.57394,0.394,0.19992,0.69971,5,2D1U,1.0,True,0.575,42,False,left,0.1666,0.329,1.1707,0.8417,1.7292,2.5376,0.8084,A
361,0.49979,1.2,1,0.36652,0.23324,0.57476,361,2.35736,0.358,0.17493,0.68305,5,2D1U,2.0,False,0.46,42,False,right,-0.0833,0.2982,1.1234,0.8253,1.6733,2.2314,0.5581,A
362,0.49979,0.1,2,0.24157,0.35819,0.77468,362,2.57394,0.404,0.19992,0.69971,5,2U1D,2.0,True,0.64,39,False,right,0.1666,1.7666,2.3832,0.6167,0.0756,0.9087,0.8331,A
363,0.49979,0.1,1,0.3332,0.29988,0.88297,363,2.69889,0.368,0.18326,0.68305,5,2U1D,1.0,True,5.409,39,False,left,-0.0833,0.2485,1.0982,0.8497,1.9393,2.5233,0.5841,A
364,0.49979,1.2,2,0.39151,0.40817,0.44148,364,2.44066,0.394,0.19992,0.69971,5,2D1U,1.0,False,3.058,43,True,left,0.1666,1.5531,2.1787,0.6256,0.2365,1.045,0.8085,A
365,0.49979,1.2,1,0.27489,0.39984,0.4748,365,2.33237,0.368,0.18326,0.68305,5,2U1D,2.0,False,1.85,39,False,right,-0.0833,0.2055,1.0306,0.8251,1.4802,2.0388,0.5585,A
366,0.49979,0.1,2,0.21658,0.34986,0.6414,366,2.40734,0.404,0.19992,0.69971,5,2U1D,2.0,True,3.979,40,True,right,0.1666,1.6037,2.2204,0.6167,0.0454,0.8781,0.8327,A
367,0.49979,0.1,2,0.30821,0.34986,0.69971,367,2.57394,0.43,0.21658,0.71637,5,2D1U,1.0,False,0.997,43,False,left,-0.0833,1.6373,2.2702,0.633,0.2706,0.854,0.5834,A
368,0.49979,1.2,2,0.22491,0.22491,0.68305,368,2.36569,0.466,0.23324,0.73303,5,2D1U,2.0,True,2.035,43,False,right,0.1666,1.6315,2.2907,0.6592,0.073,0.8816,0.8086,A
369,0.49979,1.2,2,0.32487,0.26656,0.86631,369,2.65724,0.404,0.19992,0.69971,5,2U1D,2.0,True,0.21,40,True,right,-0.0833,1.7889,2.4136,0.6247,0.2974,0.8556,0.5582,A
370,0.49979,0.1,2,0.38318,0.41649,0.5581,370,2.59059,0.466,0.23324,0.73303,5,2D1U,2.0,True,0.476,43,False,right,0.1666,1.6895,2.3397,0.6503,0.215,1.0484,0.8334,A
371,0.49979,0.1,2,0.34986,0.21658,0.67472,371,2.45732,0.43,0.21658,0.71637,5,2D1U,2.0,True,0.173,44,True,right,-0.0833,1.651,2.284,0.633,0.3086,0.8925,0.5839,A
372,0.49979,1.2,1,0.27489,0.36652,0.74969,372,2.57394,0.368,0.18326,0.68305,5,2U1D,1.0,True,0.334,41,True,left,0.1666,0.2115,1.0367,0.8253,1.6368,2.445,0.8082,A
373,0.49979,1.2,2,0.36652,0.38318,0.54977,373,2.51563,0.43,0.21658,0.71637,5,2D1U,2.0,True,0.423,44,True,right,-0.0833,1.5185,2.1593,0.6408,0.3431,0.9017,0.5586,A
374,0.49979,0.1,1,0.29988,0.36652,0.45814,374,2.32404,0.394,0.19992,0.69971,5,2D1U,1.0,True,0.108,44,False,left,0.1666,0.2157,1.0816,0.866,1.3739,2.2065,0.8327,A
375,0.49979,0.1,2,0.39151,0.30821,0.85798,375,2.7572,0.394,0.19992,0.69971,5,2D1U,2.0,True,0.138,44,False,right,-0.0833,1.8744,2.4909,0.6164,0.3501,0.9327,0.5826,A
376,0.49979,1.2,1,0.37485,0.34153,0.74969,376,2.64891,0.368,0.18326,0.68305,5,2U1D,1.0,True,0.445,41,True,left,0.1666,0.312,1.1367,0.8248,1.7377,2.5456,0.8079,A
377,0.49979,1.2,2,0.29988,0.39151,0.84965,377,2.70722,0.332,0.1666,0.66639,5,2U1D,2.0,True,0.23,41,False,right,-0.0833,1.7516,2.3436,0.592,0.2767,0.835,0.5582,A
378,0.49979,0.1,2,0.28322,0.34153,0.78301,378,2.57394,0.332,0.1666,0.66639,5,2U1D,2.0,True,0.111,41,False,right,0.1666,1.8202,2.4037,0.5835,0.1194,0.9533,0.8339,A
379,0.49979,0.1,2,0.29988,0.34986,0.49146,379,2.32404,0.358,0.17493,0.68305,5,2D1U,2.0,True,0.534,44,False,right,-0.0833,1.4202,2.0199,0.5997,0.261,0.8446,0.5836,A
380,0.49979,1.2,2,0.43315,0.23324,0.57476,380,2.42399,0.358,0.17493,0.68305,5,2D1U,2.0,True,0.138,44,False,right,0.1666,1.7311,2.3391,0.608,0.2817,1.0895,0.8078,A
381,0.49979,1.2,2,0.44981,0.44148,0.79134,381,2.83215,0.296,0.14994,0.64973,5,2U1D,2.0,True,0.618,41,False,right,-0.0833,1.8449,2.4199,0.575,0.4275,0.9867,0.5592,A
382,0.49979,0.1,2,0.26656,0.26656,0.54977,382,2.24074,0.322,0.15827,0.65806,5,2D1U,2.0,True,0.216,44,False,right,0.1666,1.5638,2.1391,0.5753,0.0981,0.9311,0.833,A
383,0.49979,0.1,2,0.39984,0.34153,0.61641,383,2.5073,0.296,0.14994,0.64973,5,2U1D,2.0,True,0.111,41,False,right,-0.0833,1.6453,2.2114,0.566,0.3615,0.9448,0.5833,A
384,0.49979,1.2,2,0.41649,0.22491,0.86631,384,2.66556,0.322,0.15827,0.65806,5,2D1U,2.0,True,0.112,44,False,right,0.1666,2.0058,2.5897,0.5839,0.2638,1.0725,0.8087,A
385,0.49979,1.2,1,0.2499,0.26656,0.69971,385,2.35736,0.286,0.14161,0.6414,5,2D1U,2.0,False,1.137,44,False,right,-0.0833,0.1845,0.9667,0.7822,1.6423,2.2008,0.5585,A
386,0.49979,0.1,1,0.21658,0.30821,0.58309,386,2.24074,0.26,0.13328,0.63307,5,2U1D,1.0,True,0.493,41,False,left,0.1666,0.1366,0.9361,0.7995,1.3529,2.1861,0.8332,A
387,0.49979,0.1,1,0.34153,0.32487,0.75802,387,2.58227,0.322,0.15827,0.65806,5,2D1U,2.0,False,0.52,45,True,right,-0.0833,0.2602,1.0843,0.8241,1.8014,2.3842,0.5828,A
388,0.49979,1.2,1,0.19992,0.39984,0.40817,388,2.14079,0.26,0.13328,0.63307,5,2U1D,1.0,True,0.5,41,False,left,0.1666,0.1304,0.9049,0.7745,1.1637,1.9714,0.8077,A
389,0.49979,1.2,2,0.37485,0.42482,0.59142,389,2.49896,0.224,0.10829,0.60808,5,2U1D,2.0,True,0.112,41,False,right,-0.0833,1.566,2.0982,0.5322,0.3486,0.9073,0.5587,A
390,0.49979,0.1,1,0.36652,0.36652,0.68305,390,2.52396,0.224,0.10829,0.60808,5,2U1D,1.0,True,0.54,41,False,left,0.1666,0.2809,1.0552,0.7743,1.5722,2.4051,0.8329,A
391,0.49979,0.1,2,0.20825,0.43315,0.75802,391,2.58226,0.358,0.17493,0.68305,5,2D1U,2.0,True,0.501,45,False,right,-0.0833,1.5924,2.1919,0.5995,0.1671,0.7506,0.5835,A
392,0.49979,1.2,2,0.35819,0.40817,0.89963,392,2.7572,0.188,0.09163,0.59142,5,2U1D,2.0,True,0.627,41,False,right,0.1666,1.9795,2.4961,0.5167,0.2047,1.0135,0.8088,A
393,0.49979,1.2,2,0.35819,0.26656,0.75802,393,2.47398,0.188,0.09163,0.59142,5,2U1D,2.0,True,0.258,41,False,right,-0.0833,1.7147,2.2308,0.5161,0.3314,0.889,0.5576,A
394,0.49979,0.1,1,0.20825,0.44148,0.75802,394,2.59059,0.358,0.17493,0.68305,5,2D1U,1.0,True,0.111,45,False,left,0.1666,0.1214,0.9718,0.8504,1.5634,2.3964,0.833,A
395,0.49979,0.1,1,0.29155,0.29988,0.42482,395,2.0908,0.152,0.07497,0.57476,5,2U1D,2.0,False,1.391,41,False,right,-0.0833,0.2061,0.9478,0.7417,1.3303,1.9145,0.5842,A
396,0.49979,1.2,2,0.34986,0.30821,0.54144,396,2.29072,0.188,0.09163,0.59142,5,2U1D,2.0,True,0.501,42,True,right,0.1666,1.6132,2.1294,0.5162,0.1961,1.0045,0.8083,A
397,0.49979,1.2,1,0.43315,0.43315,0.54144,397,2.56559,0.322,0.15827,0.65806,5,2D1U,2.0,False,0.785,46,True,right,-0.0833,0.3662,1.1662,0.8,1.6831,2.2408,0.5577,A
398,0.49979,0.1,1,0.34986,0.41649,0.51645,398,2.46564,0.358,0.17493,0.68305,5,2D1U,1.0,True,0.706,47,True,left,0.1666,0.2686,1.1197,0.8511,1.4687,2.3023,0.8336,A
399,0.49979,0.1,1,0.3332,0.24157,0.59975,399,2.35736,0.358,0.17493,0.68305,5,2D1U,1.0,True,0.701,47,True,left,-0.0833,0.2499,1.1,0.8502,1.6585,2.2413,0.5828,A
400,0.49979,1.2,2,0.44148,0.29988,0.71637,400,2.54894,0.188,0.09163,0.59142,5,2U1D,2.0,True,0.247,42,True,right,0.1666,1.8813,2.398,0.5167,0.2895,1.0979,0.8084,A
401,0.49979,1.2,2,0.31654,0.41649,0.79134,401,2.68222,0.322,0.15827,0.65806,5,2D1U,2.0,True,0.422,48,True,right,-0.0833,1.7059,2.2897,0.5838,0.2894,0.8471,0.5577,A
402,0.49979,0.1,2,0.36652,0.40817,0.65806,402,2.5906,0.322,0.15827,0.65806,5,2D1U,2.0,True,0.884,48,True,right,0.1666,1.7721,2.3473,0.5752,0.1972,1.0306,0.8334,A
403,0.49979,0.1,2,0.19992,0.24157,0.84132,403,2.35736,0.152,0.07497,0.57476,5,2U1D,2.0,True,0.653,43,True,right,-0.0833,1.6631,2.1549,0.4918,0.155,0.7378,0.5827,A
404,0.49979,1.2,2,0.32487,0.28322,0.66639,404,2.34903,0.152,0.07497,0.57476,5,2U1D,2.0,True,0.225,43,True,right,0.1666,1.7119,2.2123,0.5003,0.1705,0.9791,0.8087,A
405,0.49979,1.2,2,0.39984,0.39151,0.45814,405,2.30738,0.116,0.05831,0.5581,5,2U1D,2.0,True,0.667,43,False,right,-0.0833,1.4596,1.9416,0.482,0.3751,0.9344,0.5593,A
406,0.49979,0.1,1,0.34986,0.27489,0.44148,406,2.20742,0.286,0.14161,0.6414,5,2D1U,2.0,False,1.976,48,False,right,0.1666,0.2677,1.0759,0.8083,1.351,2.1838,0.8328,A
407,0.49979,0.1,1,0.34153,0.41649,0.62474,407,2.44065,0.116,0.05831,0.5581,5,2U1D,1.0,True,0.408,43,False,left,-0.0833,0.2603,0.9857,0.7253,1.5682,2.1517,0.5836,A
408,0.49979,1.2,2,0.43315,0.36652,0.86631,408,2.82383,0.322,0.15827,0.65806,5,2D1U,2.0,True,2.286,49,True,right,0.1666,2.0212,2.604,0.5828,0.2784,1.0878,0.8094,A
409,0.49979,1.2,2,0.21658,0.21658,0.44981,409,2.04082,0.322,0.15827,0.65806,5,2D1U,1.0,False,0.522,49,True,left,-0.0833,1.265,1.8485,0.5835,0.1899,0.7482,0.5583,A
410,0.49979,0.1,2,0.40817,0.34153,0.84965,410,2.64058,0.08,0.04165,0.54144,5,2U1D,1.0,False,0.617,43,False,left,0.1666,2.0114,2.4699,0.4585,0.2448,1.0781,0.8332,A
411,0.49979,0.1,1,0.25823,0.41649,0.41649,411,2.1491,0.116,0.05831,0.5581,5,2U1D,2.0,False,0.234,44,True,right,-0.0833,0.1779,0.903,0.7251,1.2779,1.8616,0.5837,A
412,0.49979,1.2,1,0.19992,0.37485,0.76635,412,2.52396,0.358,0.17493,0.68305,5,2D1U,2.0,False,0.109,49,False,right,0.1666,0.1295,0.955,0.8254,1.5711,2.3797,0.8086,A
413,0.49979,1.2,2,0.34153,0.41649,0.5581,413,2.39067,0.152,0.07497,0.57476,5,2U1D,2.0,True,0.114,44,False,right,-0.0833,1.504,2.0044,0.5004,0.3124,0.8791,0.5667,A
414,0.49979,0.1,1,0.25823,0.26656,0.8913,414,2.61559,0.394,0.19992,0.69971,5,2D1U,1.0,True,0.249,49,False,left,0.1666,0.178,1.0442,0.8663,1.7694,2.6027,0.8333,A
415,0.49979,0.1,1,0.39151,0.28322,0.58309,415,2.33237,0.152,0.07497,0.57476,5,2U1D,1.0,True,1.025,44,False,left,-0.0833,0.3103,1.0521,0.7418,1.5928,2.1767,0.5839,A
416,0.49979,1.2,2,0.39984,0.41649,0.4748,416,2.34902,0.116,0.05831,0.5581,5,2U1D,2.0,True,0.171,45,True,right,0.1666,1.5974,2.0805,0.4831,0.2467,1.0562,0.8095,A
417,0.49979,1.2,1,0.35819,0.3332,0.66639,417,2.55728,0.394,0.19992,0.69971,5,2D1U,1.0,True,0.22,49,False,left,-0.0833,0.2927,1.1346,0.8419,1.7764,2.3347,0.5583,A
418,0.49979,0.1,1,0.39151,0.29988,0.5581,418,2.43233,0.358,0.17493,0.68305,5,2D1U,1.0,True,0.537,50,True,left,0.1666,0.3077,1.1576,0.8498,1.5494,2.3826,0.8332,A
419,0.49979,0.1,2,0.29155,0.34986,0.84965,419,2.54895,0.116,0.05831,0.5581,5,2U1D,1.0,False,1.563,45,True,left,-0.0833,1.7684,2.2433,0.4749,0.2514,0.8347,0.5833,A
420,0.49979,1.2,2,0.35819,0.44148,0.84132,420,2.82383,0.358,0.17493,0.68305,5,2D1U,2.0,True,1.702,50,True,right,0.1666,1.9255,2.5336,0.6082,0.2081,1.0166,0.8085,A
421,0.49979,1.2,1,0.39151,0.41649,0.7247,421,2.69055,0.322,0.15827,0.65806,5,2D1U,1.0,True,0.283,50,False,left,-0.0833,0.3218,1.1216,0.7998,1.8211,2.3797,0.5586,A
422,0.49979,0.1,2,0.20825,0.30821,0.59142,422,2.26573,0.322,0.15827,0.65806,5,2D1U,1.0,False,1.442,50,False,left,0.1666,1.5519,2.127,0.5751,0.0438,0.8768,0.833,A
423,0.49979,0.1,1,0.43315,0.37485,0.53311,423,2.52395,0.358,0.17493,0.68305,5,2D1U,1.0,True,1.412,51,True,left,-0.0833,0.3516,1.2019,0.8503,1.6938,2.2769,0.583,A
424,0.49979,1.2,1,0.25823,0.25823,0.60808,424,2.19909,0.152,0.07497,0.57476,5,2U1D,2.0,False,0.635,46,True,right,0.1666,0.1869,0.9037,0.7169,1.3623,2.1706,0.8083,A
425,0.49979,1.2,1,0.21658,0.22491,0.56643,425,2.19076,0.358,0.17493,0.68305,5,2D1U,2.0,False,0.408,51,True,right,-0.0833,0.1512,0.9761,0.825,1.5179,2.0762,0.5583,A
426,0.49979,0.1,2,0.39984,0.20825,0.67472,426,2.48231,0.394,0.19992,0.69971,5,2D1U,2.0,True,1.297,51,False,right,0.1666,1.8268,2.4432,0.6165,0.2351,1.0685,0.8333,A
427,0.49979,0.1,2,0.23324,0.22491,0.86631,427,2.41567,0.188,0.09163,0.59142,5,2U1D,2.0,True,0.307,46,False,right,-0.0833,1.7228,2.2324,0.5096,0.1904,0.773,0.5826,A
428,0.49979,1.2,2,0.38318,0.41649,0.57476,428,2.46564,0.188,0.09163,0.59142,5,2U1D,2.0,True,0.633,46,False,right,0.1666,1.6845,2.2004,0.5159,0.2338,1.0428,0.8089,A
429,0.49979,1.2,1,0.25823,0.30821,0.76635,429,2.53229,0.394,0.19992,0.69971,5,2D1U,2.0,False,2.386,51,False,right,-0.0833,0.1893,1.0314,0.8421,1.7723,2.3311,0.5588,A
430,0.49979,0.1,1,0.2499,0.36652,0.74136,430,2.43233,0.152,0.07497,0.57476,5,2U1D,1.0,True,0.303,47,True,left,0.1666,0.168,0.9089,0.7409,1.4843,2.3172,0.8329,A
431,0.49979,0.1,2,0.43315,0.37485,0.44981,431,2.33236,0.152,0.07497,0.57476,5,2U1D,2.0,True,0.159,47,True,right,-0.0833,1.5061,1.9975,0.4914,0.389,0.9725,0.5835,A
432,0.49979,1.2,2,0.22491,0.20825,0.86631,432,2.35736,0.116,0.05831,0.5581,5,2U1D,2.0,True,0.156,47,False,right,0.1666,1.815,2.2982,0.4832,0.0729,0.8818,0.8088,A
433,0.49979,1.2,1,0.28322,0.28322,0.68305,433,2.46565,0.43,0.21658,0.71637,5,2D1U,2.0,False,1.166,51,False,right,-0.0833,0.2199,1.0786,0.8587,1.7371,2.2953,0.5581,A
434,0.49979,0.1,1,0.34986,0.3332,0.46647,434,2.38235,0.466,0.23324,0.73303,5,2D1U,1.0,True,2.064,51,False,left,0.1666,0.2632,1.1634,0.9002,1.4635,2.2963,0.8328,A
435,0.49979,0.1,1,0.40817,0.36652,0.49146,435,2.32404,0.116,0.05831,0.5581,5,2U1D,1.0,True,0.975,47,False,left,-0.0833,0.325,1.0496,0.7246,1.4993,2.0828,0.5835,A
436,0.49979,1.2,2,0.44148,0.26656,0.69971,436,2.44898,0.08,0.04165,0.54144,5,2U1D,1.0,False,0.546,47,False,left,0.1666,1.8654,2.3319,0.4665,0.2903,1.0987,0.8084,A
437,0.49979,1.2,2,0.24157,0.40817,0.43315,437,2.31571,0.466,0.23324,0.73303,5,2D1U,2.0,True,0.113,51,False,right,-0.0833,1.2772,1.9357,0.6585,0.2188,0.7771,0.5582,A
438,0.49979,0.1,1,0.27489,0.34153,0.6414,438,2.31571,0.116,0.05831,0.5581,5,2U1D,2.0,False,0.598,48,True,right,0.1666,0.1903,0.9152,0.7249,1.3904,2.2238,0.8333,A
439,0.49979,0.1,1,0.25823,0.31654,0.71637,439,2.36569,0.152,0.07497,0.57476,5,2U1D,1.0,True,0.756,48,False,left,-0.0833,0.1778,0.9198,0.742,1.595,2.1786,0.5836,A
440,0.49979,1.2,2,0.21658,0.31654,0.59975,440,2.34903,0.43,0.21658,0.71637,5,2D1U,2.0,True,0.654,52,True,right,0.1666,1.5405,2.1822,0.6417,0.0656,0.8741,0.8085,A
441,0.49979,1.2,1,0.2499,0.2499,0.76635,441,2.3407,0.152,0.07497,0.57476,5,2U1D,2.0,False,1.33,48,False,right,-0.0833,0.1843,0.8997,0.7154,1.6414,2.1994,0.5581,A
442,0.49979,0.1,2,0.42482,0.41649,0.71637,442,2.77384,0.43,0.21658,0.71637,5,2D1U,2.0,True,2.114,52,True,right,0.1666,1.887,2.5205,0.6335,0.2536,1.0869,0.8333,A
443,0.49979,0.1,2,0.36652,0.35819,0.49146,443,2.30738,0.188,0.09163,0.59142,5,2U1D,2.0,True,1.419,48,False,right,-0.0833,1.4788,1.9871,0.5083,0.3204,0.9043,0.5839,A
444,0.49979,1.2,1,0.31654,0.23324,0.52478,444,2.27406,0.394,0.19992,0.69971,5,2D1U,1.0,True,3.675,52,False,left,0.1666,0.2521,1.0946,0.8425,1.4682,2.2765,0.8083,A
445,0.49979,1.2,2,0.34153,0.34986,0.5581,445,2.3407,0.188,0.09163,0.59142,5,2U1D,2.0,True,0.11,48,False,right,-0.0833,1.5023,2.019,0.5167,0.3189,0.8775,0.5585,A
446,0.49979,0.1,1,0.21658,0.34986,0.61641,446,2.2574,0.152,0.07497,0.57476,5,2U1D,1.0,True,1.472,49,True,left,0.1666,0.1299,0.8711,0.7412,1.3211,2.1546,0.8335,A
447,0.49979,0.1,2,0.43315,0.39151,0.44981,447,2.47397,0.394,0.19992,0.69971,5,2D1U,2.0,True,0.696,52,False,right,-0.0833,1.5106,2.1271,0.6164,0.3939,0.977,0.5831,A
448,0.49979,1.2,2,0.29988,0.32487,0.44981,448,2.14911,0.152,0.07497,0.57476,5,2U1D,2.0,True,0.374,49,True,right,0.1666,1.4775,1.9775,0.5,0.1523,0.9611,0.8088,A
449,0.49979,1.2,1,0.27489,0.28322,0.60808,449,2.34903,0.358,0.17493,0.68305,5,2D1U,2.0,False,1.745,52,False,right,-0.0833,0.2042,1.0291,0.8249,1.6126,2.1708,0.5582,A
450,0.49979,0.1,1,0.34986,0.34986,0.87464,450,2.63225,0.116,0.05831,0.5581,5,2U1D,1.0,True,0.382,49,False,left,0.1666,0.2691,0.9945,0.7254,1.7032,2.5362,0.833,A
451,0.49979,0.1,1,0.29988,0.34153,0.76635,451,2.46565,0.116,0.05831,0.5581,5,2U1D,1.0,True,0.524,49,False,left,-0.0833,0.2187,0.9444,0.7257,1.6692,2.252,0.5829,A
452,0.49979,1.2,2,0.39151,0.30821,0.66639,452,2.40734,0.08,0.04165,0.54144,5,2U1D,2.0,True,0.778,49,False,right,0.1666,1.7802,2.2472,0.467,0.2387,1.0471,0.8084,A
453,0.49979,1.2,1,0.22491,0.19992,0.76635,453,2.39068,0.394,0.19992,0.69971,5,2D1U,2.0,False,1.99,53,True,right,-0.0833,0.1634,1.0046,0.8411,1.7468,2.3049,0.5581,A
454,0.49979,0.1,1,0.39151,0.42482,0.64973,454,2.50729,0.08,0.04165,0.54144,5,2U1D,2.0,False,1.388,49,False,right,0.1666,0.3084,1.0172,0.7088,1.4999,2.3342,0.8343,A
455,0.49979,0.1,1,0.36652,0.40817,0.44981,455,2.44066,0.43,0.21658,0.71637,5,2D1U,1.0,True,0.113,53,False,left,-0.0833,0.2825,1.1658,0.8833,1.5733,2.1573,0.5839,A
456,0.49979,1.2,1,0.2499,0.24157,0.78301,456,2.49064,0.43,0.21658,0.71637,5,2D1U,1.0,True,0.768,53,False,left,0.1666,0.1862,1.044,0.8578,1.6778,2.4855,0.8077,A
457,0.49979,1.2,1,0.42482,0.40817,0.46647,457,2.35735,0.116,0.05831,0.5581,5,2U1D,2.0,False,0.168,50,True,right,-0.0833,0.3561,1.0556,0.6994,1.4971,2.0561,0.5589,A
458,0.49979,0.1,2,0.27489,0.34986,0.85798,458,2.55728,0.152,0.07497,0.57476,5,2U1D,2.0,True,0.872,50,False,right,0.1666,1.8819,2.3736,0.4917,0.1069,0.9407,0.8338,A
459,0.49979,0.1,2,0.2499,0.29988,0.87464,459,2.49897,0.152,0.07497,0.57476,5,2U1D,2.0,True,0.108,50,False,right,-0.0833,1.7482,2.239,0.4909,0.2064,0.7891,0.5827,A
460,0.49979,1.2,1,0.22491,0.44148,0.51645,460,2.38234,0.394,0.19992,0.69971,5,2D1U,1.0,True,0.894,54,True,left,0.1666,0.1579,0.9992,0.8413,1.3662,2.1745,0.8083,A
461,0.49979,1.2,1,0.23324,0.43315,0.41649,461,2.28238,0.394,0.19992,0.69971,5,2D1U,2.0,False,0.909,54,True,right,-0.0833,0.1646,1.0057,0.8411,1.3975,1.9564,0.5589,A
462,0.49979,0.1,2,0.32487,0.44981,0.44981,462,2.28238,0.116,0.05831,0.5581,5,2U1D,1.0,False,0.115,51,True,left,0.1666,1.5234,1.9983,0.4749,0.1567,0.9905,0.8338,A
463,0.49979,0.1,1,0.40817,0.30821,0.50812,463,2.44066,0.43,0.21658,0.71637,5,2D1U,1.0,True,0.309,55,True,left,-0.0833,0.3225,1.2067,0.8842,1.6724,2.2563,0.5838,A
464,0.49979,1.2,1,0.21658,0.20825,0.65806,464,2.15744,0.152,0.07497,0.57476,5,2U1D,2.0,False,0.387,52,True,right,0.1666,0.1481,0.8648,0.7166,1.373,999,997.627,A
465,0.49979,1.2,1,0.21658,0.19992,0.78301,465,2.41567,0.43,0.21658,0.71637,5,2D1U,1.0,True,0.473,55,True,left,-0.0833,0.148,1.0055,0.8575,1.7646,2.3227,0.5582,A
466,0.49979,0.1,1,0.29155,0.27489,0.5581,466,2.21575,0.188,0.09163,0.59142,5,2U1D,2.0,False,0.336,52,False,right,0.1666,0.2075,0.9654,0.7579,1.3571,2.1905,0.8334,A
467,0.49979,0.1,1,0.27489,0.35819,0.67472,467,2.5073,0.394,0.19992,0.69971,5,2D1U,1.0,True,0.771,56,True,left,-0.0833,0.1909,1.0577,0.8668,1.691,2.2749,0.5839,A
468,0.49979,1.2,1,0.35819,0.26656,0.57476,468,2.30738,0.224,0.10829,0.60808,5,2U1D,2.0,False,0.267,52,False,right,0.1666,0.2932,1.0436,0.7505,1.469,2.2772,0.8082,A
469,0.49979,1.2,2,0.42482,0.26656,0.78301,469,2.67389,0.394,0.19992,0.69971,5,2D1U,2.0,True,0.363,56,True,right,-0.0833,1.8109,2.4356,0.6247,0.4028,0.9611,0.5582,A
470,0.49979,0.1,2,0.40817,0.24157,0.70804,470,2.54062,0.358,0.17493,0.68305,5,2D1U,2.0,True,0.508,56,False,right,0.1666,1.8674,2.4668,0.5994,0.2418,1.0757,0.8339,A
471,0.49979,0.1,2,0.29155,0.23324,0.51645,471,2.1741,0.26,0.13328,0.63307,5,2U1D,1.0,False,0.252,52,False,left,-0.0833,1.4347,1.985,0.5502,0.2513,0.8346,0.5833,A
472,0.49979,1.2,1,0.32487,0.34986,0.69138,472,2.54895,0.358,0.17493,0.68305,5,2D1U,1.0,True,0.347,56,False,left,0.1666,0.2585,1.0831,0.8246,1.6245,2.4326,0.8081,A
473,0.49979,1.2,2,0.36652,0.27489,0.88297,473,2.6739,0.296,0.14994,0.64973,5,2U1D,2.0,True,0.111,52,False,right,-0.0833,1.8459,2.421,0.5751,0.3373,0.8953,0.5579,A
474,0.49979,0.1,1,0.29988,0.39151,0.5581,474,2.40734,0.322,0.15827,0.65806,5,2D1U,1.0,True,0.16,56,False,left,0.1666,0.2151,1.0401,0.825,1.4312,2.2646,0.8334,A
475,0.49979,0.1,1,0.21658,0.29155,0.71637,475,2.38235,0.322,0.15827,0.65806,5,2D1U,1.0,True,1.675,56,False,left,-0.0833,0.1333,0.9584,0.8251,1.6335,2.2172,0.5837,A
476,0.49979,1.2,1,0.20825,0.29988,0.71637,476,2.37402,0.296,0.14994,0.64973,5,2U1D,2.0,False,0.167,52,False,right,0.1666,0.1386,0.9312,0.7925,1.4977,2.3062,0.8085,A
477,0.49979,1.2,2,0.39151,0.29988,0.51645,477,2.37402,0.332,0.1666,0.66639,5,2U1D,2.0,True,0.115,52,False,right,-0.0833,1.5042,2.0953,0.5911,0.3624,0.9204,0.558,A
478,0.49979,0.1,2,0.22491,0.39984,0.51645,478,2.28239,0.286,0.14161,0.6414,5,2D1U,2.0,True,0.605,56,False,right,0.1666,1.4938,2.0522,0.5584,0.0603,0.8938,0.8334,A
479,0.49979,0.1,1,0.27489,0.29988,0.67472,479,2.41567,0.332,0.1666,0.66639,5,2U1D,1.0,True,0.112,52,False,left,-0.0833,0.1911,1.0254,0.8344,1.6589,2.2419,0.583,A
480,0.49979,1.2,2,0.39151,0.24157,0.74969,480,2.52396,0.286,0.14161,0.6414,5,2D1U,2.0,True,0.417,56,False,right,0.1666,1.8629,2.4297,0.5668,0.2376,1.0459,0.8083,A
481,0.49979,1.2,2,0.38318,0.21658,0.69138,481,2.44066,0.296,0.14994,0.64973,5,2U1D,2.0,True,0.114,53,True,right,-0.0833,1.6766,2.252,0.5753,0.3604,0.9179,0.5576,A
482,0.49979,0.1,1,0.39151,0.29155,0.56643,482,2.37402,0.25,0.12495,0.62474,5,2D1U,1.0,True,0.667,56,False,left,0.1666,0.305,1.0969,0.7919,1.4974,2.3307,0.8334,A
483,0.49979,0.1,1,0.31654,0.21658,0.7247,483,2.40734,0.296,0.14994,0.64973,5,2U1D,1.0,True,6.526,53,True,left,-0.0833,0.2371,1.0535,0.8165,1.7373,2.3199,0.5827,A
484,0.49979,1.2,2,0.39151,0.37485,0.58309,484,2.48231,0.26,0.13328,0.63307,5,2U1D,2.0,True,0.438,53,False,right,0.1666,1.6966,2.2545,0.558,0.2379,1.0464,0.8085,A
485,0.49979,1.2,2,0.41649,0.28322,0.82466,485,2.65723,0.26,0.13328,0.63307,5,2U1D,2.0,True,0.251,53,False,right,-0.0833,1.8416,2.4003,0.5587,0.3916,0.9505,0.5589,A
486,0.49979,0.1,2,0.24157,0.32487,0.56643,486,2.2574,0.25,0.12495,0.62474,5,2D1U,2.0,True,0.325,56,False,right,0.1666,1.5611,2.1028,0.5418,0.0773,0.9114,0.8341,A
487,0.49979,0.1,1,0.34986,0.38318,0.43315,487,2.27406,0.224,0.10829,0.60808,5,2U1D,2.0,False,2.834,53,False,right,-0.0833,0.2639,1.0392,0.7753,1.4311,2.0142,0.5831,A
488,0.49979,1.2,1,0.44148,0.38318,0.56643,488,2.49896,0.214,0.10829,0.60808,5,2D1U,2.0,False,2.525,56,False,right,0.1666,0.373,1.1221,0.749,1.5397,2.3474,0.8077,A
489,0.49979,1.2,1,0.40817,0.30821,0.39984,489,2.24908,0.26,0.13328,0.63307,5,2U1D,2.0,False,0.312,54,True,right,-0.0833,0.344,1.119,0.775,1.4938,2.0516,0.5577,A
490,0.49979,0.1,2,0.39984,0.24157,0.54977,490,2.31571,0.25,0.12495,0.62474,5,2D1U,1.0,False,0.931,57,True,left,0.1666,1.7034,2.2448,0.5414,0.2366,1.0698,0.8331,A
491,0.49979,0.1,1,0.38318,0.3332,0.46647,491,2.32404,0.286,0.14161,0.6414,5,2D1U,2.0,False,0.28,57,False,right,-0.0833,0.3024,1.1106,0.8083,1.5357,2.1189,0.5832,A
492,0.49979,1.2,1,0.3332,0.22491,0.81633,492,2.53229,0.322,0.15827,0.65806,5,2D1U,1.0,True,0.653,57,False,left,0.1666,0.2659,1.0659,0.8,1.7321,2.5412,0.8091,A
493,0.49979,1.2,2,0.20825,0.37485,0.6414,493,2.37402,0.296,0.14994,0.64973,5,2U1D,2.0,True,0.107,54,False,right,-0.0833,1.4459,2.0207,0.5748,0.1796,0.7375,0.5579,A
494,0.49979,0.1,2,0.22491,0.39984,0.48313,494,2.26573,0.322,0.15827,0.65806,5,2D1U,2.0,True,0.11,57,False,right,0.1666,1.4536,2.0283,0.5746,0.0536,0.887,0.8333,A
495,0.49979,0.1,2,0.22491,0.43315,0.57476,495,2.37401,0.286,0.14161,0.6414,5,2D1U,2.0,True,0.111,58,True,right,-0.0833,1.4198,1.9777,0.5579,0.1783,0.7611,0.5829,A
496,0.49979,1.2,2,0.39151,0.25823,0.6414,496,2.44066,0.296,0.14994,0.64973,5,2U1D,2.0,True,0.159,54,False,right,0.1666,1.7614,2.3366,0.5752,0.2445,1.053,0.8085,A
497,0.49979,1.2,1,0.29155,0.44148,0.74136,497,2.61558,0.286,0.14161,0.6414,5,2D1U,1.0,True,0.993,58,True,left,-0.0833,0.2225,1.0065,0.784,1.7231,2.281,0.5579,A
498,0.49979,0.1,1,0.2499,0.38318,0.62474,498,2.39068,0.26,0.13328,0.63307,5,2U1D,2.0,False,0.491,55,True,right,0.1666,0.1637,0.9628,0.799,1.4212,2.2551,0.8339,A
499,0.49979,0.1,1,0.20825,0.21658,0.53311,499,2.08247,0.25,0.12495,0.62474,5,2D1U,1.0,True,0.9,58,False,left,-0.0833,0.1229,0.9142,0.7913,1.4063,1.9887,0.5825,A
500,0.49979,1.2,1,0.41649,0.24157,0.61641,500,2.42399,0.296,0.14994,0.64973,5,2U1D,2.0,False,0.196,56,True,right,0.1666,0.3467,1.1384,0.7917,1.605,2.4133,0.8083,A
501,0.49979,1.2,2,0.32487,0.23324,0.66639,501,2.39068,0.332,0.1666,0.66639,5,2U1D,2.0,True,0.112,56,False,right,-0.0833,1.5893,2.1805,0.5912,0.297,0.8559,0.5588,A
502,0.49979,0.1,2,0.19992,0.37485,0.49146,502,2.19076,0.25,0.12495,0.62474,5,2D1U,2.0,True,0.573,58,False,right,0.1666,1.4366,1.9786,0.542,0.0283,0.8619,0.8335,A
503,0.49979,0.1,2,0.32487,0.22491,0.69138,503,2.34903,0.214,0.10829,0.60808,5,2D1U,2.0,True,0.26,58,False,right,-0.0833,1.6386,2.1639,0.5253,0.2794,0.8639,0.5845,A
504,0.49979,1.2,1,0.40817,0.42482,0.4748,504,2.41566,0.214,0.10829,0.60808,5,2D1U,2.0,False,0.174,58,False,right,0.1666,0.3447,1.0944,0.7497,1.42,2.2283,0.8083,A
505,0.49979,1.2,1,0.43315,0.29988,0.67472,505,2.57393,0.332,0.1666,0.66639,5,2U1D,2.0,False,0.509,56,False,right,-0.0833,0.3655,1.1734,0.8079,1.8235,2.3819,0.5584,A
506,0.49979,0.1,2,0.30821,0.3332,0.6414,506,2.46565,0.368,0.18326,0.68305,5,2U1D,2.0,True,0.161,56,False,right,0.1666,1.7027,2.3029,0.6003,0.1448,0.978,0.8333,A
507,0.49979,0.1,2,0.27489,0.2499,0.81633,507,2.46565,0.25,0.12495,0.62474,5,2D1U,2.0,True,0.145,59,True,right,-0.0833,1.7142,2.2555,0.5412,0.231,0.8144,0.5835,A
508,0.49979,1.2,1,0.43315,0.19992,0.56643,508,2.38234,0.368,0.18326,0.68305,5,2U1D,1.0,True,5.526,56,False,left,0.1666,0.3659,1.1911,0.8253,1.6077,999,997.3923,A
509,0.49979,1.2,2,0.44148,0.42482,0.46647,509,2.49895,0.332,0.1666,0.66639,5,2U1D,2.0,True,0.556,57,True,right,-0.0833,1.5094,2.1011,0.5917,0.4172,0.976,0.5587,A
510,0.49979,0.1,2,0.34153,0.22491,0.79967,510,2.49064,0.25,0.12495,0.62474,5,2D1U,1.0,False,0.781,59,True,left,0.1666,1.8938,2.4347,0.5409,0.1763,1.01,0.8338,A
511,0.49979,0.1,2,0.27489,0.43315,0.50812,511,2.38234,0.332,0.1666,0.66639,5,2U1D,2.0,True,0.106,57,True,right,-0.0833,1.4051,1.9876,0.5825,0.2296,0.813,0.5834,A
512,0.49979,1.2,1,0.22491,0.21658,0.44148,512,2.02416,0.286,0.14161,0.6414,5,2D1U,2.0,False,1.728,59,False,right,0.1666,0.1561,0.9397,0.7836,1.2313,999,997.7687,A
513,0.49979,1.2,2,0.2499,0.37485,0.6414,513,2.41567,0.296,0.14994,0.64973,5,2U1D,2.0,True,0.41,57,False,right,-0.0833,1.4891,2.0639,0.5748,0.2225,0.7805,0.558,A
514,0.49979,0.1,1,0.26656,0.25823,0.64973,514,2.32404,0.296,0.14994,0.64973,5,2U1D,1.0,True,0.688,57,False,left,0.1666,0.1782,0.9949,0.8166,1.479,2.3118,0.8328,A
515,0.49979,0.1,1,0.37485,0.29988,0.49146,515,2.29905,0.26,0.13328,0.63307,5,2U1D,2.0,False,0.225,57,False,right,-0.0833,0.2882,1.088,0.7998,1.5386,2.1216,0.583,A
516,0.49979,1.2,2,0.42482,0.24157,0.53311,516,2.35735,0.322,0.15827,0.65806,5,2D1U,2.0,True,0.935,59,False,right,0.1666,1.6858,2.2693,0.5834,0.278,1.0864,0.8084,A
517,0.49979,1.2,1,0.41649,0.22491,0.63307,517,2.43232,0.322,0.15827,0.65806,5,2D1U,2.0,False,0.716,59,False,right,-0.0833,0.3527,1.1529,0.8002,1.7615,2.3202,0.5587,A
518,0.49979,0.1,2,0.25823,0.3332,0.7247,518,2.46565,0.296,0.14994,0.64973,5,2U1D,2.0,True,0.648,58,True,right,0.1666,1.7353,2.3021,0.5668,0.0938,0.9277,0.834,A
519,0.49979,0.1,1,0.24157,0.2499,0.4748,519,2.14911,0.358,0.17493,0.68305,5,2D1U,2.0,False,1.35,59,False,right,-0.0833,0.1576,1.0084,0.8509,1.4416,2.0242,0.5826,A
520,0.49979,1.2,2,0.24157,0.38318,0.58309,520,2.40734,0.394,0.19992,0.69971,5,2D1U,2.0,True,0.925,59,False,right,0.1666,1.5479,2.1731,0.6252,0.0894,0.8975,0.8081,A
521,0.49979,1.2,1,0.23324,0.41649,0.68305,521,2.4823,0.296,0.14994,0.64973,5,2U1D,1.0,True,2.175,58,True,left,-0.0833,0.1635,0.9554,0.7919,1.614,2.1724,0.5584,A
522,0.49979,0.1,1,0.34153,0.28322,0.7247,522,2.48231,0.26,0.13328,0.63307,5,2U1D,2.0,False,1.488,59,True,right,0.1666,0.2607,1.0612,0.8005,1.6201,2.4521,0.832,A
523,0.49979,0.1,1,0.32487,0.40817,0.49979,523,2.43233,0.394,0.19992,0.69971,5,2D1U,1.0,True,1.414,59,False,left,-0.0833,0.2416,1.1085,0.8669,1.5675,2.1509,0.5834,A
524,0.49979,1.2,1,0.20825,0.44148,0.62474,524,2.42399,0.296,0.14994,0.64973,5,2U1D,2.0,False,0.109,60,True,right,0.1666,0.1447,0.9357,0.791,1.4105,2.2188,0.8083,A
525,0.49979,1.2,1,0.37485,0.27489,0.41649,525,2.23241,0.332,0.1666,0.66639,5,2U1D,1.0,True,0.537,60,False,left,-0.0833,0.3101,1.118,0.8078,1.5102,2.0685,0.5584,A
526,0.49979,0.1,1,0.32487,0.37485,0.78301,526,2.66557,0.358,0.17493,0.68305,5,2D1U,1.0,True,0.937,60,True,left,0.1666,0.2428,1.0936,0.8508,1.7104,2.5435,0.8332,A
527,0.49979,0.1,1,0.39151,0.23324,0.4748,527,2.28239,0.358,0.17493,0.68305,5,2D1U,2.0,False,0.95,60,True,right,-0.0833,0.3031,1.1535,0.8504,1.5865,2.1702,0.5837,A
528,0.49979,1.2,2,0.27489,0.25823,0.54144,528,2.27406,0.394,0.19992,0.69971,5,2D1U,2.0,True,0.725,61,True,right,0.1666,1.5422,2.1667,0.6245,0.1257,0.9336,0.8079,A
529,0.49979,1.2,1,0.39151,0.22491,0.76635,529,2.54895,0.332,0.1666,0.66639,5,2U1D,1.0,True,0.896,60,False,left,-0.0833,0.3269,1.1351,0.8082,1.8772,2.4356,0.5583,A
530,0.49979,0.1,2,0.36652,0.38318,0.59975,530,2.54895,0.394,0.19992,0.69971,5,2D1U,1.0,False,2.235,61,True,left,0.1666,1.715,2.3318,0.6168,0.1983,1.0319,0.8336,A
531,0.49979,0.1,1,0.42482,0.22491,0.43315,531,2.2324,0.296,0.14994,0.64973,5,2U1D,2.0,False,0.907,61,True,right,-0.0833,0.3395,1.1568,0.8173,1.5486,2.132,0.5834,A
532,0.49979,1.2,2,0.41649,0.21658,0.57476,532,2.42399,0.43,0.21658,0.71637,5,2D1U,2.0,True,0.5,61,False,right,0.1666,1.7174,2.3589,0.6415,0.2671,1.0758,0.8086,A
533,0.49979,1.2,1,0.30821,0.39984,0.77468,533,2.69889,0.43,0.21658,0.71637,5,2D1U,1.0,True,0.589,61,False,left,-0.0833,0.2414,1.1001,0.8587,1.8491,2.4081,0.559,A
534,0.49979,0.1,1,0.44148,0.27489,0.79967,534,2.68222,0.332,0.1666,0.66639,5,2U1D,1.0,True,0.48,62,True,left,0.1666,0.3584,1.1913,0.8329,1.8253,2.6585,0.8332,A
535,0.49979,0.1,1,0.28322,0.28322,0.82466,535,2.5906,0.394,0.19992,0.69971,5,2D1U,1.0,True,0.315,62,True,left,-0.0833,0.1954,1.0623,0.8669,1.845,2.4292,0.5842,A
536,0.49979,1.2,1,0.43315,0.23324,0.51645,536,2.38234,0.394,0.19992,0.69971,5,2D1U,2.0,False,0.558,62,True,right,0.1666,0.3628,1.2046,0.8417,1.5709,2.3794,0.8085,A
537,0.49979,1.2,1,0.28322,0.41649,0.77468,537,2.69055,0.43,0.21658,0.71637,5,2D1U,1.0,True,0.276,63,True,left,-0.0833,0.2139,1.0807,0.8668,1.8309,2.3888,0.5578,A
538,0.49979,0.1,1,0.30821,0.42482,0.84965,538,2.74886,0.332,0.1666,0.66639,5,2U1D,1.0,True,2.658,62,True,left,0.1666,0.2222,1.0551,0.8329,1.7385,2.5721,0.8335,A
539,0.49979,0.1,1,0.44981,0.21658,0.88297,539,2.69888,0.296,0.14994,0.64973,5,2U1D,1.0,True,0.904,63,True,left,-0.0833,0.3673,1.1851,0.8178,2.0261,2.6095,0.5834,A
540,0.49979,1.2,2,0.44981,0.39151,0.84965,540,2.84049,0.296,0.14994,0.64973,5,2U1D,1.0,False,2.383,63,True,left,0.1666,2.0273,2.6018,0.5745,0.3024,1.1103,0.8079,A
541,0.49979,1.2,2,0.30821,0.27489,0.77468,541,2.57394,0.43,0.21658,0.71637,5,2D1U,2.0,True,1.101,63,True,right,-0.0833,1.6798,2.3219,0.6421,0.2797,0.8387,0.559,A
542,0.49979,0.1,2,0.24157,0.29155,0.49979,542,2.19909,0.332,0.1666,0.66639,5,2U1D,1.0,False,0.961,64,True,left,0.1666,1.4914,2.0752,0.5838,0.075,0.9086,0.8336,A
543,0.49979,0.1,1,0.3332,0.29155,0.84965,543,2.6739,0.394,0.19992,0.69971,5,2D1U,1.0,True,12.329,64,True,left,-0.0833,0.2456,1.112,0.8664,1.9204,2.5038,0.5834,A
544,0.49979,1.2,2,0.32487,0.27489,0.79967,544,2.58227,0.368,0.18326,0.68305,5,2U1D,2.0,True,0.832,64,False,right,0.1666,1.8479,2.4562,0.6082,0.1738,0.9816,0.8078,A
545,0.49979,1.2,2,0.40817,0.39151,0.70804,545,2.70722,0.394,0.19992,0.69971,5,2D1U,2.0,True,2.092,64,True,right,-0.0833,1.7137,2.3391,0.6254,0.3807,0.9385,0.5578,A
546,0.49979,0.1,1,0.37485,0.29988,0.78301,546,2.64058,0.368,0.18326,0.68305,5,2U1D,1.0,True,0.325,64,False,left,0.1666,0.288,1.1379,0.85,1.7551,2.5889,0.8338,A
547,0.49979,0.1,2,0.37485,0.20825,0.60808,547,2.35736,0.332,0.1666,0.66639,5,2U1D,1.0,False,0.878,65,True,left,-0.0833,1.6102,2.1935,0.5833,0.3345,0.9186,0.5842,A
548,0.49979,1.2,2,0.30821,0.3332,0.86631,548,2.69056,0.368,0.18326,0.68305,5,2U1D,1.0,False,0.283,66,True,left,0.1666,1.8972,2.506,0.6088,0.1567,0.9652,0.8086,A
549,0.49979,1.2,2,0.42482,0.36652,0.76635,549,2.74053,0.358,0.17493,0.68305,5,2D1U,2.0,True,1.026,64,False,right,-0.0833,1.7892,2.3979,0.6087,0.3973,0.9564,0.5591,A
550,0.49979,0.1,2,0.43315,0.22491,0.41649,550,2.25739,0.358,0.17493,0.68305,5,2D1U,2.0,True,0.483,64,False,right,0.1666,1.6027,2.2021,0.5994,0.2698,1.1022,0.8324,A
551,0.49979,0.1,1,0.36652,0.37485,0.84132,551,2.78219,0.404,0.19992,0.69971,5,2U1D,1.0,True,0.364,66,False,left,-0.0833,0.2792,1.1459,0.8667,1.9464,2.5297,0.5833,A
552,0.49979,1.2,2,0.24157,0.40817,0.54977,552,2.35736,0.322,0.15827,0.65806,5,2D1U,2.0,True,0.91,64,False,right,0.1666,1.5146,2.0983,0.5837,0.0891,0.8973,0.8082,A
553,0.49979,1.2,1,0.27489,0.29155,0.48313,553,2.24907,0.404,0.19992,0.69971,5,2U1D,1.0,True,0.277,66,False,left,-0.0833,0.2036,1.0461,0.8425,1.5042,2.062,0.5578,A
554,0.49979,0.1,1,0.20825,0.25823,0.59142,554,2.24074,0.368,0.18326,0.68305,5,2U1D,1.0,True,1.258,67,True,left,0.1666,0.1214,0.9715,0.8501,1.3965,2.2294,0.8329,A
555,0.49979,0.1,1,0.31654,0.24157,0.40817,555,2.14912,0.368,0.18326,0.68305,5,2U1D,1.0,True,1.536,67,True,left,-0.0833,0.2295,1.0797,0.8501,1.4466,2.0295,0.5829,A
556,0.49979,1.2,1,0.20825,0.40817,0.46647,556,2.24074,0.322,0.15827,0.65806,5,2D1U,2.0,False,0.574,64,False,right,0.1666,0.145,0.9449,0.7999,1.2617,2.0693,0.8076,A
557,0.49979,1.2,2,0.39151,0.23324,0.808,557,2.61559,0.358,0.17493,0.68305,5,2D1U,2.0,True,0.207,65,True,right,-0.0833,1.7982,2.406,0.6078,0.3646,0.9231,0.5584,A
558,0.49979,0.1,2,0.26656,0.29155,0.53311,558,2.27406,0.358,0.17493,0.68305,5,2D1U,2.0,True,1.891,65,True,right,0.1666,1.5487,2.1488,0.6001,0.0989,0.9313,0.8324,A
559,0.49979,0.1,2,0.3332,0.38318,0.75802,559,2.64058,0.332,0.1666,0.66639,5,2U1D,2.0,True,0.265,67,False,right,-0.0833,1.7132,2.2967,0.5836,0.2886,0.871,0.5824,A
560,0.49979,1.2,1,0.39984,0.25823,0.85798,560,2.6739,0.322,0.15827,0.65806,5,2D1U,1.0,True,0.434,66,True,left,0.1666,0.3328,1.1329,0.8001,1.841,2.6491,0.8081,A
561,0.49979,1.2,2,0.28322,0.23324,0.44148,561,2.11579,0.322,0.15827,0.65806,5,2D1U,2.0,True,0.159,66,True,right,-0.0833,1.3255,1.9088,0.5833,0.2582,0.8168,0.5586,A
562,0.49979,0.1,2,0.30821,0.43315,0.85798,562,2.76552,0.332,0.1666,0.66639,5,2U1D,2.0,True,1.391,67,False,right,0.1666,1.913,2.4963,0.5833,0.1381,0.9716,0.8336,A
563,0.49979,0.1,1,0.20825,0.29988,0.76635,563,2.41567,0.286,0.14161,0.6414,5,2D1U,1.0,True,0.75,66,False,left,-0.0833,0.123,0.9316,0.8086,1.6572,2.2403,0.5832,A
564,0.49979,1.2,2,0.20825,0.42482,0.86631,564,2.6489,0.296,0.14994,0.64973,5,2U1D,2.0,True,0.648,67,False,right,0.1666,1.7947,2.3703,0.5756,0.053,0.8619,0.8089,A
565,0.49979,1.2,1,0.44148,0.20825,0.82466,565,2.62391,0.296,0.14994,0.64973,5,2U1D,2.0,False,0.285,67,False,right,-0.0833,0.3764,1.1679,0.7916,1.9675,2.526,0.5585,A
566,0.49979,0.1,2,0.29988,0.32487,0.82466,566,2.5906,0.286,0.14161,0.6414,5,2D1U,2.0,True,1.125,66,False,right,0.1666,1.8741,2.4326,0.5585,0.132,0.9659,0.8339,A
567,0.49979,0.1,2,0.20825,0.24157,0.49979,567,2.11579,0.332,0.1666,0.66639,5,2U1D,2.0,True,1.101,68,True,right,-0.0833,1.333,1.9164,0.5834,0.1659,0.7497,0.5838,A
568,0.49979,1.2,1,0.24157,0.24157,0.86631,568,2.51563,0.332,0.1666,0.66639,5,2U1D,2.0,False,0.259,68,True,right,0.1666,0.1791,0.9873,0.8081,1.7038,2.5124,0.8086,A
569,0.49979,1.2,1,0.44148,0.37485,0.70804,569,2.6489,0.25,0.12495,0.62474,5,2D1U,2.0,False,1.227,66,False,right,-0.0833,0.3726,1.1394,0.7668,1.8226,2.3809,0.5583,A
570,0.49979,0.1,2,0.21658,0.34153,0.78301,570,2.52396,0.368,0.18326,0.68305,5,2U1D,1.0,False,0.223,68,False,left,0.1666,1.7457,2.3456,0.6,0.045,0.8788,0.8338,A
571,0.49979,0.1,2,0.24157,0.30821,0.87464,571,2.56561,0.286,0.14161,0.6414,5,2D1U,2.0,True,0.194,67,True,right,-0.0833,1.7386,2.2969,0.5583,0.1971,0.78,0.5829,A
572,0.49979,1.2,2,0.43315,0.32487,0.51645,572,2.47397,0.404,0.19992,0.69971,5,2U1D,2.0,True,0.113,68,False,right,0.1666,1.6764,2.3008,0.6244,0.2838,1.0924,0.8086,A
573,0.49979,1.2,1,0.37485,0.38318,0.63307,573,2.53229,0.286,0.14161,0.6414,5,2D1U,1.0,True,0.483,67,True,left,-0.0833,0.3086,1.092,0.7834,1.7004,2.2587,0.5583,A
574,0.49979,0.1,2,0.37485,0.36652,0.59975,574,2.54062,0.404,0.19992,0.69971,5,2U1D,2.0,True,0.11,68,False,right,0.1666,1.7246,2.3405,0.616,0.207,1.0413,0.8343,A
575,0.49979,0.1,1,0.39151,0.26656,0.70804,575,2.49064,0.25,0.12495,0.62474,5,2D1U,2.0,False,0.432,68,True,right,-0.0833,0.3062,1.0978,0.7916,1.7646,2.3471,0.5826,A
576,0.49979,1.2,2,0.23324,0.30821,0.6414,576,2.36569,0.368,0.18326,0.68305,5,2U1D,2.0,True,0.219,69,True,right,0.1666,1.5984,2.206,0.6076,0.0803,0.8891,0.8088,A
577,0.49979,1.2,2,0.42482,0.40817,0.65806,577,2.67389,0.368,0.18326,0.68305,5,2U1D,2.0,True,0.123,69,True,right,-0.0833,1.6825,2.2909,0.6084,0.3989,0.958,0.5592,A
578,0.49979,0.1,2,0.20825,0.22491,0.86631,578,2.44066,0.286,0.14161,0.6414,5,2D1U,2.0,True,0.607,69,True,right,0.1666,1.8276,2.3866,0.559,0.0451,0.8778,0.8328,A
579,0.49979,0.1,1,0.34986,0.40817,0.49146,579,2.39068,0.286,0.14161,0.6414,5,2D1U,2.0,False,0.359,69,True,right,-0.0833,0.2672,1.0764,0.8092,1.5254,2.1083,0.5829,A
580,0.49979,1.2,2,0.35819,0.27489,0.66639,580,2.46565,0.332,0.1666,0.66639,5,2U1D,2.0,True,0.137,69,False,right,0.1666,1.7526,2.3442,0.5916,0.2117,1.0188,0.8071,A
581,0.49979,1.2,2,0.29155,0.39984,0.78301,581,2.64058,0.332,0.1666,0.66639,5,2U1D,2.0,True,1.516,69,False,right,-0.0833,1.6741,2.2652,0.5912,0.2652,0.8236,0.5584,A
582,0.49979,0.1,1,0.20825,0.36652,0.41649,582,2.14078,0.296,0.14994,0.64973,5,2U1D,1.0,True,1.041,69,False,left,0.1666,0.1277,0.9437,0.8159,1.1936,2.0279,0.8343,A
583,0.49979,0.1,1,0.19992,0.22491,0.5581,583,2.14078,0.322,0.15827,0.65806,5,2D1U,2.0,False,0.974,69,False,right,-0.0833,0.1142,0.939,0.8248,1.4553,2.0389,0.5836,A
584,0.49979,1.2,2,0.21658,0.29988,0.41649,584,2.08247,0.296,0.14994,0.64973,5,2U1D,2.0,True,0.499,69,False,right,0.1666,1.3546,1.9294,0.5747,0.0621,0.8714,0.8093,A
585,0.49979,1.2,2,0.36652,0.28322,0.67472,585,2.5073,0.358,0.17493,0.68305,5,2D1U,2.0,True,0.411,69,False,right,-0.0833,1.6401,2.2484,0.6084,0.3399,0.8984,0.5585,A
586,0.49979,0.1,1,0.44148,0.34986,0.44148,586,2.41566,0.358,0.17493,0.68305,5,2D1U,2.0,False,0.701,69,False,right,0.1666,0.356,1.2053,0.8493,1.4812,2.3144,0.8332,A
587,0.49979,0.1,1,0.3332,0.39151,0.51645,587,2.37402,0.26,0.13328,0.63307,5,2U1D,1.0,True,0.817,69,False,left,-0.0833,0.2477,1.0471,0.7993,1.5226,2.106,0.5834,A
588,0.49979,1.2,1,0.44981,0.36652,0.85798,588,2.80717,0.26,0.13328,0.63307,5,2U1D,2.0,False,0.519,69,False,right,0.1666,0.3795,1.1545,0.775,1.8637,2.6717,0.8079,A
589,0.49979,1.2,2,0.22491,0.3332,0.69971,589,2.45732,0.394,0.19992,0.69971,5,2D1U,2.0,True,0.415,69,False,right,-0.0833,1.5219,2.147,0.6252,0.1966,0.7551,0.5585,A
590,0.49979,0.1,2,0.42482,0.35819,0.62474,590,2.55727,0.296,0.14994,0.64973,5,2U1D,2.0,True,0.164,70,True,right,0.1666,1.7962,2.3631,0.5668,0.2544,1.0882,0.8338,A
591,0.49979,0.1,2,0.43315,0.22491,0.87464,591,2.7322,0.394,0.19992,0.69971,5,2D1U,2.0,True,0.25,69,False,right,-0.0833,1.9322,2.5491,0.6169,0.3906,0.9737,0.5831,A
592,0.49979,1.2,1,0.37485,0.35819,0.51645,592,2.39901,0.296,0.14994,0.64973,5,2U1D,2.0,False,0.912,70,True,right,0.1666,0.309,1.1009,0.7918,1.4676,2.2756,0.8079,A
593,0.49979,1.2,2,0.35819,0.38318,0.69138,593,2.61559,0.358,0.17493,0.68305,5,2D1U,2.0,True,0.57,70,True,right,-0.0833,1.6514,2.2598,0.6083,0.3351,0.8936,0.5585,A
594,0.49979,0.1,2,0.40817,0.38318,0.62474,594,2.58227,0.332,0.1666,0.66639,5,2U1D,2.0,True,2.637,70,False,right,0.1666,1.7823,2.3655,0.5832,0.2406,1.0735,0.8329,A
595,0.49979,0.1,2,0.23324,0.40817,0.69971,595,2.5073,0.332,0.1666,0.66639,5,2U1D,2.0,True,1.117,70,False,right,-0.0833,1.5607,2.1442,0.5835,0.1946,0.7775,0.5829,A
596,0.49979,1.2,1,0.27489,0.42482,0.63307,596,2.51562,0.358,0.17493,0.68305,5,2D1U,2.0,False,4.354,70,True,right,0.1666,0.2062,1.0304,0.8242,1.5145,2.3235,0.809,A
597,0.49979,1.2,2,0.42482,0.34153,0.79967,597,2.76552,0.394,0.19992,0.69971,5,2D1U,2.0,True,0.641,71,True,right,-0.0833,1.827,2.4511,0.6242,0.4018,0.9595,0.5578,A
598,0.49979,0.1,1,0.42482,0.20825,0.84132,598,2.62391,0.296,0.14994,0.64973,5,2U1D,1.0,True,0.657,71,True,left,0.1666,0.3363,1.153,0.8167,1.8286,999,997.1714,A
599,0.49979,0.1,1,0.27489,0.43315,0.44148,599,2.34902,0.394,0.19992,0.69971,5,2D1U,1.0,True,1.678,71,True,left,-0.0833,0.188,1.0559,0.8679,1.4553,2.0386,0.5833,A
600,0.49979,1.2,1,0.20825,0.22491,0.65806,600,2.24074,0.296,0.14994,0.64973,5,2U1D,1.0,True,1.132,71,True,left,0.1666,0.1414,0.9322,0.7908,1.4411,2.2494,0.8083,A
601,0.49979,1.2,2,0.2499,0.19992,0.86631,601,2.49897,0.358,0.17493,0.68305,5,2D1U,2.0,True,0.162,72,True,right,-0.0833,1.7165,2.3255,0.609,0.2254,0.7836,0.5582,A
602,0.49979,0.1,1,0.29988,0.39984,0.74136,602,2.62392,0.358,0.17493,0.68305,5,2D1U,2.0,False,0.65,72,True,right,0.1666,0.2153,1.0666,0.8513,1.6407,2.4742,0.8335,A
603,0.49979,0.1,1,0.32487,0.39984,0.44148,603,2.29905,0.26,0.13328,0.63307,5,2U1D,1.0,True,0.621,71,False,left,-0.0833,0.2418,1.041,0.7992,1.4411,2.025,0.5839,A
604,0.49979,1.2,2,0.30821,0.44148,0.69138,604,2.57393,0.26,0.13328,0.63307,5,2U1D,1.0,False,0.126,71,False,left,0.1666,1.7261,2.2845,0.5584,0.1593,0.9678,0.8085,A
605,0.49979,1.2,1,0.22491,0.39984,0.59975,605,2.37402,0.296,0.14994,0.64973,5,2U1D,2.0,False,0.112,72,True,right,-0.0833,0.1622,0.9537,0.7916,1.529,2.0872,0.5582,A
606,0.49979,0.1,2,0.26656,0.43315,0.44981,606,2.34902,0.394,0.19992,0.69971,5,2D1U,2.0,True,0.509,73,True,right,0.1666,1.4625,2.0782,0.6157,0.0958,0.9286,0.8329,A
607,0.49979,0.1,2,0.29155,0.34153,0.57476,607,2.37402,0.332,0.1666,0.66639,5,2U1D,2.0,True,1.633,72,False,right,-0.0833,1.4925,2.0764,0.584,0.2512,0.8342,0.583,A
608,0.49979,1.2,1,0.30821,0.39151,0.85798,608,2.7572,0.394,0.19992,0.69971,5,2D1U,1.0,True,0.862,73,True,left,0.1666,0.2422,1.0842,0.842,1.7927,2.6005,0.8077,A
609,0.49979,1.2,2,0.38318,0.2499,0.4748,609,2.27406,0.332,0.1666,0.66639,5,2U1D,2.0,True,0.112,72,False,right,-0.0833,1.4552,2.047,0.5917,0.3552,0.9137,0.5586,A
610,0.49979,0.1,1,0.23324,0.21658,0.69971,610,2.33237,0.358,0.17493,0.68305,5,2D1U,2.0,False,1.65,74,True,right,0.1666,0.1469,0.9968,0.8499,1.5303,999,997.4697,A
611,0.49979,0.1,1,0.42482,0.28322,0.64973,611,2.50729,0.296,0.14994,0.64973,5,2U1D,1.0,True,1.688,73,True,left,-0.0833,0.3436,1.1601,0.8165,1.768,2.3516,0.5836,A
