,standardDur,audNoise,order,preDur,postDur,isiDur,trial_num,totalDur,delta_dur_percents,deltaDurS,testDurS,intensities,current_stair,responses,is_correct,response_rts,stair_num_reversal,stair_is_reversal,response_keys,conflictDur,recordedOnsetVisualTest,recordedOffsetVisualTest,recordedDurVisualTest,recordedOnsetVisualStandard,recordedOffsetVisualStandard,recordedDurVisualStandard,modalityCue
0,0.49927,1.2,1,0.36613,0.32452,0.7489,0,2.11356,-0.65,-0.32452,0.17474,5,2U1D,2.0,True,2.053,0,False,right,0.08321,0.3005,0.6162,0.3157,1.2588,1.9831,0.7243,A
1,0.49927,0.1,1,0.26628,0.33284,0.7489,1,1.89722,-0.9,-0.44934,0.04993,5,lapse_rate,2.0,True,1.208,0,False,right,-0.24963,0.1789,0.3954,0.2165,1.187,1.6037,0.4168,A
2,0.49927,0.1,1,0.44102,0.38277,0.42438,2,2.69605,0.9,0.44934,0.94861,5,lapse_rate,1.0,True,15.976,0,False,left,0.08321,0.3564,1.4727,1.1163,1.7729,2.5234,0.7505,A
3,0.49927,1.2,2,0.44102,0.3162,0.60744,3,2.03867,-0.65,-0.32452,0.17474,5,2U1D,1.0,True,1.163,0,False,left,-0.24963,1.5657,1.6658,0.1001,0.4992,0.8912,0.392,A
4,0.49927,0.1,1,0.44934,0.30788,0.87372,4,2.954,0.65,0.32452,0.82379,5,2D1U,1.0,True,1.113,0,False,left,0.08321,0.3655,1.3575,0.992,2.1069,2.8578,0.7509,A
5,0.49927,1.2,1,0.29956,0.23299,0.54919,5,1.63094,-0.9,-0.44934,0.04993,5,lapse_rate,2.0,True,1.099,0,False,right,-0.24963,0.2364,0.428,0.1916,1.0361,1.428,0.3919,A
6,0.49927,0.1,1,0.26628,0.28292,0.60744,6,2.4797,0.65,0.32452,0.82379,5,2D1U,1.0,True,0.978,0,False,left,0.08321,0.1786,1.1713,0.9927,1.6537,2.4035,0.7498,A
7,0.49927,1.2,2,0.3162,0.35781,0.80715,7,2.2051,-0.55,-0.2746,0.22467,5,2U1D,1.0,True,0.35,0,False,left,-0.24963,1.6371,1.7888,0.1517,0.3702,0.7623,0.3922,A
8,0.49927,1.2,1,0.32452,0.44102,0.81547,8,2.30495,-0.55,-0.2746,0.22467,5,2U1D,2.0,True,0.357,0,False,right,0.08321,0.2593,0.6258,0.3665,1.3342,2.0592,0.725,A
9,0.49927,0.1,2,0.44934,0.44934,0.84043,9,3.01224,0.55,0.2746,0.77386,5,2D1U,1.0,False,9.936,0,False,left,-0.24963,1.8342,2.5264,0.6922,0.4933,0.9091,0.4158,A
10,0.49927,1.2,2,0.39941,0.28292,0.45766,10,2.58787,0.9,0.44934,0.94861,5,lapse_rate,2.0,True,0.359,0,False,right,0.08321,1.5435,2.4192,0.8756,0.2941,1.019,0.7249,A
11,0.49927,0.1,2,0.35781,0.39941,0.79051,11,2.09693,-0.9,-0.44934,0.04993,5,lapse_rate,1.0,True,0.522,0,False,left,-0.24963,1.6933,1.66,-0.0333,0.4019,0.8184,0.4165,A
12,0.49927,0.1,1,0.32452,0.39941,0.87372,12,2.90407,0.61,0.30788,0.80715,5,2D1U,1.0,True,1.266,1,True,left,0.08321,0.2424,1.2173,0.975,1.9682,2.7174,0.7491,A
13,0.49927,1.2,2,0.24131,0.32452,0.69065,13,2.03035,-0.45,-0.22467,0.2746,5,2U1D,1.0,True,0.166,0,False,left,-0.24963,1.4522,1.6522,0.2,0.3019,0.6945,0.3927,A
14,0.49927,0.1,2,0.4327,0.44102,0.76554,14,3.08714,0.9,0.44934,0.94861,5,lapse_rate,2.0,True,0.312,0,False,right,0.08321,1.9051,2.7717,0.8667,0.3051,1.055,0.7499,A
15,0.49927,1.2,1,0.23299,0.23299,0.8654,15,2.6378,0.61,0.30788,0.80715,5,2D1U,1.0,True,0.707,1,True,left,-0.24963,0.1644,1.1143,0.9499,2.0395,2.4311,0.3916,A
16,0.49927,0.1,1,0.29956,0.39941,0.89036,16,2.3632,-0.45,-0.22467,0.2746,5,2U1D,2.0,True,0.803,0,False,right,0.08321,0.2129,0.6544,0.4415,1.4213,2.171,0.7498,A
17,0.49927,0.1,2,0.33284,0.38277,0.41606,17,2.57955,0.9,0.44934,0.94861,5,lapse_rate,2.0,True,0.108,0,False,right,-0.24963,1.2901,2.1567,0.8666,0.3738,0.7903,0.4165,A
18,0.49927,0.1,2,0.29124,0.34117,0.54087,18,1.99707,-0.35,-0.17474,0.32452,5,2U1D,1.0,True,0.111,0,False,left,0.08321,1.5377,1.7794,0.2417,0.1631,0.9127,0.7495,A
19,0.49927,1.2,1,0.44102,0.21635,0.57416,19,2.52131,0.574,0.28292,0.79051,5,2D1U,1.0,True,1.159,2,True,left,-0.24963,0.3697,1.3028,0.933,1.9361,2.328,0.3919,A
20,0.49927,1.2,2,0.42438,0.32452,0.46598,20,2.03867,-0.35,-0.17474,0.32452,5,2U1D,1.0,True,0.455,0,False,left,0.08321,1.5719,1.8227,0.2508,0.3138,1.0391,0.7253,A
21,0.49927,0.1,2,0.44102,0.38277,0.48262,21,1.85561,-0.9,-0.44934,0.04993,5,lapse_rate,1.0,True,1.281,0,False,left,-0.24963,1.4615,1.429,-0.0325,0.4788,0.896,0.4173,A
22,0.49927,0.1,1,0.24963,0.44934,0.54919,22,2.53794,0.574,0.28292,0.79051,5,2D1U,2.0,False,0.113,2,True,right,0.08321,0.1642,1.1228,0.9586,1.5477,2.2972,0.7495,A
23,0.49927,1.2,1,0.21635,0.26628,0.72394,23,1.75577,-0.9,-0.44934,0.04993,5,lapse_rate,2.0,True,0.198,0,False,right,-0.24963,0.1494,0.3407,0.1914,1.1236,1.5153,0.3918,A
24,0.49927,0.1,2,0.39941,0.32452,0.61576,24,2.64611,0.61,0.30788,0.80715,5,2D1U,2.0,True,1.114,3,True,right,0.08321,1.7225,2.448,0.7254,0.2728,1.0236,0.7508,A
25,0.49927,1.2,1,0.3162,0.24963,0.7073,25,2.14685,-0.25,-0.12482,0.37445,5,2U1D,2.0,True,0.268,0,False,right,-0.24963,0.2508,0.7675,0.5167,1.5331,1.9258,0.3926,A
26,0.49927,0.1,2,0.22467,0.39941,0.79051,26,1.96379,-0.9,-0.44934,0.04993,5,lapse_rate,1.0,True,0.109,0,False,left,0.08321,1.7282,1.6946,-0.0337,0.1033,0.8535,0.7502,A
27,0.49927,1.2,1,0.38277,0.20803,0.4327,27,2.32992,0.61,0.30788,0.80715,5,2D1U,1.0,True,0.232,3,True,left,-0.24963,0.3156,1.2651,0.9495,1.7571,2.1484,0.3913,A
28,0.49927,0.1,1,0.42438,0.20803,0.59912,28,2.10525,-0.25,-0.12482,0.37445,5,2U1D,2.0,True,0.113,0,False,right,0.08321,0.3363,0.8779,0.5416,1.3529,2.1035,0.7506,A
29,0.49927,0.1,1,0.38277,0.30788,0.49095,29,2.10525,-0.15,-0.07489,0.42438,5,2U1D,2.0,True,0.107,0,False,right,-0.24963,0.2972,0.8909,0.5936,1.4222,1.8386,0.4164,A
30,0.49927,1.2,2,0.25795,0.28292,0.54087,30,2.37152,0.574,0.28292,0.79051,5,2D1U,2.0,True,2.308,4,True,right,0.08321,1.4797,2.1969,0.7172,0.1462,0.8713,0.7251,A
31,0.49927,1.2,1,0.26628,0.2746,0.56584,31,2.5546,0.9,0.44934,0.94861,5,lapse_rate,2.0,False,1.151,0,False,right,-0.24963,0.2027,1.2942,1.0916,1.9195,2.311,0.3915,A
32,0.49927,1.2,2,0.26628,0.24131,0.80715,32,2.60452,0.574,0.28292,0.79051,5,2D1U,1.0,False,0.513,4,True,left,0.08321,1.7528,2.4701,0.7173,0.1527,0.8779,0.7252,A
33,0.49927,1.2,2,0.35781,0.3162,0.88204,33,2.10525,-0.9,-0.44934,0.04993,5,lapse_rate,1.0,True,0.289,0,False,left,-0.24963,1.7579,1.7329,-0.0249,0.4167,0.8079,0.3912,A
34,0.49927,0.1,2,0.28292,0.30788,0.75722,34,2.27167,-0.15,-0.07489,0.42438,5,2U1D,2.0,False,1.525,0,False,right,0.08321,1.7472,2.0895,0.3423,0.1556,0.9058,0.7502,A
35,0.49927,0.1,1,0.29956,0.41606,0.59912,35,2.2051,-0.21,-0.10817,0.39109,5,2U1D,1.0,False,0.374,1,True,left,-0.24963,0.2167,0.7753,0.5586,1.4173,1.833,0.4158,A
36,0.49927,0.1,1,0.42438,0.35781,0.66569,36,1.99708,-0.9,-0.44934,0.04993,5,lapse_rate,2.0,True,0.311,0,False,right,0.08321,0.3377,0.5543,0.2166,1.0955,1.8455,0.75,A
37,0.49927,1.2,2,0.2746,0.21635,0.42438,37,2.22175,0.61,0.30788,0.80715,5,2D1U,2.0,True,0.114,5,True,right,-0.24963,1.215,1.9485,0.7335,0.3318,0.7231,0.3913,A
38,0.49927,1.2,1,0.19971,0.3162,0.74058,38,2.56291,0.61,0.30788,0.80715,5,2D1U,1.0,True,0.681,5,True,left,0.08321,0.1368,1.0864,0.9496,1.7196,2.4452,0.7257,A
39,0.49927,0.1,1,0.34949,0.22467,0.48262,39,1.92218,-0.27,-0.13314,0.36613,5,2U1D,2.0,True,0.181,1,False,right,-0.24963,0.267,0.7993,0.5323,1.325,1.7427,0.4177,A
40,0.49927,0.1,2,0.34949,0.44102,0.58248,40,1.92219,-0.9,-0.44934,0.04993,5,lapse_rate,1.0,True,0.49,0,False,left,0.08321,1.6409,1.607,-0.0339,0.224,0.9742,0.7502,A
41,0.49927,0.1,2,0.28292,0.25795,0.68233,41,2.0886,-0.27,-0.13314,0.36613,5,2U1D,1.0,True,0.246,1,False,left,-0.24963,1.5051,1.7882,0.2831,0.3206,0.738,0.4174,A
42,0.49927,1.2,1,0.41606,0.3162,0.49095,42,1.77241,-0.9,-0.44934,0.04993,5,lapse_rate,2.0,True,0.11,0,False,right,0.08321,0.351,0.5425,0.1915,0.9255,1.6504,0.7249,A
43,0.49927,1.2,1,0.40773,0.44102,0.54087,43,2.6794,0.574,0.28292,0.79051,5,2D1U,2.0,False,0.114,6,True,right,-0.24963,0.3411,1.2749,0.9338,1.8745,2.2663,0.3917,A
44,0.49927,1.2,2,0.22467,0.28292,0.74058,44,2.13021,-0.234,-0.1165,0.38277,5,2U1D,1.0,True,0.457,2,True,left,0.08321,1.6512,1.9598,0.3086,0.118,0.8428,0.7248,A
45,0.49927,1.2,1,0.2746,0.23299,0.76554,45,1.82233,-0.9,-0.44934,0.04993,5,lapse_rate,2.0,True,0.113,0,False,right,-0.24963,0.2116,0.4028,0.1913,1.2275,1.6192,0.3918,A
46,0.49927,0.1,1,0.41606,0.20803,0.84875,46,2.77926,0.61,0.30788,0.80715,5,2D1U,1.0,True,0.112,7,True,left,0.08321,0.3313,1.3058,0.9745,2.0303,2.7808,0.7505,A
47,0.49927,0.1,1,0.23299,0.25795,0.54087,47,1.91385,-0.234,-0.1165,0.38277,5,2U1D,2.0,True,0.439,2,True,right,-0.24963,0.1533,0.7038,0.5505,1.2865,1.7042,0.4176,A
48,0.49927,1.2,1,0.20803,0.26628,0.61576,48,2.39649,0.61,0.30788,0.80715,5,2D1U,1.0,True,0.586,7,True,left,0.08321,0.1371,1.0867,0.9496,1.5957,2.3209,0.7252,A
49,0.49927,1.2,2,0.39941,0.36613,0.62408,49,2.8375,0.9,0.44934,0.94861,5,lapse_rate,2.0,True,0.177,0,False,right,-0.24963,1.5368,2.412,0.8752,0.4541,0.8457,0.3916,A
50,0.49927,0.1,2,0.34117,0.35781,0.85708,50,3.00394,0.9,0.44934,0.94861,5,lapse_rate,2.0,True,0.537,0,False,right,0.08321,1.9062,2.7735,0.8672,0.214,0.9648,0.7508,A
51,0.49927,1.2,1,0.32452,0.24963,0.64905,51,2.12188,-0.198,-0.09985,0.39941,5,2U1D,1.0,False,0.258,2,False,left,-0.24963,0.2553,0.7966,0.5414,1.5051,1.8963,0.3912,A
52,0.49927,0.1,1,0.37445,0.42438,0.61576,52,2.70437,0.574,0.28292,0.79051,5,2D1U,1.0,True,0.174,8,True,left,0.08321,0.2926,1.2507,0.9581,1.7423,2.4928,0.7506,A
53,0.49927,0.1,1,0.42438,0.34117,0.64905,53,1.9638,-0.9,-0.44934,0.04993,5,lapse_rate,2.0,True,0.305,0,False,right,-0.24963,0.3382,0.5548,0.2167,1.2466,1.663,0.4165,A
54,0.49927,0.1,1,0.44934,0.19971,0.79883,54,2.32992,-0.234,-0.1165,0.38277,5,2U1D,2.0,True,0.757,3,True,right,0.08321,0.3667,0.9155,0.5489,1.5916,999,997.4084,A
55,0.49927,1.2,1,0.40773,0.34117,0.74058,55,2.77926,0.574,0.28292,0.79051,5,2D1U,1.0,True,0.125,8,True,left,-0.24963,0.3442,1.2772,0.933,2.0772,2.4697,0.3925,A
56,0.49927,1.2,1,0.33284,0.3162,0.79883,56,2.32991,-0.234,-0.1165,0.38277,5,2U1D,2.0,True,0.111,3,True,right,0.08321,0.2631,0.7874,0.5243,1.4785,2.2046,0.7262,A
57,0.49927,0.1,2,0.23299,0.38277,0.61576,57,2.49633,0.538,0.26628,0.76554,5,2D1U,2.0,True,0.13,8,False,right,-0.24963,1.3882,2.0712,0.683,0.271,0.6876,0.4165,A
58,0.49927,0.1,2,0.37445,0.29124,0.49927,58,1.71416,-0.9,-0.44934,0.04993,5,lapse_rate,1.0,True,0.253,0,False,left,0.08321,1.5829,1.551,-0.0319,0.2505,1.0005,0.75,A
59,0.49927,0.1,2,0.42438,0.34117,0.41606,59,1.73081,-0.9,-0.44934,0.04993,5,lapse_rate,1.0,True,0.283,0,False,left,-0.24963,1.386,1.3529,-0.033,0.4697,0.8855,0.4158,A
60,0.49927,0.1,2,0.23299,0.33284,0.85708,60,2.32159,-0.198,-0.09985,0.39941,5,2U1D,2.0,False,2.613,4,True,right,0.08321,1.801,2.1178,0.3168,0.1097,0.8594,0.7496,A
61,0.49927,1.2,1,0.44102,0.36613,0.78219,61,2.85415,0.538,0.26628,0.76554,5,2D1U,1.0,True,0.9,8,False,left,-0.24963,0.3756,1.2838,0.9083,2.1261,2.517,0.3909,A
62,0.49927,1.2,2,0.39109,0.39941,0.71562,62,2.75429,0.502,0.24963,0.7489,5,2D1U,2.0,True,0.937,8,False,right,0.08321,1.7887,2.4637,0.675,0.2798,1.0054,0.7256,A
63,0.49927,0.1,2,0.4327,0.24963,0.58248,63,2.14685,-0.234,-0.1165,0.38277,5,2U1D,1.0,True,0.352,5,True,left,-0.24963,1.5539,1.853,0.2991,0.4704,0.8872,0.4168,A
64,0.49927,0.1,1,0.29956,0.29956,0.53255,64,2.57955,0.9,0.44934,0.94861,5,lapse_rate,1.0,True,0.781,0,False,left,0.08321,0.2127,1.3298,1.1171,1.7381,2.4884,0.7504,A
65,0.49927,0.1,2,0.22467,0.25795,0.82379,65,2.55458,0.502,0.24963,0.7489,5,2D1U,2.0,True,0.71,8,False,right,-0.24963,1.5918,2.2596,0.6677,0.2679,0.6843,0.4164,A
66,0.49927,1.2,2,0.34117,0.21635,0.45766,66,1.89722,-0.234,-0.1165,0.38277,5,2U1D,2.0,False,1.238,5,True,right,0.08321,1.4813,1.7902,0.3089,0.2311,0.9563,0.7252,A
67,0.49927,1.2,2,0.21635,0.44102,0.50759,67,2.61284,0.9,0.44934,0.94861,5,lapse_rate,2.0,True,0.537,0,False,right,-0.24963,1.2394,2.1139,0.8744,0.2718,0.6642,0.3924,A
68,0.49927,1.2,2,0.38277,0.24963,0.84043,68,2.33823,-0.27,-0.13314,0.36613,5,2U1D,1.0,True,0.382,5,False,left,0.08321,1.9086,2.1997,0.2911,0.2755,1.0004,0.7249,A
69,0.49927,0.1,2,0.39941,0.39109,0.67401,69,2.91239,0.9,0.44934,0.94861,5,lapse_rate,2.0,True,0.235,0,False,right,-0.24963,1.6191,2.4846,0.8655,0.4438,0.8604,0.4166,A
70,0.49927,0.1,2,0.33284,0.22467,0.82379,70,2.61283,0.466,0.23299,0.73226,5,2D1U,2.0,True,0.109,8,False,right,0.08321,1.8627,2.512,0.6493,0.2041,0.9542,0.75,A
71,0.49927,0.1,1,0.41606,0.41606,0.69897,71,2.39649,-0.27,-0.13314,0.36613,5,2U1D,2.0,True,0.389,5,False,right,-0.24963,0.3312,0.8645,0.5333,1.6054,2.0223,0.4169,A
72,0.49927,1.2,1,0.3162,0.2746,0.44102,72,1.58102,-0.9,-0.44934,0.04993,5,lapse_rate,2.0,True,0.175,0,False,right,0.08321,0.2459,0.4375,0.1916,0.7711,1.4964,0.7253,A
73,0.49927,1.2,1,0.37445,0.21635,0.88204,73,2.70437,0.466,0.23299,0.73226,5,2D1U,1.0,True,0.516,8,False,left,-0.24963,0.3032,1.1784,0.8752,2.1205,2.512,0.3914,A
74,0.49927,1.2,1,0.29124,0.25795,0.54919,74,2.31327,0.43,0.21635,0.71562,5,2D1U,1.0,True,0.208,8,False,left,0.08321,0.224,1.0827,0.8587,1.5236,2.2489,0.7253,A
75,0.49927,1.2,1,0.36613,0.40773,0.56584,75,1.8889,-0.9,-0.44934,0.04993,5,lapse_rate,2.0,True,0.752,0,False,right,-0.24963,0.2972,0.489,0.1918,1.1141,1.5057,0.3916,A
76,0.49927,0.1,2,0.24131,0.26628,0.60744,76,1.99707,-0.234,-0.1165,0.38277,5,2U1D,1.0,True,0.508,6,True,left,0.08321,1.5546,1.8551,0.3005,0.1135,0.8635,0.75,A
77,0.49927,0.1,2,0.44102,0.29124,0.45766,77,2.07196,-0.234,-0.1165,0.38277,5,2U1D,2.0,False,0.109,6,True,right,-0.24963,1.4391,1.7386,0.2996,0.4803,0.8967,0.4164,A
78,0.49927,1.2,2,0.34949,0.28292,0.72394,78,2.80423,0.9,0.44934,0.94861,5,lapse_rate,2.0,True,0.111,0,False,right,0.08321,1.7614,2.6357,0.8743,0.2447,0.9687,0.7241,A
79,0.49927,1.2,2,0.24131,0.21635,0.83211,79,2.50466,0.43,0.21635,0.71562,5,2D1U,2.0,True,0.137,8,False,right,-0.24963,1.5877,2.2297,0.642,0.2963,0.6879,0.3916,A
80,0.49927,1.2,1,0.33284,0.23299,0.69897,80,2.71268,0.9,0.44934,0.94861,5,lapse_rate,2.0,False,0.309,0,False,right,0.08321,0.2675,1.3595,1.092,1.9508,2.6773,0.7265,A
81,0.49927,1.2,2,0.22467,0.19971,0.62408,81,2.2467,0.394,0.19971,0.69897,5,2D1U,2.0,True,0.385,8,False,right,-0.24963,1.3636,1.9874,0.6238,0.2792,0.6716,0.3923,A
82,0.49927,0.1,2,0.28292,0.25795,0.63241,82,2.03868,-0.27,-0.13314,0.36613,5,2U1D,2.0,False,0.858,7,True,right,0.08321,1.6274,1.9115,0.2841,0.1606,0.9104,0.7498,A
83,0.49927,0.1,2,0.39109,0.28292,0.7073,83,2.57955,0.394,0.19971,0.69897,5,2D1U,1.0,False,1.137,8,False,left,-0.24963,1.6406,2.2572,0.6166,0.4331,0.8491,0.416,A
84,0.49927,1.2,1,0.4327,0.25795,0.49927,84,2.6378,0.9,0.44934,0.94861,5,lapse_rate,1.0,True,1.23,0,False,left,0.08321,0.3656,1.4569,1.0913,1.8491,2.5741,0.725,A
85,0.49927,1.2,2,0.30788,0.2746,0.51591,85,1.94715,-0.306,-0.14978,0.34949,5,2U1D,2.0,False,0.269,7,False,right,-0.24963,1.3391,1.6147,0.2756,0.3639,0.7556,0.3917,A
86,0.49927,1.2,2,0.32452,0.22467,0.72394,86,2.10524,-0.342,-0.17474,0.33284,5,2U1D,2.0,False,0.298,7,False,right,0.08321,1.7362,1.9945,0.2583,0.2188,0.9436,0.7248,A
87,0.49927,0.1,2,0.33284,0.34949,0.40773,87,2.30495,0.43,0.21635,0.71562,5,2D1U,1.0,False,1.3,9,True,left,-0.24963,1.2795,1.9134,0.6338,0.3709,0.788,0.4172,A
88,0.49927,1.2,2,0.20803,0.44934,0.69897,88,2.80422,0.9,0.44934,0.94861,5,lapse_rate,2.0,True,0.445,0,False,right,0.08321,1.5929,2.4688,0.8759,0.1025,0.8267,0.7242,A
89,0.49927,0.1,2,0.28292,0.33284,0.41606,89,1.58102,-0.9,-0.44934,0.04993,5,lapse_rate,1.0,True,0.471,0,False,left,-0.24963,1.2402,1.2058,-0.0343,0.3226,0.7397,0.4171,A
90,0.49927,0.1,2,0.33284,0.29124,0.4743,90,1.90553,-0.378,-0.19139,0.30788,5,2U1D,1.0,True,0.168,7,False,left,0.08321,1.5136,1.7381,0.2245,0.2058,0.9553,0.7496,A
91,0.49927,1.2,2,0.21635,0.22467,0.64073,91,2.31328,0.466,0.23299,0.73226,5,2D1U,2.0,True,0.114,9,False,right,-0.24963,1.371,2.0291,0.6581,0.271,0.6622,0.3912,A
92,0.49927,1.2,2,0.42438,0.42438,0.59912,92,2.67941,0.466,0.23299,0.73226,5,2D1U,2.0,True,0.933,9,False,right,0.08321,1.7105,2.3684,0.658,0.319,1.0435,0.7245,A
93,0.49927,0.1,2,0.36613,0.28292,0.74058,93,1.93883,-0.9,-0.44934,0.04993,5,lapse_rate,1.0,True,2.541,0,False,left,-0.24963,1.6514,1.6176,-0.0338,0.4093,0.8261,0.4168,A
94,0.49927,0.1,2,0.23299,0.34949,0.61576,94,2.00539,-0.378,-0.19139,0.30788,5,2U1D,1.0,True,3.006,7,False,left,0.08321,1.5556,1.7818,0.2262,0.1064,0.8564,0.75,A
95,0.49927,0.1,2,0.29956,0.29956,0.7073,95,2.7543,0.9,0.44934,0.94861,5,lapse_rate,2.0,True,0.112,0,False,right,-0.24963,1.5474,2.414,0.8667,0.3397,0.7572,0.4174,A
96,0.49927,0.1,1,0.39109,0.44102,0.79051,96,2.45473,-0.342,-0.17474,0.33284,5,2U1D,2.0,True,0.111,8,True,right,0.08321,0.3034,0.8036,0.5002,1.4707,2.2209,0.7502,A
97,0.49927,1.2,1,0.24963,0.41606,0.73226,97,2.61284,0.43,0.21635,0.71562,5,2D1U,1.0,True,0.367,10,True,left,-0.24963,0.1868,1.0446,0.8578,1.8367,2.2285,0.3917,A
98,0.49927,1.2,1,0.33284,0.34949,0.60744,98,1.83897,-0.9,-0.44934,0.04993,5,lapse_rate,2.0,True,0.111,0,False,right,0.08321,0.2659,0.4569,0.191,0.9577,1.6825,0.7248,A
99,0.49927,1.2,1,0.38277,0.33284,0.79883,99,2.72933,0.43,0.21635,0.71562,5,2D1U,1.0,True,0.467,10,True,left,-0.24963,0.3145,1.1729,0.8583,2.0304,2.4231,0.3926,A
100,0.49927,0.1,1,0.23299,0.36613,0.45766,100,1.88889,-0.342,-0.17474,0.33284,5,2U1D,2.0,True,0.151,8,True,right,0.08321,0.149,0.6486,0.4996,0.9813,1.7323,0.751,A
101,0.49927,0.1,2,0.41606,0.39109,0.45766,101,1.81401,-0.9,-0.44934,0.04993,5,lapse_rate,1.0,True,0.624,0,False,left,-0.24963,1.4154,1.3825,-0.0329,0.4568,0.873,0.4161,A
102,0.49927,0.1,2,0.29124,0.3162,0.84043,102,2.29663,-0.306,-0.14978,0.34949,5,2U1D,2.0,False,0.28,8,False,right,0.08321,1.8375,2.1039,0.2664,0.1626,0.9124,0.7499,A
103,0.49927,1.2,1,0.38277,0.39109,0.51591,103,2.48801,0.394,0.19971,0.69897,5,2D1U,1.0,True,0.108,10,False,left,-0.24963,0.3154,1.1569,0.8415,1.7313,2.124,0.3927,A
104,0.49927,1.2,2,0.32452,0.23299,0.49095,104,1.59766,-0.9,-0.44934,0.04993,5,lapse_rate,1.0,True,0.613,0,False,left,0.08321,1.4979,1.4725,-0.0254,0.2141,0.9385,0.7244,A
105,0.49927,1.2,2,0.44102,0.40773,0.77386,105,2.45472,-0.342,-0.17474,0.33284,5,2U1D,1.0,True,0.13,9,True,left,-0.24963,1.7314,1.9898,0.2584,0.4981,0.8901,0.3919,A
106,0.49927,0.1,1,0.34117,0.2746,0.72394,106,2.53795,0.394,0.19971,0.69897,5,2D1U,1.0,True,0.928,10,False,left,0.08321,0.2615,1.1289,0.8674,1.7278,2.4772,0.7493,A
107,0.49927,0.1,1,0.24963,0.21635,0.4743,107,2.12188,0.358,0.18306,0.68233,5,2D1U,2.0,False,0.16,10,False,right,-0.24963,0.1683,1.018,0.8497,1.5353,1.9514,0.416,A
108,0.49927,1.2,1,0.22467,0.34117,0.8654,108,2.26335,-0.342,-0.17474,0.33284,5,2U1D,2.0,True,0.175,9,True,right,0.08321,0.1563,0.6314,0.4752,1.3903,2.1151,0.7248,A
109,0.49927,0.1,2,0.26628,0.41606,0.48262,109,2.61284,0.9,0.44934,0.94861,5,lapse_rate,2.0,True,0.11,0,False,right,-0.24963,1.2906,2.1565,0.8659,0.3071,0.7242,0.4172,A
110,0.49927,1.2,2,0.25795,0.24963,0.45766,110,2.16348,0.394,0.19971,0.69897,5,2D1U,1.0,False,0.486,11,True,left,0.08321,1.4021,2.0276,0.6255,0.1515,0.8771,0.7256,A
111,0.49927,0.1,1,0.30788,0.38277,0.69065,111,2.23006,-0.306,-0.14978,0.34949,5,2U1D,2.0,True,0.393,10,True,right,-0.24963,0.2272,0.7443,0.5172,1.4777,1.8942,0.4165,A
112,0.49927,1.2,2,0.2746,0.28292,0.84043,112,2.84583,0.9,0.44934,0.94861,5,lapse_rate,2.0,True,0.132,0,False,right,0.08321,1.7976,2.6724,0.8748,0.1639,0.8894,0.7255,A
113,0.49927,0.1,2,0.42438,0.25795,0.54087,113,2.07196,-0.306,-0.14978,0.34949,5,2U1D,1.0,True,0.568,10,True,left,-0.24963,1.5042,1.7716,0.2673,0.4633,0.8799,0.4167,A
114,0.49927,0.1,1,0.25795,0.42438,0.45766,114,2.58787,0.9,0.44934,0.94861,5,lapse_rate,1.0,True,0.122,0,False,left,0.08321,0.1707,1.2881,1.1174,1.6203,2.3708,0.7506,A
115,0.49927,1.2,2,0.4327,0.34117,0.84875,115,2.83751,0.43,0.21635,0.71562,5,2D1U,2.0,True,0.259,11,False,right,-0.24963,1.8033,2.4449,0.6416,0.4948,0.8865,0.3917,A
116,0.49927,0.1,2,0.2746,0.24963,0.49927,116,2.47138,0.9,0.44934,0.94861,5,lapse_rate,2.0,True,0.265,0,False,right,0.08321,1.4819,2.3492,0.8674,0.1491,0.8992,0.7501,A
117,0.49927,1.2,2,0.35781,0.39109,0.73226,117,2.69605,0.43,0.21635,0.71562,5,2D1U,2.0,True,0.176,11,False,right,-0.24963,1.607,2.2493,0.6423,0.4161,0.8078,0.3917,A
118,0.49927,0.1,1,0.24131,0.39109,0.4327,118,1.9305,-0.27,-0.13314,0.36613,5,2U1D,2.0,True,0.142,10,False,right,0.08321,0.1557,0.6889,0.5332,0.9974,1.748,0.7506,A
119,0.49927,0.1,2,0.41606,0.38277,0.69897,119,2.3632,-0.27,-0.13314,0.36613,5,2U1D,1.0,True,0.134,10,False,left,-0.24963,1.66,1.9424,0.2824,0.4596,0.8768,0.4171,A
120,0.49927,1.2,2,0.29956,0.3162,0.7073,120,2.77094,0.9,0.44934,0.94861,5,lapse_rate,2.0,True,0.131,0,False,right,0.08321,1.6887,2.5634,0.8747,0.1897,0.9141,0.7244,A
121,0.49927,1.2,1,0.4327,0.37445,0.79051,121,2.7959,0.394,0.19971,0.69897,5,2D1U,1.0,True,0.748,12,True,left,-0.24963,0.3629,1.204,0.8411,2.0547,2.446,0.3913,A
122,0.49927,1.2,2,0.44934,0.35781,0.4743,122,1.83065,-0.9,-0.44934,0.04993,5,lapse_rate,1.0,True,0.581,0,False,left,0.08321,1.6102,1.5848,-0.0254,0.3431,1.0679,0.7248,A
123,0.49927,1.2,1,0.2746,0.24131,0.81547,123,2.21342,-0.234,-0.1165,0.38277,5,2U1D,2.0,True,0.199,10,False,right,-0.24963,0.2067,0.7305,0.5238,1.6062,1.9971,0.3909,A
124,0.49927,0.1,1,0.33284,0.29956,0.76554,124,2.59618,0.394,0.19971,0.69897,5,2D1U,1.0,True,0.963,12,True,left,0.08321,0.2499,1.117,0.8671,1.759,2.5088,0.7499,A
125,0.49927,0.1,2,0.39109,0.23299,0.77386,125,2.27998,-0.234,-0.1165,0.38277,5,2U1D,1.0,True,0.209,10,False,left,-0.24963,1.7103,2.0111,0.3008,0.4356,0.8524,0.4167,A
126,0.49927,0.1,1,0.40773,0.44102,0.5908,126,2.88743,0.9,0.44934,0.94861,5,lapse_rate,1.0,True,0.439,0,False,left,0.08321,0.3209,1.4373,1.1164,1.9035,2.6534,0.7498,A
127,0.49927,1.2,1,0.2746,0.2746,0.55752,127,2.28832,0.358,0.18306,0.68233,5,2D1U,1.0,True,0.794,12,False,left,-0.24963,0.2068,1.0317,0.8249,1.6485,2.04,0.3915,A
128,0.49927,0.1,1,0.29124,0.39941,0.78219,128,2.02204,-0.9,-0.44934,0.04993,5,lapse_rate,2.0,True,0.129,0,False,right,0.08321,0.2056,0.4232,0.2176,1.0811,1.8314,0.7503,A
129,0.49927,1.2,1,0.34117,0.34117,0.41606,129,1.99708,-0.198,-0.09985,0.39941,5,2U1D,2.0,True,0.806,10,False,right,-0.24963,0.2706,0.8117,0.5411,1.2868,1.6788,0.392,A
130,0.49927,0.1,1,0.32452,0.44934,0.84043,130,2.79589,0.358,0.18306,0.68233,5,2D1U,1.0,True,0.222,12,False,left,0.08321,0.238,1.0871,0.849,1.8044,2.5544,0.75,A
131,0.49927,0.1,1,0.33284,0.36613,0.79051,131,2.03868,-0.9,-0.44934,0.04993,5,lapse_rate,2.0,True,0.11,0,False,right,-0.24963,0.2493,0.4658,0.2164,1.2991,1.7151,0.4159,A
132,0.49927,0.1,2,0.36613,0.33284,0.56584,132,2.16349,-0.198,-0.09985,0.39941,5,2U1D,1.0,True,1.002,10,False,left,0.08321,1.6448,1.9613,0.3165,0.2441,0.9948,0.7507,A
133,0.49927,1.2,2,0.39941,0.40773,0.54087,133,2.50465,0.322,0.1581,0.65737,5,2D1U,2.0,True,0.117,12,False,right,-0.24963,1.4536,2.0371,0.5835,0.4536,0.8462,0.3925,A
134,0.49927,1.2,2,0.28292,0.37445,0.55752,134,2.13022,-0.162,-0.08321,0.41606,5,2U1D,1.0,True,0.548,10,False,left,0.08321,1.5239,1.8653,0.3414,0.1738,0.899,0.7252,A
135,0.49927,0.1,2,0.35781,0.34117,0.50759,135,2.36321,0.322,0.1581,0.65737,5,2D1U,1.0,False,1.135,12,False,left,-0.24963,1.405,1.9808,0.5758,0.3968,0.8144,0.4175,A
136,0.49927,0.1,2,0.29956,0.36613,0.60744,136,2.72101,0.9,0.44934,0.94861,5,lapse_rate,2.0,True,0.112,0,False,right,0.08321,1.614,2.4804,0.8663,0.1723,0.9216,0.7493,A
137,0.49927,0.1,2,0.39941,0.39941,0.64905,137,2.3632,-0.162,-0.08321,0.41606,5,2U1D,1.0,True,0.171,10,False,left,-0.24963,1.5869,1.92,0.3331,0.4375,0.8533,0.4158,A
138,0.49927,1.2,2,0.36613,0.30788,0.87372,138,2.99561,0.9,0.44934,0.94861,5,lapse_rate,1.0,False,0.111,0,False,left,0.08321,1.9239,2.7984,0.8745,0.257,0.9826,0.7256,A
139,0.49927,1.2,2,0.39109,0.4327,0.51591,139,2.5213,0.358,0.18306,0.68233,5,2D1U,2.0,True,0.482,13,True,right,-0.24963,1.4244,2.0322,0.6078,0.4495,0.8406,0.3911,A
140,0.49927,1.2,1,0.22467,0.22467,0.87372,140,2.50466,0.358,0.18306,0.68233,5,2D1U,2.0,False,0.789,13,True,right,0.08321,0.1596,0.9845,0.8249,1.7504,2.4761,0.7256,A
141,0.49927,0.1,1,0.42438,0.20803,0.81547,141,2.38817,-0.126,-0.06657,0.44102,5,2U1D,2.0,True,0.482,10,False,right,-0.24963,0.3382,0.9465,0.6083,1.805,2.2211,0.4162,A
142,0.49927,1.2,1,0.26628,0.29956,0.40773,142,2.42145,0.9,0.44934,0.94861,5,lapse_rate,1.0,True,0.171,0,False,left,0.08321,0.1952,1.2875,1.0923,1.588,2.3119,0.724,A
143,0.49927,0.1,1,0.40773,0.40773,0.44102,143,2.19677,-0.126,-0.06657,0.44102,5,2U1D,2.0,True,0.22,10,False,right,-0.24963,0.3234,0.9315,0.6082,1.4147,1.832,0.4173,A
144,0.49927,1.2,2,0.32452,0.22467,0.60744,144,2.35487,0.394,0.19971,0.69897,5,2D1U,2.0,True,0.208,13,False,right,0.08321,1.6189,2.2446,0.6257,0.2193,0.9446,0.7254,A
145,0.49927,1.2,1,0.4327,0.42438,0.7489,145,2.15518,-0.9,-0.44934,0.04993,5,lapse_rate,2.0,True,0.283,0,False,right,-0.24963,0.362,0.5534,0.1914,1.3617,1.7528,0.3912,A
146,0.49927,1.2,2,0.25795,0.35781,0.46598,146,1.63094,-0.9,-0.44934,0.04993,5,lapse_rate,1.0,True,0.791,0,False,left,0.08321,1.4053,1.3807,-0.0247,0.1476,0.8727,0.725,A
147,0.49927,1.2,1,0.29956,0.28292,0.59912,147,2.37984,0.394,0.19971,0.69897,5,2D1U,2.0,False,10.505,13,False,right,-0.24963,0.2362,1.078,0.8418,1.7362,2.1277,0.3915,A
148,0.49927,0.1,2,0.25795,0.32452,0.57416,148,2.11356,-0.09,-0.04161,0.45766,5,2U1D,1.0,True,2.316,10,False,left,0.08321,1.5441,1.9182,0.3741,0.1355,0.8846,0.7491,A
149,0.49927,0.1,2,0.4327,0.29956,0.79051,149,2.97065,0.9,0.44934,0.94861,5,lapse_rate,2.0,True,0.159,0,False,right,-0.24963,1.764,2.6302,0.8662,0.4723,0.8889,0.4166,A
150,0.49927,0.1,1,0.44102,0.30788,0.74058,150,2.44641,-0.09,-0.04161,0.45766,5,2U1D,2.0,True,1.282,10,False,right,0.08321,0.3538,0.9792,0.6255,1.5949,2.3455,0.7505,A
151,0.49927,1.2,1,0.25795,0.37445,0.54919,151,2.39648,0.43,0.21635,0.71562,5,2D1U,1.0,True,1.325,13,False,left,-0.24963,0.194,1.0529,0.8588,1.6606,2.053,0.3923,A
152,0.49927,1.2,2,0.23299,0.24963,0.80715,152,2.26334,-0.054,-0.02496,0.4743,5,2U1D,2.0,False,0.86,10,False,right,0.08321,1.7252,2.1255,0.4003,0.1245,0.8504,0.7258,A
153,0.49927,1.2,1,0.20803,0.19971,0.85708,153,2.7127,0.9,0.44934,0.94861,5,lapse_rate,1.0,True,0.256,0,False,left,-0.24963,0.1412,1.2328,1.0916,2.1493,2.5413,0.392,A
154,0.49927,0.1,2,0.32452,0.20803,0.54087,154,2.28831,0.43,0.21635,0.71562,5,2D1U,2.0,True,0.402,13,False,right,0.08321,1.5726,2.2059,0.6333,0.1979,0.9476,0.7497,A
155,0.49927,0.1,2,0.24131,0.30788,0.60744,155,2.11356,-0.09,-0.04161,0.45766,5,2U1D,2.0,False,0.936,11,True,right,-0.24963,1.3906,1.7655,0.3749,0.2818,0.6979,0.4161,A
156,0.49927,1.2,2,0.42438,0.29956,0.48262,156,2.4048,0.394,0.19971,0.69897,5,2D1U,2.0,True,0.562,14,True,right,0.08321,1.59,2.2149,0.6249,0.3148,1.04,0.7252,A
157,0.49927,1.2,2,0.29956,0.42438,0.84043,157,2.11357,-0.9,-0.44934,0.04993,5,lapse_rate,2.0,False,0.641,0,False,right,-0.24963,1.6552,1.6301,-0.0252,0.3558,0.748,0.3922,A
158,0.49927,0.1,2,0.24963,0.4327,0.89868,158,3.02889,0.9,0.44934,0.94861,5,lapse_rate,2.0,True,1.164,0,False,right,0.08321,1.8562,2.7225,0.8664,0.1227,0.8726,0.7499,A
159,0.49927,1.2,2,0.35781,0.37445,0.5908,159,2.5213,0.394,0.19971,0.69897,5,2D1U,2.0,True,1.289,14,True,right,-0.24963,1.4682,2.093,0.6248,0.4183,0.8097,0.3914,A
160,0.49927,0.1,2,0.28292,0.20803,0.52423,160,1.95547,-0.126,-0.06657,0.44102,5,2U1D,1.0,True,0.495,11,False,left,0.08321,1.5131,1.8715,0.3584,0.155,0.9054,0.7504,A
161,0.49927,0.1,2,0.36613,0.40773,0.41606,161,2.13021,-0.126,-0.06657,0.44102,5,2U1D,1.0,True,0.542,11,False,left,-0.24963,1.3256,1.6846,0.359,0.4088,0.8255,0.4167,A
162,0.49927,1.2,1,0.44102,0.21635,0.50759,162,1.71416,-0.9,-0.44934,0.04993,5,lapse_rate,2.0,True,0.196,0,False,right,0.08321,0.3707,0.5624,0.1917,0.9625,1.6881,0.7256,A
163,0.49927,1.2,2,0.42438,0.23299,0.50759,163,2.34656,0.358,0.18306,0.68233,5,2D1U,2.0,True,0.106,14,False,right,-0.24963,1.4452,2.0538,0.6086,0.4793,0.8702,0.3909,A
164,0.49927,1.2,1,0.40773,0.30788,0.75722,164,2.92071,0.9,0.44934,0.94861,5,lapse_rate,1.0,True,0.267,0,False,left,0.08321,0.3428,1.4348,1.0919,2.0853,2.8093,0.724,A
165,0.49927,1.2,1,0.30788,0.44102,0.64905,165,2.35488,-0.09,-0.04161,0.45766,5,2U1D,1.0,False,0.24,12,True,left,-0.24963,0.2395,0.8391,0.5996,1.5478,1.9392,0.3914,A
166,0.49927,0.1,2,0.39941,0.39109,0.49927,166,2.47137,0.358,0.18306,0.68233,5,2D1U,2.0,True,0.239,14,False,right,0.08321,1.6078,2.207,0.5992,0.2737,1.0243,0.7506,A
167,0.49927,0.1,1,0.3162,0.34949,0.51591,167,2.33824,0.322,0.1581,0.65737,5,2D1U,1.0,True,0.185,14,False,left,-0.24963,0.2311,1.0551,0.824,1.6146,2.0308,0.4162,A
168,0.49927,1.2,1,0.23299,0.42438,0.85708,168,2.45474,-0.126,-0.06657,0.44102,5,2U1D,2.0,True,0.253,13,True,right,0.08321,0.1644,0.7471,0.5827,1.4975,2.2227,0.7252,A
169,0.49927,1.2,2,0.25795,0.42438,0.72394,169,2.56291,0.322,0.1581,0.65737,5,2D1U,2.0,True,0.113,14,False,right,-0.24963,1.5031,2.0862,0.583,0.3201,0.7109,0.3908,A
170,0.49927,0.1,1,0.24963,0.25795,0.62408,170,2.07195,-0.126,-0.06657,0.44102,5,2U1D,2.0,True,2.168,13,True,right,0.08321,0.1667,0.7753,0.6086,1.2752,2.0253,0.7501,A
171,0.49927,0.1,2,0.24963,0.32452,0.54087,171,2.07195,-0.09,-0.04161,0.45766,5,2U1D,2.0,False,1.092,14,True,right,-0.24963,1.3305,1.7055,0.375,0.2887,0.7059,0.4172,A
172,0.49927,1.2,2,0.41606,0.39941,0.84875,172,2.80422,0.286,0.14146,0.64073,5,2D1U,2.0,True,0.678,14,False,right,0.08321,1.947,2.5128,0.5658,0.3048,1.0295,0.7247,A
173,0.49927,1.2,2,0.36613,0.21635,0.52423,173,2.047,-0.126,-0.06657,0.44102,5,2U1D,2.0,False,0.493,15,True,right,-0.24963,1.4114,1.7774,0.366,0.4267,0.8185,0.3918,A
174,0.49927,0.1,2,0.28292,0.24131,0.79883,174,2.23839,-0.162,-0.08321,0.41606,5,2U1D,2.0,False,1.035,15,False,right,0.08321,1.7898,2.1233,0.3334,0.1571,0.9069,0.7498,A
175,0.49927,0.1,2,0.4327,0.39941,0.69065,175,2.66276,0.286,0.14146,0.64073,5,2D1U,2.0,True,0.489,14,False,right,-0.24963,1.6638,2.2216,0.5578,0.4722,0.889,0.4168,A
176,0.49927,1.2,2,0.3162,0.21635,0.61576,176,2.27166,0.25,0.12482,0.62408,5,2D1U,2.0,True,0.642,14,False,right,0.08321,1.6199,2.1693,0.5494,0.211,0.9362,0.7252,A
177,0.49927,1.2,2,0.22467,0.28292,0.5908,177,1.99707,-0.198,-0.09985,0.39941,5,2U1D,2.0,False,0.754,15,False,right,-0.24963,1.3324,1.6573,0.3249,0.282,0.6739,0.3919,A
178,0.49927,0.1,1,0.23299,0.24131,0.52423,178,1.88057,-0.234,-0.1165,0.38277,5,2U1D,2.0,True,0.242,15,False,right,0.08321,0.1453,0.6955,0.5502,1.0956,1.8448,0.7491,A
179,0.49927,0.1,2,0.30788,0.35781,0.83211,179,2.37984,-0.234,-0.1165,0.38277,5,2U1D,1.0,True,1.125,15,False,left,-0.24963,1.6842,1.9841,0.3,0.3514,0.7677,0.4163,A
180,0.49927,1.2,1,0.21635,0.32452,0.62408,180,2.2883,0.25,0.12482,0.62408,5,2D1U,2.0,False,2.551,14,False,right,0.08321,0.1489,0.9159,0.767,1.4336,2.1574,0.7239,A
181,0.49927,1.2,2,0.33284,0.20803,0.44934,181,2.13021,0.286,0.14146,0.64073,5,2D1U,2.0,True,0.113,15,True,right,-0.24963,1.2949,1.8624,0.5675,0.3876,0.7792,0.3917,A
182,0.49927,0.1,1,0.36613,0.26628,0.54087,182,2.07196,-0.198,-0.09985,0.39941,5,2U1D,2.0,True,0.113,16,True,right,0.08321,0.2852,0.851,0.5658,1.2679,2.0187,0.7508,A
183,0.49927,0.1,1,0.34949,0.40773,0.72394,183,2.62116,0.286,0.14146,0.64073,5,2D1U,1.0,True,0.491,15,True,left,-0.24963,0.2672,1.0754,0.8082,1.8428,2.2589,0.4161,A
184,0.49927,1.2,2,0.40773,0.42438,0.59912,184,2.32991,-0.198,-0.09985,0.39941,5,2U1D,1.0,True,0.451,16,True,left,0.08321,1.6868,2.0117,0.3249,0.2958,1.0201,0.7243,A
185,0.49927,1.2,1,0.34949,0.21635,0.62408,185,2.10525,-0.162,-0.08321,0.41606,5,2U1D,2.0,True,2.425,16,False,right,-0.24963,0.2849,0.8437,0.5588,1.5268,1.9183,0.3915,A
186,0.49927,0.1,1,0.24131,0.29956,0.65737,186,2.32159,0.25,0.12482,0.62408,5,2D1U,1.0,True,1.242,16,True,left,0.08321,0.1545,0.9463,0.7918,1.4794,2.2295,0.7502,A
187,0.49927,0.1,1,0.29956,0.40773,0.75722,187,2.37984,-0.162,-0.08321,0.41606,5,2U1D,2.0,True,0.112,16,False,right,-0.24963,0.2139,0.7964,0.5826,1.5966,2.0133,0.4167,A
188,0.49927,1.2,1,0.38277,0.44934,0.74058,188,2.69604,0.25,0.12482,0.62408,5,2D1U,2.0,False,0.142,16,True,right,0.08321,0.3144,1.081,0.7667,1.7138,2.4388,0.725,A
189,0.49927,1.2,2,0.29124,0.25795,0.48262,189,1.9721,-0.126,-0.06657,0.44102,5,2U1D,2.0,False,0.73,16,False,right,-0.24963,1.2922,1.6594,0.3672,0.3505,0.7426,0.3921,A
190,0.49927,0.1,1,0.44102,0.34949,0.83211,190,2.76262,0.286,0.14146,0.64073,5,2D1U,2.0,False,2.134,17,True,right,0.08321,0.3567,1.166,0.8094,1.8737,2.6234,0.7497,A
191,0.49927,0.1,1,0.30788,0.37445,0.50759,191,2.10525,-0.162,-0.08321,0.41606,5,2U1D,2.0,True,0.306,17,True,right,-0.24963,0.2232,0.8061,0.5829,1.3573,1.7729,0.4156,A
192,0.49927,1.2,2,0.33284,0.26628,0.60744,192,2.3632,0.322,0.1581,0.65737,5,2D1U,2.0,True,0.326,17,False,right,0.08321,1.6212,2.2045,0.5833,0.2212,0.9463,0.7251,A
193,0.49927,1.2,1,0.25795,0.39109,0.60744,193,2.41312,0.322,0.1581,0.65737,5,2D1U,1.0,True,1.224,17,False,left,-0.24963,0.1894,0.9909,0.8014,1.6568,2.0485,0.3917,A
194,0.49927,0.1,1,0.32452,0.34117,0.55752,194,2.13854,-0.162,-0.08321,0.41606,5,2U1D,2.0,True,0.772,17,True,right,0.08321,0.2391,0.8227,0.5836,1.2561,2.0058,0.7497,A
195,0.49927,0.1,1,0.39109,0.34949,0.56584,195,2.44642,0.286,0.14146,0.64073,5,2D1U,1.0,True,0.334,18,True,left,-0.24963,0.3044,1.1121,0.8077,1.7205,2.1371,0.4166,A
196,0.49927,1.2,1,0.34949,0.22467,0.42438,196,2.13854,0.286,0.14146,0.64073,5,2D1U,1.0,True,1.559,18,True,left,0.08321,0.2789,1.0624,0.7835,1.3786,2.1036,0.725,A
197,0.49927,1.2,1,0.42438,0.30788,0.66569,197,2.33824,-0.126,-0.06657,0.44102,5,2U1D,2.0,True,0.205,18,True,right,-0.24963,0.3553,0.9388,0.5834,1.664,2.0558,0.3918,A
198,0.49927,0.1,2,0.2746,0.44934,0.51591,198,2.3632,0.25,0.12482,0.62408,5,2D1U,2.0,True,0.113,18,False,right,0.08321,1.4949,2.0367,0.5418,0.1449,0.895,0.7501,A
199,0.49927,0.1,1,0.37445,0.30788,0.84875,199,2.65443,0.25,0.12482,0.62408,5,2D1U,1.0,True,0.736,18,False,left,-0.24963,0.2901,1.0814,0.7913,1.9736,2.3897,0.4161,A
200,0.49927,1.2,2,0.3162,0.34117,0.67401,200,2.27167,-0.126,-0.06657,0.44102,5,2U1D,1.0,True,0.507,18,True,left,0.08321,1.6718,2.0388,0.367,0.2056,0.9302,0.7246,A
201,0.49927,1.2,2,0.33284,0.26628,0.57416,201,2.13021,-0.09,-0.04161,0.45766,5,2U1D,2.0,False,1.108,18,False,right,-0.24963,1.4217,1.8044,0.3827,0.3874,0.7794,0.392,A
202,0.49927,0.1,1,0.34117,0.33284,0.87372,202,2.65444,0.214,0.10817,0.60744,5,2D1U,1.0,True,1.713,18,False,left,0.08321,0.2532,1.0283,0.775,1.7783,2.5289,0.7506,A
203,0.49927,0.1,2,0.28292,0.42438,0.82379,203,2.47138,-0.126,-0.06657,0.44102,5,2U1D,2.0,False,3.589,19,True,right,-0.24963,1.6455,2.0045,0.3589,0.3205,0.7373,0.4168,A
204,0.49927,1.2,1,0.3162,0.44102,0.84043,204,2.51298,-0.162,-0.08321,0.41606,5,2U1D,2.0,True,0.283,19,False,right,0.08321,0.2526,0.8101,0.5575,1.5432,2.2682,0.725,A
205,0.49927,1.2,2,0.41606,0.33284,0.54087,205,2.39648,0.214,0.10817,0.60744,5,2D1U,2.0,True,0.148,18,False,right,-0.24963,1.4736,2.0076,0.534,0.4735,0.8653,0.3918,A
206,0.49927,0.1,2,0.36613,0.29124,0.84875,206,2.59619,0.178,0.09153,0.5908,5,2D1U,1.0,False,0.109,18,False,left,0.08321,1.924,2.4322,0.5082,0.2407,0.9903,0.7496,A
207,0.49927,0.1,2,0.2746,0.44934,0.45766,207,2.09693,-0.162,-0.08321,0.41606,5,2U1D,2.0,False,2.973,19,False,right,-0.24963,1.2732,1.6068,0.3336,0.3146,0.7314,0.4168,A
208,0.49927,1.2,2,0.38277,0.44102,0.73226,208,2.45473,-0.198,-0.09985,0.39941,5,2U1D,1.0,True,0.508,19,False,left,0.08321,1.7948,2.1205,0.3257,0.2701,0.9954,0.7253,A
209,0.49927,1.2,1,0.22467,0.29956,0.61576,209,2.03867,-0.198,-0.09985,0.39941,5,2U1D,2.0,True,0.409,19,False,right,-0.24963,0.1603,0.7021,0.5418,1.3765,1.7686,0.3921,A
210,0.49927,0.1,2,0.23299,0.24131,0.67401,210,2.06364,-0.162,-0.08321,0.41606,5,2U1D,1.0,True,0.342,20,True,left,0.08321,1.616,1.9493,0.3333,0.1078,0.8579,0.75,A
211,0.49927,0.1,2,0.23299,0.29956,0.49095,211,2.13021,0.214,0.10817,0.60744,5,2D1U,2.0,True,1.067,19,True,right,-0.24963,1.2639,1.7882,0.5243,0.2728,0.6883,0.4155,A
212,0.49927,1.2,2,0.36613,0.28292,0.80715,212,2.56291,0.214,0.10817,0.60744,5,2D1U,2.0,True,0.215,19,True,right,0.08321,1.8551,2.3877,0.5327,0.2547,0.9804,0.7257,A
213,0.49927,1.2,1,0.34949,0.41606,0.84875,213,2.70437,0.178,0.09153,0.5908,5,2D1U,1.0,True,0.58,20,True,left,-0.24963,0.2841,1.0169,0.7329,1.9262,2.317,0.3909,A
214,0.49927,0.1,1,0.24131,0.37445,0.63241,214,2.1635,-0.162,-0.08321,0.41606,5,2U1D,2.0,True,0.167,20,True,right,0.08321,0.1537,0.7377,0.584,1.2457,1.9957,0.7499,A
215,0.49927,0.1,1,0.24963,0.25795,0.80715,215,2.4048,0.178,0.09153,0.5908,5,2D1U,2.0,False,2.366,20,True,right,-0.24963,0.1646,0.9235,0.7589,1.773,2.1899,0.4169,A
216,0.49927,1.2,1,0.40773,0.39109,0.54087,216,2.27998,-0.126,-0.06657,0.44102,5,2U1D,2.0,True,1.016,20,False,right,0.08321,0.3437,0.9277,0.5841,1.3609,2.0854,0.7245,A
217,0.49927,1.2,1,0.4327,0.34949,0.5908,217,2.31328,-0.126,-0.06657,0.44102,5,2U1D,2.0,True,0.136,20,False,right,-0.24963,0.369,0.952,0.583,1.6017,1.9939,0.3921,A
218,0.49927,0.1,1,0.33284,0.37445,0.77386,218,2.58786,0.214,0.10817,0.60744,5,2D1U,1.0,True,0.583,21,True,left,0.08321,0.2517,1.027,0.7754,1.6764,2.4272,0.7508,A
219,0.49927,0.1,2,0.22467,0.38277,0.84043,219,2.4048,-0.09,-0.04161,0.45766,5,2U1D,2.0,False,2.328,20,False,right,-0.24963,1.6069,1.982,0.3751,0.2655,0.6822,0.4167,A
220,0.49927,1.2,1,0.24131,0.19971,0.85708,220,2.23839,-0.126,-0.06657,0.44102,5,2U1D,2.0,True,0.543,21,True,right,0.08321,0.1714,0.7545,0.5831,1.5058,2.2299,0.7241,A
221,0.49927,1.2,2,0.37445,0.21635,0.69065,221,2.38816,0.214,0.10817,0.60744,5,2D1U,1.0,False,1.24,21,True,left,-0.24963,1.5837,2.1171,0.5334,0.4337,0.8256,0.3919,A
222,0.49927,0.1,2,0.23299,0.24963,0.44934,222,1.87225,-0.126,-0.06657,0.44102,5,2U1D,1.0,True,0.687,21,True,left,0.08321,1.3878,1.7466,0.3588,0.1053,0.8547,0.7494,A
223,0.49927,0.1,1,0.35781,0.26628,0.77386,223,2.5213,0.25,0.12482,0.62408,5,2D1U,1.0,True,0.109,21,False,left,-0.24963,0.2736,1.0652,0.7917,1.8825,2.2989,0.4164,A
224,0.49927,1.2,1,0.38277,0.35781,0.51591,224,2.37984,0.25,0.12482,0.62408,5,2D1U,1.0,True,1.2,21,False,left,0.08321,0.3143,1.0816,0.7672,1.4895,2.2148,0.7253,A
225,0.49927,1.2,1,0.33284,0.20803,0.89868,225,2.39648,-0.09,-0.04161,0.45766,5,2U1D,2.0,True,0.642,22,True,right,-0.24963,0.2679,0.8675,0.5996,1.8258,2.217,0.3912,A
226,0.49927,0.1,2,0.44934,0.22467,0.81547,226,2.44641,-0.09,-0.04161,0.45766,5,2U1D,2.0,False,1.07,22,True,right,0.08321,1.9723,2.347,0.3747,0.3221,1.0725,0.7505,A
227,0.49927,0.1,2,0.34949,0.35781,0.40773,227,2.22174,0.214,0.10817,0.60744,5,2D1U,1.0,False,1.167,22,True,left,-0.24963,1.2964,1.8211,0.5247,0.3879,0.8049,0.417,A
228,0.49927,1.2,2,0.26628,0.26628,0.66569,228,2.3216,0.25,0.12482,0.62408,5,2D1U,2.0,True,0.213,23,True,right,0.08321,1.6141,2.1633,0.5492,0.1551,0.8799,0.7248,A
229,0.49927,1.2,1,0.39109,0.21635,0.41606,229,1.96379,-0.126,-0.06657,0.44102,5,2U1D,2.0,True,0.35,23,True,right,-0.24963,0.3251,0.9082,0.583,1.3832,1.7747,0.3915,A
230,0.49927,0.1,2,0.38277,0.38277,0.78219,230,2.48802,-0.126,-0.06657,0.44102,5,2U1D,1.0,True,0.227,23,True,left,0.08321,1.8733,2.2315,0.3582,0.2573,1.0066,0.7493,A
231,0.49927,0.1,1,0.24963,0.34949,0.79883,231,2.5213,0.25,0.12482,0.62408,5,2D1U,1.0,True,1.292,23,True,left,-0.24963,0.1691,0.9603,0.7912,1.8019,2.2186,0.4167,A
232,0.49927,1.2,1,0.26628,0.34949,0.46598,232,2.18846,0.214,0.10817,0.60744,5,2D1U,2.0,False,0.375,24,True,right,0.08321,0.1983,0.9484,0.7501,1.3072,2.0319,0.7247,A
233,0.49927,1.2,1,0.25795,0.20803,0.89036,233,2.47969,0.25,0.12482,0.62408,5,2D1U,2.0,False,0.208,25,True,right,-0.24963,0.1934,0.9603,0.7669,1.9103,2.3022,0.3919,A
234,0.49927,0.1,2,0.3162,0.23299,0.50759,234,2.01371,-0.09,-0.04161,0.45766,5,2U1D,2.0,False,2.883,24,True,right,0.08321,1.5294,1.9045,0.3751,0.1881,0.9379,0.7498,A
235,0.49927,0.1,2,0.29124,0.44934,0.5908,235,2.47138,0.286,0.14146,0.64073,5,2D1U,1.0,False,1.329,25,False,left,-0.24963,1.4208,1.9802,0.5594,0.3291,0.746,0.4169,A
236,0.49927,1.2,1,0.30788,0.32452,0.65737,236,2.44641,0.322,0.1581,0.65737,5,2D1U,1.0,True,2.471,25,False,left,0.08321,0.2423,1.0426,0.8003,1.5928,2.3172,0.7244,A
237,0.49927,1.2,1,0.39941,0.21635,0.63241,237,2.40481,0.322,0.1581,0.65737,5,2D1U,1.0,True,0.337,25,False,left,-0.24963,0.3341,1.1343,0.8002,1.8266,2.2176,0.391,A
238,0.49927,0.1,2,0.35781,0.19971,0.66569,238,2.1635,-0.126,-0.06657,0.44102,5,2U1D,1.0,True,0.414,25,True,left,0.08321,1.7323,2.0912,0.3589,0.2322,0.9825,0.7503,A
239,0.49927,0.1,1,0.25795,0.26628,0.4327,239,2.09693,0.286,0.14146,0.64073,5,2D1U,2.0,False,1.192,26,True,right,-0.24963,0.1732,0.9806,0.8074,1.4556,1.8729,0.4173,A
240,0.49927,1.2,2,0.24963,0.44102,0.7073,240,2.33824,-0.126,-0.06657,0.44102,5,2U1D,2.0,False,1.071,25,True,right,0.08321,1.6422,2.0087,0.3665,0.1424,0.8671,0.7247,A
241,0.49927,1.2,2,0.2746,0.38277,0.54919,241,2.3632,0.322,0.1581,0.65737,5,2D1U,2.0,True,0.313,27,True,right,-0.24963,1.3434,1.9263,0.5829,0.3349,0.726,0.3911,A
242,0.49927,0.1,1,0.38277,0.44102,0.84875,242,2.82918,0.322,0.1581,0.65737,5,2D1U,1.0,True,1.192,27,True,left,0.08321,0.2997,1.125,0.8253,1.8494,2.5993,0.7499,A
243,0.49927,0.1,2,0.2746,0.20803,0.89036,243,2.28832,-0.162,-0.08321,0.41606,5,2U1D,1.0,True,0.55,25,False,left,-0.24963,1.7086,2.0426,0.334,0.3175,0.7336,0.4161,A
244,0.49927,1.2,1,0.32452,0.36613,0.7073,244,2.31328,-0.162,-0.08321,0.41606,5,2U1D,2.0,True,0.112,25,False,right,0.08321,0.2572,0.8151,0.5579,1.4155,2.1404,0.7249,A
245,0.49927,1.2,2,0.24131,0.24131,0.57416,245,2.19678,0.286,0.14146,0.64073,5,2D1U,2.0,True,0.204,28,True,right,-0.24963,1.3288,1.8958,0.567,0.2956,0.6876,0.392,A
246,0.49927,0.1,2,0.37445,0.44102,0.53255,246,2.28831,-0.126,-0.06657,0.44102,5,2U1D,1.0,True,1.772,26,True,left,0.08321,1.6138,1.9716,0.3578,0.2463,0.9961,0.7498,A
247,0.49927,0.1,2,0.34117,0.34949,0.61576,247,2.24671,-0.126,-0.06657,0.44102,5,2U1D,1.0,True,2.052,26,True,left,-0.24963,1.5045,1.8629,0.3584,0.3877,0.8047,0.417,A
248,0.49927,1.2,2,0.25795,0.23299,0.82379,248,2.27166,-0.09,-0.04161,0.45766,5,2U1D,2.0,False,0.158,26,False,right,0.08321,1.767,2.1505,0.3835,0.1503,0.8755,0.7252,A
249,0.49927,1.2,1,0.4327,0.4327,0.59912,249,2.40481,-0.126,-0.06657,0.44102,5,2U1D,2.0,True,1.573,27,True,right,-0.24963,0.3646,0.9473,0.5826,1.6057,1.9973,0.3916,A
250,0.49927,0.1,2,0.40773,0.21635,0.61576,250,2.37984,0.286,0.14146,0.64073,5,2D1U,2.0,True,0.842,28,True,right,0.08321,1.7301,2.2892,0.5592,0.2811,1.03,0.7489,A
251,0.49927,0.1,2,0.24131,0.34949,0.50759,251,2.03868,-0.126,-0.06657,0.44102,5,2U1D,1.0,True,0.406,27,True,left,-0.24963,1.2872,1.6455,0.3583,0.2789,0.6956,0.4168,A
252,0.49927,1.2,2,0.33284,0.33284,0.69897,252,2.488,0.25,0.12482,0.62408,5,2D1U,2.0,True,0.112,28,False,right,0.08321,1.7187,2.2694,0.5507,0.2278,0.9527,0.7248,A
253,0.49927,1.2,1,0.29956,0.39941,0.73226,253,2.55458,0.25,0.12482,0.62408,5,2D1U,1.0,True,0.113,28,False,left,-0.24963,0.232,0.9992,0.7672,1.7898,2.1823,0.3925,A
254,0.49927,0.1,1,0.21635,0.29956,0.83211,254,2.45473,0.214,0.10817,0.60744,5,2D1U,2.0,False,2.687,28,False,right,0.08321,0.1299,0.9048,0.7749,1.6133,2.3633,0.75,A
255,0.49927,0.1,2,0.38277,0.35781,0.46598,255,2.16349,-0.09,-0.04161,0.45766,5,2U1D,1.0,True,0.939,28,True,left,-0.24963,1.3871,1.7614,0.3743,0.4206,0.8374,0.4169,A
256,0.49927,1.2,1,0.33284,0.36613,0.55752,256,2.21342,-0.09,-0.04161,0.45766,5,2U1D,2.0,True,0.109,28,True,right,0.08321,0.2674,0.868,0.6006,1.3173,2.0431,0.7258,A
257,0.49927,1.2,1,0.41606,0.38277,0.89036,257,2.66276,-0.054,-0.02496,0.4743,5,2U1D,2.0,True,0.192,28,False,right,-0.24963,0.3535,0.9695,0.616,1.9199,2.3109,0.391,A
258,0.49927,0.1,2,0.2746,0.2746,0.54919,258,2.22174,0.25,0.12482,0.62408,5,2D1U,2.0,True,0.365,29,True,right,0.08321,1.5289,2.0706,0.5417,0.1459,0.8958,0.7499,A
259,0.49927,0.1,1,0.36613,0.30788,0.88204,259,2.52962,-0.054,-0.02496,0.4743,5,2U1D,2.0,True,2.225,28,False,right,-0.24963,0.2823,0.9233,0.641,1.8486,2.2653,0.4167,A
260,0.49927,1.2,1,0.24963,0.28292,0.66569,260,2.32159,0.25,0.12482,0.62408,5,2D1U,2.0,False,1.292,29,True,right,0.08321,0.1798,0.946,0.7661,1.505,2.2302,0.7252,A
261,0.49927,1.2,2,0.2746,0.24963,0.68233,261,2.34656,0.286,0.14146,0.64073,5,2D1U,2.0,True,1.231,29,False,right,-0.24963,1.4745,2.0402,0.5657,0.3323,0.7241,0.3919,A
262,0.49927,0.1,1,0.39109,0.30788,0.42438,262,2.11357,-0.018,-0.00832,0.49095,5,2U1D,1.0,False,0.809,28,False,left,0.08321,0.3066,0.9653,0.6586,1.2657,2.0148,0.7491,A
263,0.49927,0.1,1,0.35781,0.23299,0.56584,263,2.13021,-0.054,-0.02496,0.4743,5,2U1D,2.0,True,0.113,29,True,right,-0.24963,0.2708,0.9123,0.6415,1.5211,1.9372,0.4161,A
264,0.49927,1.2,1,0.39109,0.20803,0.79883,264,2.37152,-0.054,-0.02496,0.4743,5,2U1D,2.0,True,0.113,29,True,right,0.08321,0.3198,0.9369,0.6172,1.6281,2.3546,0.7265,A
265,0.49927,1.2,2,0.3162,0.26628,0.87372,265,2.5962,0.286,0.14146,0.64073,5,2D1U,2.0,True,0.108,29,False,right,-0.24963,1.7112,2.2789,0.5676,0.3788,0.7705,0.3917,A
266,0.49927,0.1,2,0.21635,0.39941,0.71562,266,2.3216,-0.018,-0.00832,0.49095,5,2U1D,1.0,True,0.25,30,True,left,0.08321,1.6431,2.0509,0.4079,0.0929,0.8428,0.7499,A
267,0.49927,0.1,2,0.24963,0.42438,0.54087,267,2.33823,0.25,0.12482,0.62408,5,2D1U,2.0,True,0.11,30,True,right,-0.24963,1.3292,1.8709,0.5418,0.2868,0.7044,0.4176,A
268,0.49927,1.2,1,0.34117,0.2746,0.89868,268,2.50467,-0.018,-0.00832,0.49095,5,2U1D,2.0,True,0.537,30,True,right,0.08321,0.2722,0.9049,0.6327,1.6969,2.4216,0.7247,A
269,0.49927,1.2,1,0.39109,0.29124,0.60744,269,2.41312,0.25,0.12482,0.62408,5,2D1U,1.0,True,0.354,30,True,left,-0.24963,0.3223,1.0899,0.7675,1.7555,2.1465,0.391,A
270,0.49927,0.1,2,0.25795,0.3162,0.77386,270,2.35487,0.018,0.00832,0.50759,5,2U1D,1.0,False,1.821,30,False,left,0.08321,1.7422,2.1662,0.424,0.1344,0.8837,0.7493,A
271,0.49927,0.1,2,0.26628,0.36613,0.56584,271,2.22175,0.054,0.02496,0.52423,5,2U1D,2.0,True,4.399,31,True,right,-0.24963,1.3696,1.8127,0.4431,0.3041,0.7202,0.4161,A
272,0.49927,1.2,2,0.39109,0.3162,0.79051,272,2.5213,0.054,0.02496,0.52423,5,2U1D,1.0,False,0.158,31,True,left,0.08321,1.8683,2.3181,0.4498,0.2848,1.0095,0.7248,A
273,0.49927,1.2,2,0.41606,0.42438,0.41606,273,2.29664,0.09,0.04161,0.54087,5,2U1D,2.0,True,1.087,31,False,right,-0.24963,1.3473,1.8137,0.4664,0.4723,0.8633,0.3911,A
274,0.49927,0.1,2,0.29956,0.32452,0.62408,274,2.35487,0.214,0.10817,0.60744,5,2D1U,2.0,True,0.614,30,False,right,0.08321,1.6344,2.1587,0.5243,0.1763,0.9258,0.7495,A
275,0.49927,0.1,1,0.24963,0.41606,0.52423,275,2.23006,0.09,0.04161,0.54087,5,2U1D,2.0,False,1.351,31,False,right,-0.24963,0.1631,0.8719,0.7088,1.4385,1.8549,0.4164,A
276,0.49927,1.2,1,0.35781,0.24131,0.56584,276,2.23007,0.126,0.06657,0.56584,5,2U1D,2.0,False,0.459,31,False,right,0.08321,0.2892,0.9982,0.709,1.456,2.1814,0.7254,A
277,0.49927,1.2,2,0.4327,0.32452,0.65737,277,2.5213,0.214,0.10817,0.60744,5,2D1U,2.0,True,0.159,30,False,right,-0.24963,1.6078,2.1409,0.5331,0.4901,0.8828,0.3927,A
278,0.49927,0.1,2,0.30788,0.34117,0.44934,278,2.18014,0.162,0.08321,0.58248,5,2U1D,2.0,True,0.2,31,False,right,0.08321,1.4649,1.9645,0.4996,0.182,0.9316,0.7496,A
279,0.49927,0.1,2,0.29124,0.44102,0.87372,279,2.69605,0.178,0.09153,0.5908,5,2D1U,2.0,True,0.855,30,False,right,-0.24963,1.7066,2.2147,0.5081,0.3312,0.7479,0.4168,A
280,0.49927,1.2,2,0.39109,0.44102,0.75722,280,2.67108,0.162,0.08321,0.58248,5,2U1D,1.0,False,0.193,31,False,left,0.08321,1.8343,2.3419,0.5077,0.2843,1.0087,0.7244,A
281,0.49927,1.2,1,0.33284,0.30788,0.68233,281,2.41312,0.178,0.09153,0.5908,5,2D1U,1.0,True,1.486,30,False,left,-0.24963,0.2654,0.9985,0.7331,1.7404,2.1316,0.3913,A
282,0.49927,0.1,2,0.20803,0.29956,0.53255,282,2.13853,0.198,0.09985,0.59912,5,2U1D,1.0,False,1.209,31,False,left,0.08321,1.4463,1.9626,0.5163,0.0791,0.8293,0.7502,A
283,0.49927,0.1,1,0.39941,0.29956,0.80715,283,2.57955,0.142,0.07489,0.57416,5,2D1U,1.0,True,1.191,30,False,left,-0.24963,0.3158,1.0579,0.7422,1.908,2.3238,0.4158,A
284,0.49927,1.2,1,0.40773,0.30788,0.49927,284,2.28831,0.142,0.07489,0.57416,5,2D1U,1.0,True,4.12,30,False,left,0.08321,0.3397,1.057,0.7173,1.448,2.1733,0.7253,A
285,0.49927,1.2,2,0.3162,0.22467,0.7073,285,2.3632,0.234,0.1165,0.61576,5,2U1D,2.0,True,1.075,31,False,right,-0.24963,1.5396,2.0809,0.5413,0.3731,0.7644,0.3913,A
286,0.49927,0.1,1,0.41606,0.37445,0.74058,286,2.57955,0.106,0.04993,0.54919,5,2D1U,2.0,False,1.757,30,False,right,0.08321,0.3311,1.0489,0.7178,1.6656,2.4145,0.7489,A
287,0.49927,0.1,2,0.39941,0.41606,0.84043,287,2.72933,0.142,0.07489,0.57416,5,2D1U,2.0,True,0.725,31,True,right,-0.24963,1.7858,2.2777,0.4919,0.4436,0.8603,0.4167,A
288,0.49927,1.2,1,0.26628,0.2746,0.39941,288,2.05532,0.234,0.1165,0.61576,5,2U1D,1.0,True,1.168,31,False,left,0.08321,0.1988,0.9565,0.7577,1.2494,1.9736,0.7242,A
289,0.49927,1.2,1,0.24963,0.35781,0.87372,289,2.55459,0.142,0.07489,0.57416,5,2D1U,2.0,False,0.108,31,True,right,-0.24963,0.1792,0.8968,0.7176,1.8293,2.2214,0.3921,A
290,0.49927,0.1,1,0.42438,0.21635,0.65737,290,2.39649,0.198,0.09985,0.59912,5,2U1D,2.0,False,0.907,32,True,right,0.08321,0.3425,1.1095,0.767,1.6428,2.3922,0.7494,A
291,0.49927,0.1,2,0.20803,0.38277,0.64905,291,2.35488,0.234,0.1165,0.61576,5,2U1D,2.0,True,0.378,33,True,right,-0.24963,1.4027,1.9364,0.5337,0.2524,0.6689,0.4165,A
292,0.49927,1.2,1,0.36613,0.23299,0.78219,292,2.47138,0.178,0.09153,0.5908,5,2D1U,2.0,False,0.95,31,False,right,0.08321,0.3006,1.0335,0.7329,1.7087,2.4332,0.7245,A
293,0.49927,1.2,1,0.4327,0.34117,0.85708,293,2.73766,0.214,0.10817,0.60744,5,2D1U,1.0,True,0.437,31,False,left,-0.24963,0.3638,1.1136,0.7498,2.0315,2.4221,0.3906,A
294,0.49927,0.1,1,0.36613,0.21635,0.59912,294,2.29663,0.234,0.1165,0.61576,5,2U1D,1.0,True,2.979,33,True,left,0.08321,0.2819,1.0643,0.7825,1.5404,2.2905,0.75,A
295,0.49927,0.1,2,0.38277,0.32452,0.44102,295,2.25502,0.214,0.10817,0.60744,5,2D1U,2.0,True,0.83,31,False,right,-0.24963,1.3674,1.893,0.5257,0.4259,0.8444,0.4185,A
296,0.49927,1.2,2,0.42438,0.22467,0.56584,296,2.30496,0.178,0.09153,0.5908,5,2D1U,1.0,False,0.879,32,True,left,0.08321,1.6736,2.1904,0.5168,0.3152,1.0403,0.7251,A
297,0.49927,1.2,1,0.35781,0.38277,0.60744,297,2.44641,0.198,0.09985,0.59912,5,2U1D,1.0,True,0.17,34,True,left,-0.24963,0.2877,1.0292,0.7416,1.6953,2.0869,0.3916,A
298,0.49927,0.1,2,0.25795,0.33284,0.82379,298,2.51297,0.198,0.09985,0.59912,5,2U1D,1.0,False,2.151,34,True,left,0.08321,1.7919,2.3093,0.5174,0.1337,0.8835,0.7498,A
299,0.49927,0.1,1,0.30788,0.29956,0.74058,299,2.46305,0.234,0.1165,0.61576,5,2U1D,1.0,True,0.383,35,True,left,-0.24963,0.2227,1.0052,0.7824,1.7894,2.2061,0.4167,A
300,0.49927,1.2,1,0.39941,0.22467,0.51591,300,2.2467,0.214,0.10817,0.60744,5,2D1U,1.0,True,0.469,33,True,left,0.08321,0.3295,1.0802,0.7507,1.4887,2.214,0.7253,A
301,0.49927,1.2,1,0.39941,0.23299,0.60744,301,2.35487,0.234,0.1165,0.61576,5,2U1D,1.0,True,3.762,35,True,left,-0.24963,0.3301,1.0885,0.7583,1.7552,2.147,0.3917,A
302,0.49927,0.1,1,0.30788,0.37445,0.58248,302,2.37152,0.214,0.10817,0.60744,5,2D1U,2.0,False,0.598,33,True,right,0.08321,0.2221,0.9975,0.7754,1.4557,2.2055,0.7498,A
303,0.49927,0.1,1,0.25795,0.20803,0.79051,303,2.35488,0.198,0.09985,0.59912,5,2U1D,1.0,True,0.191,36,True,left,-0.24963,0.1729,0.9387,0.7659,1.7731,2.189,0.4159,A
304,0.49927,1.2,1,0.37445,0.28292,0.80715,304,2.58787,0.25,0.12482,0.62408,5,2D1U,2.0,False,1.011,33,False,right,0.08321,0.3056,1.0721,0.7665,1.7722,2.4978,0.7256,A
305,0.49927,1.2,1,0.44934,0.23299,0.89036,305,2.71269,0.286,0.14146,0.64073,5,2D1U,1.0,True,0.267,33,False,left,-0.24963,0.3814,1.1646,0.7832,2.1153,2.5063,0.391,A
306,0.49927,0.1,2,0.41606,0.44102,0.53255,306,2.48802,0.198,0.09985,0.59912,5,2U1D,2.0,True,0.166,36,True,right,0.08321,1.6593,2.1763,0.517,0.2935,1.0427,0.7493,A
307,0.49927,0.1,2,0.35781,0.32452,0.61576,307,2.37984,0.162,0.08321,0.58248,5,2U1D,2.0,True,0.116,36,False,right,-0.24963,1.5154,2.0154,0.5,0.3991,0.8157,0.4165,A
308,0.49927,1.2,2,0.40773,0.34117,0.57416,308,2.40481,0.162,0.08321,0.58248,5,2U1D,2.0,True,1.363,36,False,right,0.08321,1.6684,2.1764,0.508,0.3024,1.0274,0.725,A
309,0.49927,1.2,2,0.39109,0.2746,0.45766,309,2.26335,0.286,0.14146,0.64073,5,2D1U,2.0,True,0.474,33,False,right,-0.24963,1.3652,1.9319,0.5667,0.4485,0.8409,0.3925,A
310,0.49927,0.1,1,0.34117,0.2746,0.50759,310,2.24671,0.25,0.12482,0.62408,5,2D1U,2.0,False,0.861,34,True,right,0.08321,0.2572,1.0501,0.7929,1.4323,2.1829,0.7506,A
311,0.49927,0.1,1,0.40773,0.35781,0.51591,311,2.34656,0.126,0.06657,0.56584,5,2U1D,2.0,False,0.555,36,False,right,-0.24963,0.3229,1.0562,0.7332,1.615,2.031,0.416,A
312,0.49927,1.2,1,0.29124,0.22467,0.40773,312,2.06364,0.286,0.14146,0.64073,5,2D1U,1.0,True,1.008,35,True,left,0.08321,0.2264,1.0088,0.7825,1.3089,2.0337,0.7247,A
313,0.49927,1.2,1,0.37445,0.39941,0.7489,313,2.60451,0.162,0.08321,0.58248,5,2U1D,1.0,True,0.793,37,True,left,-0.24963,0.3095,1.0352,0.7257,1.8422,2.2344,0.3923,A
314,0.49927,0.1,2,0.38277,0.39941,0.65737,314,2.5213,0.162,0.08321,0.58248,5,2U1D,2.0,True,0.197,37,True,right,0.08321,1.7487,2.2486,0.4999,0.2574,1.0065,0.7491,A
315,0.49927,0.1,2,0.24131,0.44934,0.74058,315,2.49634,0.126,0.06657,0.56584,5,2U1D,2.0,True,0.108,38,True,right,-0.24963,1.5233,2.0064,0.4832,0.2814,0.6988,0.4173,A
316,0.49927,1.2,1,0.3162,0.40773,0.67401,316,2.53794,0.286,0.14146,0.64073,5,2D1U,2.0,False,0.217,35,True,right,0.08321,0.2472,1.0303,0.7831,1.5973,2.3217,0.7244,A
317,0.49927,1.2,2,0.2746,0.2746,0.74058,317,2.35489,0.126,0.06657,0.56584,5,2U1D,2.0,True,0.494,38,True,right,-0.24963,1.5348,2.0267,0.4918,0.3342,0.7263,0.3921,A
318,0.49927,0.1,2,0.22467,0.34117,0.56584,318,2.17182,0.09,0.04161,0.54087,5,2U1D,1.0,False,0.621,38,False,left,0.08321,1.4981,1.9575,0.4593,0.0985,0.8481,0.7496,A
319,0.49927,0.1,1,0.33284,0.24963,0.66569,319,2.4048,0.322,0.1581,0.65737,5,2D1U,1.0,True,0.153,35,False,left,-0.24963,0.2473,1.0725,0.8252,1.7812,2.1972,0.4159,A
320,0.49927,1.2,2,0.23299,0.37445,0.49927,320,2.17182,0.126,0.06657,0.56584,5,2U1D,2.0,True,0.111,39,True,right,0.08321,1.4117,1.9045,0.4928,0.1204,0.8457,0.7253,A
321,0.49927,1.2,1,0.24131,0.30788,0.61576,321,2.23006,0.126,0.06657,0.56584,5,2U1D,2.0,False,0.691,39,True,right,-0.24963,0.1717,0.8808,0.709,1.5561,1.9469,0.3908,A
322,0.49927,0.1,2,0.28292,0.39941,0.77386,322,2.61283,0.322,0.1581,0.65737,5,2D1U,2.0,True,1.933,35,False,right,0.08321,1.763,2.3381,0.5751,0.1552,0.905,0.7498,A
323,0.49927,0.1,1,0.32452,0.3162,0.72394,323,2.44641,0.162,0.08321,0.58248,5,2U1D,1.0,True,1.257,39,False,left,-0.24963,0.242,0.9926,0.7507,1.7589,2.1757,0.4168,A
324,0.49927,1.2,2,0.25795,0.40773,0.64073,324,2.38816,0.162,0.08321,0.58248,5,2U1D,2.0,True,1.051,39,False,right,0.08321,1.5789,2.0871,0.5082,0.1459,0.8704,0.7245,A
325,0.49927,1.2,1,0.19971,0.34949,0.45766,325,2.14686,0.286,0.14146,0.64073,5,2D1U,1.0,True,0.365,36,True,left,-0.24963,0.1311,0.915,0.7839,1.4308,1.8228,0.392,A
326,0.49927,0.1,1,0.26628,0.35781,0.60744,326,2.29664,0.126,0.06657,0.56584,5,2U1D,1.0,True,1.916,40,True,left,0.08321,0.1794,0.9127,0.7333,1.3957,2.1461,0.7504,A
327,0.49927,0.1,2,0.36613,0.22467,0.7489,327,2.4797,0.286,0.14146,0.64073,5,2D1U,2.0,True,0.64,36,True,right,-0.24963,1.6584,2.2166,0.5583,0.4084,0.8246,0.4162,A
328,0.49927,1.2,2,0.24963,0.28292,0.52423,328,2.18013,0.25,0.12482,0.62408,5,2D1U,2.0,True,1.282,36,False,right,0.08321,1.4541,2.0042,0.5501,0.1374,0.8625,0.725,A
329,0.49927,1.2,2,0.25795,0.22467,0.79883,329,2.34656,0.126,0.06657,0.56584,5,2U1D,2.0,True,0.114,40,True,right,-0.24963,1.5726,2.0641,0.4915,0.3147,0.7051,0.3904,A
330,0.49927,0.1,2,0.3162,0.41606,0.84875,330,2.70436,0.25,0.12482,0.62408,5,2D1U,2.0,True,1.879,36,False,right,0.08321,1.8736,2.4145,0.5409,0.1907,0.9396,0.749,A
331,0.49927,0.1,2,0.24131,0.3162,0.42438,331,2.02203,0.09,0.04161,0.54087,5,2U1D,2.0,True,0.113,40,False,right,-0.24963,1.2046,1.6624,0.4578,0.2793,0.6955,0.4162,A
332,0.49927,1.2,1,0.3162,0.3162,0.7489,332,2.48801,0.214,0.10817,0.60744,5,2D1U,1.0,True,0.915,36,False,left,0.08321,0.2472,0.9981,0.7509,1.6394,2.3636,0.7242,A
333,0.49927,1.2,1,0.21635,0.39109,0.85708,333,2.57123,0.214,0.10817,0.60744,5,2D1U,1.0,True,0.15,36,False,left,-0.24963,0.1514,0.9014,0.75,1.8174,2.2098,0.3924,A
334,0.49927,0.1,2,0.37445,0.35781,0.65737,334,2.42977,0.09,0.04161,0.54087,5,2U1D,2.0,True,0.876,40,False,right,0.08321,1.7378,2.197,0.4592,0.2466,0.9968,0.7502,A
335,0.49927,0.1,1,0.19971,0.3162,0.42438,335,1.96379,0.054,0.02496,0.52423,5,2U1D,2.0,False,0.209,40,False,right,-0.24963,0.1135,0.8063,0.6928,1.272,1.6895,0.4176,A
336,0.49927,1.2,1,0.2746,0.19971,0.82379,336,2.38817,0.178,0.09153,0.5908,5,2D1U,1.0,True,0.516,36,False,left,0.08321,0.2109,0.9439,0.7331,1.6599,2.3854,0.7255,A
337,0.49927,1.2,1,0.29956,0.38277,0.87372,337,2.64612,0.178,0.09153,0.5908,5,2D1U,1.0,True,0.437,36,False,left,-0.24963,0.2319,0.9652,0.7333,1.8983,2.2902,0.3919,A
338,0.49927,0.1,1,0.39941,0.30788,0.54087,338,2.2883,0.09,0.04161,0.54087,5,2U1D,2.0,False,0.139,41,True,right,0.08321,0.3174,1.0266,0.7092,1.443,2.1928,0.7498,A
339,0.49927,0.1,2,0.41606,0.20803,0.78219,339,2.47139,0.126,0.06657,0.56584,5,2U1D,1.0,False,0.393,41,False,left,-0.24963,1.7436,2.2278,0.4842,0.4603,0.8778,0.4175,A
340,0.49927,1.2,2,0.24963,0.29956,0.69065,340,2.31327,0.142,0.07489,0.57416,5,2D1U,2.0,True,0.351,36,False,right,0.08321,1.6253,2.1254,0.5001,0.1427,0.8673,0.7247,A
341,0.49927,1.2,2,0.44934,0.23299,0.64073,341,2.40481,0.162,0.08321,0.58248,5,2U1D,2.0,True,0.509,41,False,right,-0.24963,1.611,2.1183,0.5072,0.5104,0.9023,0.3919,A
342,0.49927,0.1,2,0.38277,0.29956,0.74058,342,2.49634,0.142,0.07489,0.57416,5,2D1U,2.0,True,0.715,36,False,right,0.08321,1.8358,2.3265,0.4907,0.26,1.0105,0.7505,A
343,0.49927,0.1,1,0.34949,0.41606,0.72394,343,2.57124,0.162,0.08321,0.58248,5,2U1D,2.0,False,1.608,41,False,right,-0.24963,0.2641,1.0136,0.7495,1.7801,2.1973,0.4172,A
344,0.49927,1.2,1,0.26628,0.37445,0.7489,344,2.48802,0.198,0.09985,0.59912,5,2U1D,1.0,True,0.22,41,False,left,0.08321,0.2029,0.9447,0.7419,1.5856,2.3107,0.7251,A
345,0.49927,1.2,2,0.24131,0.33284,0.57416,345,2.19677,0.106,0.04993,0.54919,5,2D1U,1.0,False,0.695,36,False,left,-0.24963,1.3355,1.8116,0.4761,0.3023,0.6944,0.3921,A
346,0.49927,0.1,1,0.23299,0.34949,0.62408,346,2.27999,0.142,0.07489,0.57416,5,2D1U,2.0,False,0.698,37,True,right,0.08321,0.1478,0.8905,0.7427,1.3898,2.14,0.7502,A
347,0.49927,0.1,2,0.4327,0.34949,0.68233,347,2.56291,0.198,0.09985,0.59912,5,2U1D,1.0,False,0.778,41,False,left,-0.24963,1.6539,2.1706,0.5166,0.4715,0.8873,0.4159,A
348,0.49927,1.2,1,0.39941,0.30788,0.69065,348,2.48801,0.178,0.09153,0.5908,5,2D1U,2.0,False,0.441,37,False,right,0.08321,0.3352,1.0693,0.7341,1.6516,2.3772,0.7256,A
349,0.49927,1.2,2,0.33284,0.44102,0.4743,349,2.36319,0.234,0.1165,0.61576,5,2U1D,2.0,True,0.112,41,False,right,-0.24963,1.3215,1.8633,0.5418,0.3884,0.7805,0.3921,A
350,0.49927,0.1,2,0.32452,0.39109,0.54087,350,2.36319,0.214,0.10817,0.60744,5,2D1U,1.0,False,0.39,37,False,left,0.08321,1.5741,2.1002,0.5261,0.1994,0.9498,0.7504,A
351,0.49927,0.1,1,0.39109,0.39941,0.67401,351,2.57954,0.234,0.1165,0.61576,5,2U1D,1.0,True,0.223,41,False,left,-0.24963,0.3042,1.0883,0.7841,1.8041,2.2217,0.4176,A
352,0.49927,1.2,2,0.34949,0.41606,0.67401,352,2.56291,0.25,0.12482,0.62408,5,2D1U,2.0,True,0.535,37,False,right,0.08321,1.7091,2.2597,0.5507,0.2434,0.9682,0.7248,A
353,0.49927,1.2,1,0.4327,0.41606,0.88204,353,2.85415,0.25,0.12482,0.62408,5,2D1U,1.0,True,0.468,37,False,left,-0.24963,0.3623,1.1292,0.7669,2.07,2.4626,0.3926,A
354,0.49927,0.1,1,0.3162,0.26628,0.60744,354,2.28831,0.198,0.09985,0.59912,5,2U1D,2.0,False,2.397,42,True,right,0.08321,0.2314,0.9973,0.766,1.4807,2.2307,0.75,A
355,0.49927,0.1,1,0.22467,0.34949,0.72394,355,2.41313,0.234,0.1165,0.61576,5,2U1D,1.0,True,0.292,43,True,left,-0.24963,0.1443,0.9267,0.7824,1.6933,2.1108,0.4174,A
356,0.49927,1.2,2,0.4327,0.36613,0.79883,356,2.71269,0.234,0.1165,0.61576,5,2U1D,2.0,True,1.117,43,True,right,0.08321,1.9141,2.4557,0.5416,0.3234,1.0481,0.7247,A
357,0.49927,1.2,2,0.40773,0.19971,0.60744,357,2.32159,0.214,0.10817,0.60744,5,2D1U,1.0,False,1.571,38,True,left,-0.24963,1.5337,2.0677,0.534,0.467,0.8591,0.3921,A
358,0.49927,0.1,2,0.28292,0.39109,0.57416,358,2.34656,0.198,0.09985,0.59912,5,2U1D,2.0,True,0.698,44,True,right,0.08321,1.5652,2.0812,0.516,0.1559,0.9066,0.7507,A
359,0.49927,0.1,1,0.34949,0.19971,0.49095,359,2.13854,0.198,0.09985,0.59912,5,2U1D,2.0,False,1.098,44,True,right,-0.24963,0.2686,1.0347,0.7661,1.5688,1.9848,0.416,A
360,0.49927,1.2,2,0.23299,0.3162,0.79051,360,2.46305,0.25,0.12482,0.62408,5,2D1U,1.0,False,0.432,39,True,left,0.08321,1.7101,2.2603,0.5501,0.1283,0.8526,0.7243,A
361,0.49927,1.2,1,0.44102,0.44934,0.53255,361,2.56291,0.286,0.14146,0.64073,5,2D1U,1.0,True,3.45,39,False,left,-0.24963,0.3736,1.1567,0.783,1.7482,2.1396,0.3914,A
362,0.49927,0.1,1,0.32452,0.32452,0.64073,362,2.4048,0.234,0.1165,0.61576,5,2U1D,1.0,True,1.491,45,True,left,0.08321,0.2393,1.0229,0.7836,1.5393,2.2886,0.7494,A
363,0.49927,0.1,1,0.41606,0.36613,0.45766,363,2.35488,0.234,0.1165,0.61576,5,2U1D,2.0,False,5.15,45,True,right,-0.24963,0.33,1.1135,0.7835,1.6133,2.0305,0.4172,A
364,0.49927,1.2,2,0.23299,0.3162,0.74058,364,2.42977,0.286,0.14146,0.64073,5,2D1U,2.0,True,0.491,39,False,right,0.08321,1.6584,2.2249,0.5665,0.1253,0.8498,0.7245,A
365,0.49927,1.2,2,0.25795,0.22467,0.46598,365,2.08028,0.27,0.13314,0.63241,5,2U1D,2.0,True,0.181,45,False,right,-0.24963,1.243,1.8015,0.5585,0.318,0.7098,0.3918,A
366,0.49927,0.1,1,0.28292,0.42438,0.75722,366,2.5962,0.27,0.13314,0.63241,5,2U1D,2.0,False,3.022,45,False,right,0.08321,0.2023,1.0024,0.8,1.6359,2.386,0.7501,A
367,0.49927,0.1,1,0.28292,0.22467,0.45766,367,2.0886,0.25,0.12482,0.62408,5,2D1U,2.0,False,1.335,40,True,right,-0.24963,0.1953,0.9866,0.7912,1.4873,1.9031,0.4158,A
368,0.49927,1.2,2,0.39109,0.19971,0.44934,368,2.18014,0.286,0.14146,0.64073,5,2D1U,2.0,True,0.718,41,True,right,0.08321,1.5208,2.0875,0.5667,0.2797,1.0048,0.7251,A
369,0.49927,1.2,2,0.34117,0.4327,0.80715,369,2.72102,0.286,0.14146,0.64073,5,2D1U,2.0,True,1.084,41,True,right,-0.24963,1.6625,2.2281,0.5656,0.3959,0.7872,0.3913,A
370,0.49927,0.1,2,0.24131,0.24131,0.48262,370,2.11356,0.306,0.14978,0.64905,5,2U1D,2.0,True,1.3,45,False,right,0.08321,1.4309,1.997,0.5661,0.1137,0.8638,0.7501,A
371,0.49927,0.1,1,0.2746,0.29124,0.49927,371,2.18846,0.25,0.12482,0.62408,5,2D1U,1.0,True,0.505,42,True,left,-0.24963,0.1871,0.9791,0.792,1.5207,1.9375,0.4169,A
372,0.49927,1.2,1,0.21635,0.28292,0.79051,372,2.4381,0.306,0.14978,0.64905,5,2U1D,1.0,True,1.812,45,False,left,0.08321,0.1484,0.9394,0.791,1.6231,2.3477,0.7247,A
373,0.49927,1.2,1,0.39109,0.2746,0.82379,373,2.61283,0.25,0.12482,0.62408,5,2D1U,1.0,True,0.529,42,True,left,-0.24963,0.3276,1.0942,0.7665,1.9768,2.3692,0.3923,A
374,0.49927,0.1,2,0.34949,0.37445,0.50759,374,2.33824,0.214,0.10817,0.60744,5,2D1U,2.0,True,0.539,42,False,right,0.08321,1.5621,2.0868,0.5248,0.2207,0.9708,0.75,A
375,0.49927,0.1,2,0.34949,0.39941,0.78219,375,2.66277,0.27,0.13314,0.63241,5,2U1D,2.0,True,0.2,46,True,right,-0.24963,1.6726,2.2226,0.55,0.3888,0.806,0.4172,A
376,0.49927,1.2,1,0.21635,0.42438,0.44934,376,2.22175,0.27,0.13314,0.63241,5,2U1D,1.0,True,0.232,46,True,left,0.08321,0.1491,0.924,0.7749,1.2658,1.9912,0.7255,A
377,0.49927,1.2,1,0.39109,0.38277,0.7073,377,2.59619,0.234,0.1165,0.61576,5,2U1D,1.0,True,0.904,46,False,left,-0.24963,0.3261,1.0839,0.7578,1.8509,2.2428,0.3919,A
378,0.49927,0.1,1,0.4327,0.37445,0.4743,378,2.38816,0.214,0.10817,0.60744,5,2D1U,1.0,True,0.636,42,False,left,0.08321,0.3444,1.1189,0.7745,1.4688,2.219,0.7501,A
379,0.49927,0.1,2,0.29956,0.26628,0.74058,379,2.39649,0.178,0.09153,0.5908,5,2D1U,2.0,True,0.239,42,False,right,-0.24963,1.5829,2.0913,0.5084,0.3415,0.7578,0.4163,A
380,0.49927,1.2,1,0.39109,0.38277,0.44934,380,2.33823,0.234,0.1165,0.61576,5,2U1D,2.0,False,0.832,46,False,right,0.08321,0.3268,1.0857,0.7589,1.4265,2.1521,0.7256,A
381,0.49927,1.2,2,0.4327,0.21635,0.48262,381,2.26335,0.27,0.13314,0.63241,5,2U1D,2.0,True,0.195,47,True,right,-0.24963,1.4308,1.9892,0.5584,0.4887,0.8805,0.3918,A
382,0.49927,0.1,1,0.23299,0.29956,0.62408,382,2.2467,0.178,0.09153,0.5908,5,2D1U,1.0,True,0.293,42,False,left,0.08321,0.1491,0.9074,0.7583,1.4075,2.1578,0.7503,A
383,0.49927,0.1,1,0.2746,0.30788,0.75722,383,2.47138,0.27,0.13314,0.63241,5,2U1D,1.0,True,0.958,47,True,left,-0.24963,0.1865,0.9864,0.7998,1.7864,2.2035,0.4171,A
384,0.49927,1.2,2,0.39109,0.42438,0.88204,384,2.77094,0.142,0.07489,0.57416,5,2D1U,2.0,True,0.112,42,False,right,0.08321,1.9565,2.4563,0.4998,0.2821,1.0063,0.7242,A
385,0.49927,1.2,1,0.23299,0.34117,0.57416,385,2.26335,0.234,0.1165,0.61576,5,2U1D,2.0,False,0.53,48,True,right,-0.24963,0.166,0.9241,0.7582,1.5576,1.9495,0.3919,A
386,0.49927,0.1,2,0.21635,0.44102,0.84875,386,2.57955,0.142,0.07489,0.57416,5,2D1U,2.0,True,0.964,42,False,right,0.08321,1.7715,2.2629,0.4914,0.0879,0.838,0.7501,A
387,0.49927,0.1,1,0.19971,0.23299,0.49095,387,1.97211,0.106,0.04993,0.54919,5,2D1U,2.0,False,0.538,42,False,right,-0.24963,0.1198,0.837,0.7172,1.3693,1.7858,0.4165,A
388,0.49927,1.2,2,0.24131,0.41606,0.8654,388,2.65445,0.27,0.13314,0.63241,5,2U1D,2.0,True,1.461,49,True,right,0.08321,1.7932,2.3522,0.559,0.1352,0.8598,0.7246,A
389,0.49927,1.2,1,0.39109,0.34117,0.80715,389,2.67109,0.27,0.13314,0.63241,5,2U1D,1.0,True,1.564,49,True,left,-0.24963,0.3219,1.0976,0.7758,1.9636,2.3551,0.3915,A
390,0.49927,0.1,2,0.35781,0.4327,0.64073,390,2.54627,0.234,0.1165,0.61576,5,2U1D,2.0,True,0.718,50,True,right,0.08321,1.7098,2.2431,0.5332,0.2348,0.9852,0.7504,A
391,0.49927,0.1,2,0.44102,0.21635,0.4743,391,2.2051,0.142,0.07489,0.57416,5,2D1U,2.0,True,0.138,43,True,right,-0.24963,1.4579,1.9507,0.4928,0.4831,0.9004,0.4173,A
392,0.49927,1.2,2,0.4327,0.25795,0.58248,392,2.38816,0.234,0.1165,0.61576,5,2U1D,1.0,False,0.278,50,True,left,0.08321,1.6951,2.2377,0.5426,0.3208,1.0461,0.7253,A
393,0.49927,1.2,2,0.21635,0.40773,0.74058,393,2.43809,0.142,0.07489,0.57416,5,2D1U,2.0,True,0.133,43,True,right,-0.24963,1.4765,1.976,0.4994,0.2771,0.6689,0.3918,A
394,0.49927,0.1,2,0.26628,0.21635,0.58248,394,2.11357,0.106,0.04993,0.54919,5,2D1U,2.0,True,1.598,44,True,right,0.08321,1.5593,2.0265,0.4672,0.1437,0.8931,0.7494,A
395,0.49927,0.1,2,0.26628,0.36613,0.50759,395,2.18846,0.106,0.04993,0.54919,5,2D1U,1.0,False,0.26,44,True,left,-0.24963,1.3184,1.7846,0.4662,0.3093,0.7265,0.4172,A
396,0.49927,1.2,2,0.2746,0.38277,0.4327,396,2.22175,0.27,0.13314,0.63241,5,2U1D,2.0,True,0.111,51,True,right,0.08321,1.391,1.9497,0.5587,0.1659,0.8911,0.7252,A
397,0.49927,1.2,1,0.29956,0.20803,0.89036,397,2.47138,0.142,0.07489,0.57416,5,2D1U,1.0,True,0.542,45,True,left,-0.24963,0.2307,0.9473,0.7166,1.897,2.2885,0.3915,A
398,0.49927,0.1,1,0.22467,0.36613,0.56584,398,2.28832,0.27,0.13314,0.63241,5,2U1D,1.0,True,0.522,51,True,left,0.08321,0.1397,0.9396,0.7999,1.3813,2.132,0.7507,A
399,0.49927,0.1,1,0.32452,0.22467,0.84875,399,2.47137,0.142,0.07489,0.57416,5,2D1U,2.0,False,0.112,45,True,right,-0.24963,0.2428,0.9848,0.742,1.8769,2.2932,0.4163,A
400,0.49927,1.2,1,0.34949,0.3162,0.82379,400,2.57955,0.178,0.09153,0.5908,5,2D1U,2.0,False,0.483,45,False,right,0.08321,0.2783,1.0117,0.7334,1.7289,2.4533,0.7245,A
401,0.49927,1.2,2,0.29124,0.25795,0.60744,401,2.27166,0.234,0.1165,0.61576,5,2U1D,2.0,True,0.584,52,True,right,-0.24963,1.4152,1.9561,0.5409,0.3486,0.7403,0.3916,A
402,0.49927,0.1,1,0.37445,0.20803,0.84043,402,2.52962,0.214,0.10817,0.60744,5,2D1U,1.0,True,0.608,45,False,left,0.08321,0.2923,1.0674,0.775,1.7836,2.5342,0.7505,A
403,0.49927,0.1,1,0.22467,0.33284,0.64073,403,2.31327,0.234,0.1165,0.61576,5,2U1D,1.0,True,0.816,52,True,left,-0.24963,0.1393,0.9219,0.7826,1.6053,2.0219,0.4166,A
404,0.49927,1.2,1,0.23299,0.37445,0.67401,404,2.37984,0.198,0.09985,0.59912,5,2U1D,2.0,False,0.442,52,False,right,0.08321,0.162,0.9035,0.7416,1.4705,2.1958,0.7253,A
405,0.49927,1.2,2,0.30788,0.41606,0.63241,405,2.47138,0.234,0.1165,0.61576,5,2U1D,2.0,True,0.113,53,True,right,-0.24963,1.4552,1.9969,0.5417,0.3639,0.7551,0.3912,A
406,0.49927,0.1,2,0.3162,0.44102,0.72394,406,2.58787,0.214,0.10817,0.60744,5,2D1U,1.0,False,1.358,45,False,left,0.08321,1.752,2.2765,0.5244,0.1931,0.9439,0.7508,A
407,0.49927,0.1,1,0.2746,0.39941,0.78219,407,2.57123,0.234,0.1165,0.61576,5,2U1D,1.0,True,0.625,53,True,left,-0.24963,0.1945,0.9777,0.7832,1.8024,2.2194,0.417,A
408,0.49927,1.2,1,0.44102,0.22467,0.8654,408,2.65444,0.25,0.12482,0.62408,5,2D1U,2.0,False,0.296,45,False,right,0.08321,0.374,1.1403,0.7663,1.899,2.624,0.725,A
409,0.49927,1.2,2,0.35781,0.32452,0.64905,409,2.47138,0.286,0.14146,0.64073,5,2D1U,2.0,True,0.467,45,False,right,-0.24963,1.5256,2.0913,0.5657,0.4169,0.8087,0.3918,A
410,0.49927,0.1,2,0.4327,0.24963,0.48262,410,2.30495,0.286,0.14146,0.64073,5,2D1U,1.0,False,0.65,45,False,left,0.08321,1.6203,2.1791,0.5587,0.3034,1.0533,0.7499,A
411,0.49927,0.1,1,0.39941,0.32452,0.5908,411,2.41312,0.198,0.09985,0.59912,5,2U1D,1.0,True,1.347,54,True,left,-0.24963,0.3132,1.079,0.7658,1.7125,2.1292,0.4167,A
412,0.49927,1.2,2,0.28292,0.20803,0.77386,412,2.42145,0.322,0.1581,0.65737,5,2D1U,2.0,True,0.249,45,False,right,0.08321,1.7399,2.3238,0.5839,0.1733,0.8988,0.7255,A
413,0.49927,1.2,2,0.24131,0.29124,0.72394,413,2.41313,0.322,0.1581,0.65737,5,2D1U,2.0,True,0.108,45,False,right,-0.24963,1.4798,2.0631,0.5832,0.296,0.6875,0.3915,A
414,0.49927,0.1,1,0.33284,0.36613,0.79883,414,2.59619,0.198,0.09985,0.59912,5,2U1D,1.0,True,0.581,54,True,left,0.08321,0.247,1.0136,0.7665,1.6888,2.4386,0.7498,A
415,0.49927,0.1,1,0.37445,0.39109,0.68233,415,2.58787,0.286,0.14146,0.64073,5,2D1U,1.0,True,0.347,46,True,left,-0.24963,0.2899,1.0985,0.8086,1.8226,2.2402,0.4176,A
416,0.49927,1.2,2,0.2746,0.38277,0.74058,416,2.53795,0.286,0.14146,0.64073,5,2D1U,2.0,True,0.112,46,True,right,0.08321,1.7007,2.2665,0.5658,0.1667,0.8924,0.7257,A
417,0.49927,1.2,1,0.35781,0.26628,0.40773,417,2.11357,0.162,0.08321,0.58248,5,2U1D,1.0,True,1.117,54,False,left,-0.24963,0.2929,1.0184,0.7255,1.4851,1.8769,0.3918,A
418,0.49927,0.1,1,0.30788,0.3162,0.8654,418,2.57123,0.162,0.08321,0.58248,5,2U1D,1.0,True,0.634,54,False,left,0.08321,0.2237,0.9728,0.7491,1.7146,2.4653,0.7507,A
419,0.49927,0.1,2,0.29124,0.30788,0.48262,419,2.20509,0.25,0.12482,0.62408,5,2D1U,2.0,True,0.228,46,False,right,-0.24963,1.3138,1.8561,0.5423,0.3306,0.7474,0.4168,A
420,0.49927,1.2,1,0.32452,0.39941,0.64905,420,2.49633,0.25,0.12482,0.62408,5,2D1U,1.0,True,0.658,46,False,left,0.08321,0.2557,1.0218,0.7661,1.5635,2.2879,0.7244,A
421,0.49927,1.2,1,0.28292,0.19971,0.79051,421,2.33825,0.126,0.06657,0.56584,5,2U1D,2.0,False,0.155,54,False,right,-0.24963,0.2179,0.9262,0.7084,1.7759,2.1675,0.3916,A
422,0.49927,0.1,2,0.36613,0.41606,0.58248,422,2.47138,0.214,0.10817,0.60744,5,2D1U,1.0,False,1.336,46,False,left,0.08321,1.6553,2.1809,0.5257,0.2396,0.9889,0.7493,A
423,0.49927,0.1,1,0.20803,0.3162,0.84875,423,2.49633,0.25,0.12482,0.62408,5,2D1U,1.0,True,0.933,47,True,left,-0.24963,0.1261,0.918,0.7919,1.8093,2.2268,0.4175,A
424,0.49927,1.2,1,0.3162,0.19971,0.65737,424,2.25503,0.162,0.08321,0.58248,5,2U1D,2.0,False,0.224,55,True,right,0.08321,0.2466,0.9709,0.7243,1.5214,2.2456,0.7242,A
425,0.49927,1.2,2,0.23299,0.21635,0.4743,425,2.04699,0.25,0.12482,0.62408,5,2D1U,2.0,True,0.951,47,True,right,-0.24963,1.2221,1.772,0.5499,0.289,0.6804,0.3914,A
426,0.49927,0.1,2,0.41606,0.24131,0.89036,426,2.64612,0.198,0.09985,0.59912,5,2U1D,2.0,True,0.181,55,False,right,0.08321,2.0169,2.534,0.5171,0.293,1.042,0.749,A
427,0.49927,0.1,2,0.25795,0.38277,0.67401,427,2.41312,0.198,0.09985,0.59912,5,2U1D,1.0,False,0.14,55,False,left,-0.24963,1.4776,1.9935,0.5159,0.3026,0.7188,0.4161,A
428,0.49927,1.2,2,0.39109,0.41606,0.45766,428,2.37984,0.234,0.1165,0.61576,5,2U1D,1.0,False,0.15,55,False,left,0.08321,1.5313,2.0724,0.541,0.2817,1.0061,0.7245,A
429,0.49927,1.2,1,0.29956,0.24963,0.4327,429,2.0886,0.214,0.10817,0.60744,5,2D1U,2.0,False,0.116,48,True,right,-0.24963,0.2342,0.9842,0.7499,1.4765,1.8682,0.3917,A
430,0.49927,0.1,1,0.29124,0.29124,0.59912,430,2.31328,0.27,0.13314,0.63241,5,2U1D,1.0,True,0.109,55,False,left,0.08321,0.211,1.011,0.8,1.4857,2.2366,0.7509,A
431,0.49927,0.1,2,0.35781,0.22467,0.69065,431,2.39648,0.25,0.12482,0.62408,5,2D1U,2.0,True,0.11,49,True,right,-0.24963,1.5925,2.1347,0.5422,0.4008,0.8173,0.4165,A
432,0.49927,1.2,1,0.40773,0.44102,0.64905,432,2.62948,0.27,0.13314,0.63241,5,2U1D,2.0,False,1.039,55,False,right,0.08321,0.3431,1.1174,0.7743,1.6603,2.3836,0.7233,A
433,0.49927,1.2,1,0.41606,0.39109,0.40773,433,2.3632,0.306,0.14978,0.64905,5,2U1D,1.0,True,0.112,55,False,left,-0.24963,0.352,1.1441,0.7921,1.6107,2.0021,0.3914,A
434,0.49927,0.1,1,0.2746,0.25795,0.63241,434,2.31328,0.306,0.14978,0.64905,5,2U1D,1.0,True,0.734,55,False,left,0.08321,0.1892,1.0065,0.8173,1.5144,2.2639,0.7495,A
435,0.49927,0.1,1,0.30788,0.26628,0.45766,435,2.1635,0.27,0.13314,0.63241,5,2U1D,1.0,True,0.294,56,True,left,-0.24963,0.2209,1.0203,0.7994,1.5206,1.937,0.4164,A
436,0.49927,1.2,2,0.38277,0.19971,0.79051,436,2.49634,0.25,0.12482,0.62408,5,2D1U,1.0,False,0.496,49,True,left,0.08321,1.8558,2.4055,0.5497,0.2721,0.9973,0.7253,A
437,0.49927,1.2,1,0.23299,0.36613,0.65737,437,2.38817,0.27,0.13314,0.63241,5,2U1D,1.0,True,0.993,56,True,left,-0.24963,0.165,0.9393,0.7742,1.656,2.048,0.392,A
438,0.49927,0.1,1,0.20803,0.20803,0.7073,438,2.23839,0.234,0.1165,0.61576,5,2U1D,1.0,True,0.991,56,False,left,0.08321,0.1274,0.911,0.7836,1.4946,2.254,0.7594,A
439,0.49927,0.1,1,0.29956,0.24131,0.75722,439,2.43809,0.286,0.14146,0.64073,5,2D1U,2.0,False,0.108,49,False,right,-0.24963,0.213,1.0215,0.8085,1.8214,2.238,0.4166,A
440,0.49927,1.2,2,0.39941,0.26628,0.67401,440,2.45473,0.234,0.1165,0.61576,5,2U1D,2.0,True,0.376,56,False,right,0.08321,1.7571,2.2994,0.5422,0.2916,1.0155,0.7239,A
441,0.49927,1.2,2,0.44934,0.34117,0.8654,441,2.81255,0.322,0.1581,0.65737,5,2D1U,2.0,True,0.109,49,False,right,-0.24963,1.8308,2.4149,0.5841,0.5071,0.8977,0.3906,A
442,0.49927,0.1,2,0.21635,0.29124,0.61576,442,2.27999,0.322,0.1581,0.65737,5,2D1U,2.0,True,0.539,49,False,right,0.08321,1.5411,2.1162,0.5751,0.0918,0.8421,0.7502,A
443,0.49927,0.1,2,0.2746,0.26628,0.74058,443,2.37985,0.198,0.09985,0.59912,5,2U1D,1.0,False,0.159,56,False,left,-0.24963,1.5583,2.076,0.5177,0.3168,0.7348,0.418,A
444,0.49927,1.2,1,0.37445,0.28292,0.44102,444,2.21342,0.234,0.1165,0.61576,5,2U1D,2.0,False,1.493,57,True,right,0.08321,0.3096,1.0672,0.7576,1.4011,2.1268,0.7257,A
445,0.49927,1.2,2,0.25795,0.41606,0.48262,445,2.29663,0.286,0.14146,0.64073,5,2D1U,2.0,True,0.345,50,True,right,-0.24963,1.2537,1.8205,0.5668,0.3121,0.7034,0.3913,A
446,0.49927,0.1,2,0.44102,0.23299,0.69897,446,2.50466,0.27,0.13314,0.63241,5,2U1D,2.0,True,1.144,57,False,right,0.08321,1.849,2.3995,0.5505,0.316,1.066,0.75,A
447,0.49927,0.1,1,0.39941,0.40773,0.84043,447,2.78757,0.286,0.14146,0.64073,5,2D1U,1.0,True,0.372,50,True,left,-0.24963,0.3125,1.1206,0.8082,2.0039,2.4205,0.4166,A
448,0.49927,1.2,1,0.35781,0.24963,0.87372,448,2.60451,0.25,0.12482,0.62408,5,2D1U,1.0,True,0.772,50,False,left,0.08321,0.2943,1.0612,0.7669,1.8283,2.5536,0.7253,A
449,0.49927,1.2,2,0.44102,0.24963,0.7489,449,2.57123,0.27,0.13314,0.63241,5,2U1D,1.0,False,0.65,57,False,left,-0.24963,1.7092,2.2677,0.5585,0.5009,0.8923,0.3914,A
450,0.49927,0.1,2,0.40773,0.21635,0.78219,450,2.52962,0.25,0.12482,0.62408,5,2D1U,1.0,False,0.458,50,False,left,0.08321,1.902,2.4435,0.5415,0.2862,1.0354,0.7492,A
451,0.49927,0.1,1,0.22467,0.26628,0.58248,451,2.21343,0.286,0.14146,0.64073,5,2D1U,1.0,True,0.187,51,True,left,-0.24963,0.1374,0.9453,0.8079,1.5703,1.9874,0.4171,A
452,0.49927,1.2,1,0.34117,0.32452,0.64905,452,2.45474,0.286,0.14146,0.64073,5,2D1U,2.0,False,0.274,51,True,right,0.08321,0.2754,1.0588,0.7833,1.6007,2.3248,0.7241,A
453,0.49927,1.2,2,0.26628,0.3162,0.88204,453,2.61284,0.306,0.14978,0.64905,5,2U1D,2.0,True,0.108,57,False,right,-0.24963,1.6696,2.2445,0.5749,0.3287,0.7198,0.3911,A
454,0.49927,0.1,2,0.26628,0.26628,0.7489,454,2.4381,0.322,0.1581,0.65737,5,2D1U,2.0,True,0.221,51,False,right,0.08321,1.7276,2.3032,0.5756,0.1452,0.8946,0.7494,A
455,0.49927,0.1,1,0.32452,0.24131,0.7489,455,2.47137,0.322,0.1581,0.65737,5,2D1U,1.0,True,0.287,51,False,left,-0.24963,0.2388,1.0638,0.825,1.8556,2.273,0.4174,A
456,0.49927,1.2,1,0.38277,0.39109,0.59912,456,2.5213,0.306,0.14978,0.64905,5,2U1D,1.0,True,0.531,57,False,left,0.08321,0.3188,1.112,0.7932,1.6026,2.3274,0.7248,A
457,0.49927,1.2,2,0.25795,0.35781,0.49927,457,2.25503,0.286,0.14146,0.64073,5,2D1U,2.0,True,0.482,52,True,right,-0.24963,1.2705,1.8375,0.5671,0.3118,0.7033,0.3915,A
458,0.49927,0.1,2,0.33284,0.23299,0.44934,458,2.15517,0.286,0.14146,0.64073,5,2D1U,2.0,True,0.178,52,True,right,0.08321,1.4904,2.0489,0.5585,0.207,0.9571,0.7501,A
459,0.49927,0.1,2,0.29124,0.29956,0.39941,459,2.12189,0.27,0.13314,0.63241,5,2U1D,2.0,True,0.2,58,True,right,-0.24963,1.2351,1.7846,0.5495,0.3344,0.7516,0.4172,A
460,0.49927,1.2,2,0.34117,0.29124,0.71562,460,2.47138,0.25,0.12482,0.62408,5,2D1U,2.0,True,0.574,52,False,right,0.08321,1.7415,2.2914,0.5498,0.233,0.9583,0.7253,A
461,0.49927,1.2,2,0.30788,0.20803,0.79051,461,2.42977,0.25,0.12482,0.62408,5,2D1U,2.0,True,1.225,52,False,right,-0.24963,1.6135,2.164,0.5505,0.3645,0.7553,0.3908,A
462,0.49927,0.1,2,0.22467,0.41606,0.72394,462,2.49635,0.27,0.13314,0.63241,5,2U1D,2.0,True,0.12,58,True,right,0.08321,1.6557,2.2057,0.55,0.0971,0.8474,0.7503,A
463,0.49927,0.1,1,0.39109,0.2746,0.61576,463,2.39648,0.234,0.1165,0.61576,5,2U1D,1.0,True,0.106,58,False,left,-0.24963,0.3056,1.0895,0.7838,1.7482,2.1646,0.4164,A
464,0.49927,1.2,1,0.39109,0.21635,0.73226,464,2.45473,0.234,0.1165,0.61576,5,2U1D,1.0,True,0.58,58,False,left,0.08321,0.3261,1.0843,0.7582,1.71,2.435,0.7249,A
465,0.49927,1.2,2,0.36613,0.33284,0.85708,465,2.65444,0.198,0.09985,0.59912,5,2U1D,2.0,True,0.127,58,False,right,-0.24963,1.74,2.2646,0.5247,0.4237,0.8148,0.3911,A
466,0.49927,0.1,1,0.42438,0.32452,0.61576,466,2.47137,0.214,0.10817,0.60744,5,2D1U,1.0,True,0.9,52,False,left,0.08321,0.3375,1.1125,0.775,1.6041,2.354,0.7499,A
467,0.49927,0.1,2,0.20803,0.32452,0.84043,467,2.47137,0.198,0.09985,0.59912,5,2U1D,2.0,True,0.158,58,False,right,-0.24963,1.5914,2.1079,0.5165,0.2498,0.6668,0.417,A
468,0.49927,1.2,1,0.41606,0.38277,0.56584,468,2.44642,0.162,0.08321,0.58248,5,2U1D,1.0,True,1.467,58,False,left,0.08321,0.3518,1.0766,0.7248,1.535,2.2602,0.7252,A
469,0.49927,1.2,2,0.28292,0.39109,0.87372,469,2.65444,0.214,0.10817,0.60744,5,2D1U,2.0,True,0.111,52,False,right,-0.24963,1.6703,2.2031,0.5328,0.3365,0.7286,0.3921,A
470,0.49927,0.1,1,0.34949,0.29956,0.77386,470,2.51298,0.178,0.09153,0.5908,5,2D1U,1.0,True,14.836,52,False,left,0.08321,0.2631,1.0214,0.7582,1.6716,2.4215,0.7499,A
471,0.49927,0.1,1,0.40773,0.39109,0.89868,471,2.77925,0.162,0.08321,0.58248,5,2U1D,1.0,True,0.362,58,False,left,-0.24963,0.3272,1.0772,0.7499,2.0189,2.4353,0.4165,A
472,0.49927,1.2,2,0.33284,0.24131,0.69897,472,2.33823,0.126,0.06657,0.56584,5,2U1D,2.0,True,0.154,58,False,right,0.08321,1.7129,2.2048,0.4919,0.2219,0.9465,0.7246,A
473,0.49927,1.2,2,0.22467,0.44102,0.55752,473,2.28832,0.126,0.06657,0.56584,5,2U1D,2.0,True,0.131,58,False,right,-0.24963,1.2967,1.7885,0.4918,0.28,0.672,0.392,A
474,0.49927,0.1,1,0.32452,0.22467,0.53255,474,2.17181,0.178,0.09153,0.5908,5,2D1U,1.0,True,0.758,52,False,left,0.08321,0.2425,1.0005,0.758,1.4092,2.159,0.7498,A
475,0.49927,0.1,2,0.41606,0.42438,0.49095,475,2.37153,0.09,0.04161,0.54087,5,2U1D,1.0,False,0.222,58,False,left,-0.24963,1.4468,1.9052,0.4584,0.4562,0.872,0.4158,A
476,0.49927,1.2,1,0.36613,0.21635,0.79883,476,2.45474,0.142,0.07489,0.57416,5,2D1U,2.0,False,0.567,52,False,right,0.08321,0.2961,1.013,0.7169,1.7045,2.4292,0.7246,A
477,0.49927,1.2,1,0.40773,0.30788,0.49927,477,2.27999,0.126,0.06657,0.56584,5,2U1D,1.0,True,1.389,59,True,left,-0.24963,0.3428,1.051,0.7083,1.6097,2.0009,0.3911,A
478,0.49927,0.1,2,0.2746,0.23299,0.42438,478,2.02204,0.178,0.09153,0.5908,5,2D1U,1.0,False,1.495,53,True,left,0.08321,1.4064,1.9152,0.5087,0.1486,0.8987,0.7501,A
479,0.49927,0.1,1,0.34949,0.38277,0.69897,479,2.49634,0.126,0.06657,0.56584,5,2U1D,2.0,False,0.134,59,True,right,-0.24963,0.2641,0.997,0.7329,1.7387,2.1556,0.4169,A
480,0.49927,1.2,2,0.40773,0.34117,0.53255,480,2.3632,0.162,0.08321,0.58248,5,2U1D,2.0,True,1.099,59,False,right,0.08321,1.6219,2.1297,0.5079,0.2964,1.0217,0.7253,A
481,0.49927,1.2,2,0.40773,0.29124,0.8654,481,2.67108,0.214,0.10817,0.60744,5,2D1U,2.0,True,0.222,53,False,right,-0.24963,1.7934,2.3266,0.5332,0.4683,0.86,0.3917,A
482,0.49927,0.1,1,0.19971,0.4327,0.61576,482,2.32992,0.162,0.08321,0.58248,5,2U1D,1.0,True,0.499,59,False,left,0.08321,0.1132,0.8632,0.7501,1.3549,2.1052,0.7503,A
483,0.49927,0.1,1,0.44934,0.29124,0.4743,483,2.32159,0.214,0.10817,0.60744,5,2D1U,1.0,True,0.384,53,False,left,-0.24963,0.3637,1.1387,0.775,1.6557,2.0721,0.4164,A
484,0.49927,1.2,1,0.20803,0.34117,0.83211,484,2.44642,0.126,0.06657,0.56584,5,2U1D,2.0,False,0.287,60,True,right,0.08321,0.1382,0.8469,0.7087,1.5718,2.2967,0.7249,A
485,0.49927,1.2,1,0.24963,0.40773,0.52423,485,2.26334,0.162,0.08321,0.58248,5,2U1D,1.0,True,0.281,61,True,left,-0.24963,0.1812,0.9062,0.725,1.4899,1.8814,0.3915,A
486,0.49927,0.1,2,0.22467,0.44102,0.54087,486,2.28831,0.162,0.08321,0.58248,5,2U1D,1.0,False,0.601,61,True,left,0.08321,1.4757,1.9751,0.4994,0.1,0.8499,0.7499,A
487,0.49927,0.1,1,0.40773,0.24963,0.46598,487,2.21341,0.178,0.09153,0.5908,5,2D1U,1.0,True,0.308,54,True,left,-0.24963,0.3235,1.0824,0.7589,1.5904,2.0071,0.4167,A
488,0.49927,1.2,2,0.2746,0.23299,0.80715,488,2.41313,0.198,0.09985,0.59912,5,2U1D,2.0,True,0.909,61,False,right,0.08321,1.7625,2.2874,0.5249,0.1623,0.8889,0.7266,A
489,0.49927,1.2,1,0.19971,0.28292,0.58248,489,2.1635,0.198,0.09985,0.59912,5,2U1D,2.0,False,0.108,61,False,right,-0.24963,0.1316,0.8731,0.7415,1.5149,1.9066,0.3917,A
490,0.49927,0.1,2,0.29956,0.30788,0.77386,490,2.47137,0.178,0.09153,0.5908,5,2D1U,1.0,False,0.559,54,True,left,0.08321,1.7808,2.2895,0.5086,0.1719,0.9221,0.7502,A
491,0.49927,0.1,2,0.35781,0.21635,0.69065,491,2.37984,0.234,0.1165,0.61576,5,2U1D,2.0,True,0.305,61,False,right,-0.24963,1.5865,2.1204,0.5339,0.3951,0.8121,0.417,A
492,0.49927,1.2,1,0.29956,0.39109,0.51591,492,2.31327,0.214,0.10817,0.60744,5,2D1U,2.0,False,0.49,55,True,right,0.08321,0.232,0.9826,0.7506,1.3905,2.1158,0.7253,A
493,0.49927,1.2,1,0.34949,0.25795,0.5908,493,2.31327,0.234,0.1165,0.61576,5,2U1D,1.0,True,0.461,61,False,left,-0.24963,0.2854,1.0435,0.7581,1.6934,2.0851,0.3917,A
494,0.49927,0.1,2,0.2746,0.3162,0.59912,494,2.28831,0.198,0.09985,0.59912,5,2U1D,2.0,True,0.109,62,True,right,0.08321,1.5845,2.101,0.5165,0.1515,0.9012,0.7498,A
495,0.49927,0.1,1,0.24963,0.42438,0.76554,495,2.5629,0.25,0.12482,0.62408,5,2D1U,2.0,False,0.11,55,False,right,-0.24963,0.1627,0.9545,0.7918,1.7633,2.1796,0.4163,A
496,0.49927,1.2,1,0.29124,0.29124,0.58248,496,2.26335,0.198,0.09985,0.59912,5,2U1D,2.0,False,0.503,62,True,right,0.08321,0.2215,0.9627,0.7412,1.438,2.1634,0.7254,A
497,0.49927,1.2,1,0.41606,0.37445,0.45766,497,2.3632,0.234,0.1165,0.61576,5,2U1D,2.0,False,0.583,63,True,right,-0.24963,0.3498,1.1086,0.7588,1.6255,2.0168,0.3913,A
498,0.49927,0.1,1,0.26628,0.19971,0.69897,498,2.29664,0.27,0.13314,0.63241,5,2U1D,2.0,False,0.333,63,False,right,0.08321,0.1813,0.9818,0.8005,1.557,999,997.443,A
499,0.49927,0.1,1,0.32452,0.40773,0.64905,499,2.5213,0.286,0.14146,0.64073,5,2D1U,2.0,False,1.133,55,False,right,-0.24963,0.2421,1.051,0.8089,1.7427,2.1591,0.4164,A
500,0.49927,1.2,1,0.26628,0.34117,0.73226,500,2.49635,0.322,0.1581,0.65737,5,2D1U,2.0,False,0.674,55,False,right,0.08321,0.1971,0.9973,0.8001,1.6219,2.3468,0.725,A
501,0.49927,1.2,1,0.44934,0.4327,0.42438,501,2.45474,0.306,0.14978,0.64905,5,2U1D,1.0,True,0.218,63,False,left,-0.24963,0.3787,1.1703,0.7916,1.6533,2.0452,0.3919,A
502,0.49927,0.1,1,0.28292,0.30788,0.46598,502,2.2051,0.306,0.14978,0.64905,5,2U1D,1.0,True,2.254,63,False,left,0.08321,0.1991,1.0162,0.8171,1.3574,2.1072,0.7498,A
503,0.49927,0.1,1,0.3162,0.19971,0.44934,503,2.09693,0.27,0.13314,0.63241,5,2U1D,1.0,True,0.401,64,True,left,-0.24963,0.2353,1.0353,0.7999,1.527,1.9434,0.4164,A
504,0.49927,1.2,1,0.24131,0.44934,0.42438,504,2.24671,0.27,0.13314,0.63241,5,2U1D,1.0,True,0.241,64,True,left,0.08321,0.1721,0.9472,0.7751,1.2641,1.9891,0.7251,A
505,0.49927,1.2,2,0.29124,0.26628,0.67401,505,2.41313,0.358,0.18306,0.68233,5,2D1U,2.0,True,0.192,55,False,right,-0.24963,1.4859,2.0944,0.6084,0.3526,0.7441,0.3915,A
506,0.49927,0.1,1,0.4327,0.44102,0.40773,506,2.39648,0.234,0.1165,0.61576,5,2U1D,2.0,False,1.483,64,False,right,0.08321,0.3481,1.1316,0.7835,1.4146,2.1649,0.7502,A
507,0.49927,0.1,1,0.36613,0.33284,0.61576,507,2.49633,0.358,0.18306,0.68233,5,2D1U,1.0,True,1.868,55,False,left,-0.24963,0.281,1.1302,0.8492,1.7887,2.205,0.4163,A
508,0.49927,1.2,2,0.40773,0.37445,0.44934,508,2.38816,0.322,0.1581,0.65737,5,2D1U,2.0,True,0.55,56,True,right,0.08321,1.5416,2.1252,0.5836,0.3001,1.0251,0.7251,A
509,0.49927,1.2,2,0.29956,0.20803,0.79883,509,2.46306,0.322,0.1581,0.65737,5,2D1U,2.0,True,0.28,56,True,right,-0.24963,1.6116,2.1952,0.5835,0.3535,0.7452,0.3917,A
510,0.49927,0.1,1,0.41606,0.35781,0.5908,510,2.50467,0.286,0.14146,0.64073,5,2D1U,1.0,True,0.405,56,False,left,0.08321,0.3295,1.1382,0.8087,1.6044,2.3549,0.7505,A
511,0.49927,0.1,2,0.23299,0.29124,0.55752,511,2.21343,0.27,0.13314,0.63241,5,2U1D,2.0,True,0.117,65,True,right,-0.24963,1.3322,1.8817,0.5495,0.2736,0.6908,0.4171,A
512,0.49927,1.2,1,0.30788,0.32452,0.58248,512,2.35488,0.286,0.14146,0.64073,5,2D1U,1.0,True,0.344,56,False,left,0.08321,0.237,1.0204,0.7834,1.4951,2.2201,0.7249,A
513,0.49927,1.2,1,0.25795,0.40773,0.41606,513,2.20509,0.25,0.12482,0.62408,5,2D1U,1.0,True,0.226,56,False,left,-0.24963,0.189,0.9557,0.7666,1.4305,1.8224,0.392,A
514,0.49927,0.1,1,0.20803,0.35781,0.52423,514,2.22175,0.27,0.13314,0.63241,5,2U1D,1.0,True,0.434,65,True,left,0.08321,0.1229,0.9232,0.8003,1.3231,2.0728,0.7496,A
515,0.49927,0.1,1,0.36613,0.33284,0.79051,515,2.61283,0.25,0.12482,0.62408,5,2D1U,1.0,True,0.831,56,False,left,-0.24963,0.2797,1.0717,0.792,1.905,2.3215,0.4164,A
516,0.49927,1.2,1,0.24131,0.37445,0.54087,516,2.27166,0.234,0.1165,0.61576,5,2U1D,2.0,False,0.692,66,True,right,0.08321,0.1726,0.9314,0.7588,1.3644,2.0895,0.7251,A
517,0.49927,1.2,1,0.44934,0.26628,0.80715,517,2.62948,0.214,0.10817,0.60744,5,2D1U,1.0,True,0.65,56,False,left,-0.24963,0.3802,1.1291,0.7489,1.9959,2.3876,0.3916,A
518,0.49927,0.1,1,0.2746,0.23299,0.50759,518,2.14686,0.27,0.13314,0.63241,5,2U1D,2.0,False,0.49,67,True,right,0.08321,0.1928,0.9928,0.8,1.376,2.1262,0.7502,A
519,0.49927,0.1,2,0.30788,0.42438,0.84043,519,2.6794,0.214,0.10817,0.60744,5,2D1U,2.0,True,0.11,56,False,right,-0.24963,1.6868,2.212,0.5252,0.345,0.7625,0.4175,A
520,0.49927,1.2,2,0.24131,0.38277,0.4327,520,2.14685,0.178,0.09153,0.5908,5,2D1U,2.0,True,0.14,56,False,right,0.08321,1.3606,1.8773,0.5167,0.1361,0.8607,0.7245,A
521,0.49927,1.2,2,0.22467,0.44102,0.42438,521,2.23839,0.306,0.14978,0.64905,5,2U1D,2.0,True,0.739,67,False,right,-0.24963,1.1678,1.7423,0.5746,0.2839,0.6763,0.3924,A
522,0.49927,0.1,1,0.40773,0.39941,0.85708,522,2.81254,0.306,0.14978,0.64905,5,2U1D,1.0,True,0.999,67,False,left,0.08321,0.3235,1.1402,0.8167,1.8744,2.6239,0.7496,A
523,0.49927,0.1,1,0.38277,0.2746,0.49095,523,2.23839,0.178,0.09153,0.5908,5,2D1U,2.0,False,0.202,56,False,right,-0.24963,0.302,1.0599,0.7579,1.5927,2.0094,0.4167,A
524,0.49927,1.2,2,0.2746,0.28292,0.73226,524,2.42146,0.27,0.13314,0.63241,5,2U1D,2.0,True,1.075,68,True,right,0.08321,1.69,2.2477,0.5577,0.1649,0.8896,0.7247,A
525,0.49927,1.2,1,0.34117,0.37445,0.42438,525,2.24671,0.214,0.10817,0.60744,5,2D1U,1.0,True,0.299,57,True,left,-0.24963,0.2755,1.0251,0.7496,1.5089,1.9004,0.3916,A
526,0.49927,0.1,1,0.41606,0.37445,0.42438,526,2.3216,0.214,0.10817,0.60744,5,2D1U,2.0,False,0.122,57,True,right,0.08321,0.3284,1.1032,0.7748,1.4035,2.1538,0.7504,A
527,0.49927,0.1,1,0.20803,0.33284,0.40773,527,2.07195,0.25,0.12482,0.62408,5,2D1U,1.0,True,0.542,57,False,left,-0.24963,0.1258,0.9173,0.7916,1.3667,1.7838,0.417,A
528,0.49927,1.2,1,0.41606,0.26628,0.54919,528,2.36321,0.27,0.13314,0.63241,5,2U1D,1.0,True,0.84,68,True,left,0.08321,0.3504,1.1255,0.7751,1.5674,2.2923,0.7249,A
529,0.49927,1.2,1,0.4327,0.36613,0.54919,529,2.46305,0.234,0.1165,0.61576,5,2U1D,1.0,True,0.959,68,False,left,-0.24963,0.3616,1.12,0.7584,1.7285,2.1202,0.3917,A
530,0.49927,0.1,2,0.36613,0.40773,0.49927,530,2.39648,0.25,0.12482,0.62408,5,2D1U,1.0,False,0.801,57,False,left,0.08321,1.5746,2.1161,0.5415,0.2407,0.9912,0.7505,A
531,0.49927,0.1,2,0.39941,0.22467,0.85708,531,2.59619,0.234,0.1165,0.61576,5,2U1D,2.0,True,0.533,68,False,right,-0.24963,1.8023,2.3364,0.5341,0.4439,0.8608,0.4169,A
532,0.49927,1.2,2,0.28292,0.28292,0.80715,532,2.51299,0.286,0.14146,0.64073,5,2D1U,2.0,True,1.049,57,False,right,0.08321,1.7746,2.3416,0.567,0.1747,0.9001,0.7254,A
533,0.49927,1.2,2,0.42438,0.4327,0.79051,533,2.78759,0.286,0.14146,0.64073,5,2D1U,2.0,True,0.182,57,False,right,-0.24963,1.7283,2.2947,0.5664,0.4785,0.8698,0.3913,A
534,0.49927,0.1,1,0.4327,0.33284,0.79883,534,2.66276,0.198,0.09985,0.59912,5,2U1D,1.0,True,1.251,68,False,left,0.08321,0.3466,1.1134,0.7669,1.7881,2.5378,0.7497,A
535,0.49927,0.1,2,0.26628,0.37445,0.8654,535,2.62948,0.25,0.12482,0.62408,5,2D1U,1.0,False,0.501,58,True,left,-0.24963,1.6724,2.2145,0.5421,0.3065,0.7225,0.416,A
536,0.49927,1.2,2,0.42438,0.2746,0.60744,536,2.40481,0.198,0.09985,0.59912,5,2U1D,1.0,False,0.559,68,False,left,0.08321,1.7117,2.237,0.5253,0.3122,1.0373,0.7251,A
537,0.49927,1.2,1,0.22467,0.40773,0.69065,537,2.43808,0.234,0.1165,0.61576,5,2U1D,1.0,True,1.821,69,True,left,-0.24963,0.1531,0.9124,0.7593,1.662,2.0537,0.3916,A
538,0.49927,0.1,1,0.44102,0.25795,0.4743,538,2.31327,0.286,0.14146,0.64073,5,2D1U,1.0,True,0.383,59,True,left,0.08321,0.3551,1.1631,0.808,1.5135,2.2632,0.7496,A
539,0.49927,0.1,2,0.28292,0.24131,0.42438,539,2.08861,0.286,0.14146,0.64073,5,2D1U,2.0,True,0.652,59,True,right,-0.24963,1.2463,1.8047,0.5584,0.3213,0.7382,0.4169,A
540,0.49927,1.2,2,0.44934,0.41606,0.49927,540,2.4797,0.234,0.1165,0.61576,5,2U1D,1.0,False,0.322,69,True,left,0.08321,1.6339,2.1759,0.5419,0.343,1.0669,0.7239,A
541,0.49927,1.2,2,0.32452,0.36613,0.66569,541,2.48802,0.27,0.13314,0.63241,5,2U1D,2.0,True,0.113,69,False,right,-0.24963,1.5063,2.0643,0.5579,0.3814,0.7726,0.3913,A
542,0.49927,0.1,2,0.22467,0.24963,0.82379,542,2.42144,0.25,0.12482,0.62408,5,2D1U,1.0,False,0.239,60,True,left,0.08321,1.7548,2.2967,0.542,0.0972,0.8469,0.7497,A
543,0.49927,0.1,1,0.33284,0.41606,0.44934,543,2.33824,0.286,0.14146,0.64073,5,2D1U,1.0,True,0.606,61,True,left,-0.24963,0.2478,1.0562,0.8084,1.5474,1.9649,0.4175,A
544,0.49927,1.2,1,0.32452,0.38277,0.58248,544,2.42145,0.27,0.13314,0.63241,5,2U1D,1.0,True,0.267,69,False,left,0.08321,0.2528,1.0281,0.7753,1.5028,2.2288,0.726,A
545,0.49927,1.2,2,0.38277,0.34117,0.84875,545,2.68772,0.234,0.1165,0.61576,5,2U1D,2.0,True,1.125,70,True,right,-0.24963,1.7468,2.2883,0.5415,0.4391,0.8303,0.3913,A
546,0.49927,0.1,2,0.34117,0.42438,0.54919,546,2.45474,0.286,0.14146,0.64073,5,2D1U,2.0,True,1.16,61,True,right,0.08321,1.5975,2.1554,0.5579,0.2137,0.9638,0.7501,A
547,0.49927,0.1,1,0.40773,0.34117,0.55752,547,2.42977,0.25,0.12482,0.62408,5,2D1U,2.0,False,0.684,62,True,right,-0.24963,0.3213,1.1127,0.7914,1.7131,2.1295,0.4164,A
548,0.49927,1.2,1,0.38277,0.24963,0.84043,548,2.61283,0.286,0.14146,0.64073,5,2D1U,2.0,False,1.037,63,True,right,0.08321,0.3176,1.1016,0.784,1.8346,2.5596,0.725,A
549,0.49927,1.2,1,0.39941,0.34949,0.76554,549,2.62947,0.234,0.1165,0.61576,5,2U1D,1.0,True,0.325,70,True,left,-0.24963,0.3351,1.0936,0.7585,1.9188,2.3101,0.3914,A
550,0.49927,0.1,1,0.39109,0.44102,0.7073,550,2.6378,0.198,0.09985,0.59912,5,2U1D,1.0,True,1.251,70,False,left,0.08321,0.3049,1.072,0.7671,1.6558,2.4058,0.75,A
551,0.49927,0.1,2,0.35781,0.32452,0.61576,551,2.39648,0.198,0.09985,0.59912,5,2U1D,2.0,True,0.108,70,False,right,-0.24963,1.519,2.0358,0.5169,0.4027,0.8194,0.4167,A
552,0.49927,1.2,1,0.28292,0.40773,0.71562,552,2.56291,0.322,0.1581,0.65737,5,2D1U,1.0,True,1.059,63,False,left,0.08321,0.2125,1.0129,0.8004,1.6208,2.3461,0.7252,A
553,0.49927,1.2,2,0.33284,0.26628,0.53255,553,2.28831,0.322,0.1581,0.65737,5,2D1U,2.0,True,0.112,63,False,right,-0.24963,1.3806,1.9645,0.5839,0.3888,0.7808,0.392,A
554,0.49927,0.1,2,0.20803,0.22467,0.48262,554,1.99707,0.162,0.08321,0.58248,5,2U1D,2.0,True,0.303,70,False,right,0.08321,1.398,1.8985,0.5005,0.0813,0.8322,0.7508,A
555,0.49927,0.1,2,0.39109,0.35781,0.64905,555,2.4797,0.162,0.08321,0.58248,5,2U1D,1.0,False,1.097,70,False,left,-0.24963,1.5817,2.0818,0.5001,0.4318,0.8485,0.4167,A
556,0.49927,1.2,2,0.2746,0.36613,0.67401,556,2.45474,0.286,0.14146,0.64073,5,2D1U,2.0,True,0.953,64,True,right,0.08321,1.6308,2.1973,0.5665,0.164,0.8892,0.7252,A
557,0.49927,1.2,2,0.44934,0.42438,0.60744,557,2.62116,0.286,0.14146,0.64073,5,2D1U,1.0,False,0.622,64,True,left,-0.24963,1.5768,2.1436,0.5668,0.5102,0.9022,0.392,A
558,0.49927,0.1,1,0.29956,0.37445,0.69897,558,2.52962,0.322,0.1581,0.65737,5,2D1U,2.0,False,0.443,65,True,right,0.08321,0.2118,1.0371,0.8253,1.6114,2.3617,0.7503,A
559,0.49927,0.1,2,0.22467,0.37445,0.4743,559,2.17181,0.198,0.09985,0.59912,5,2U1D,1.0,False,0.112,71,True,left,-0.24963,1.2386,1.7553,0.5166,0.2634,0.6805,0.4172,A
560,0.49927,1.2,1,0.39941,0.24963,0.50759,560,2.33823,0.358,0.18306,0.68233,5,2D1U,2.0,False,0.558,65,False,right,0.08321,0.3347,1.1594,0.8248,1.5585,2.2842,0.7257,A
561,0.49927,1.2,1,0.36613,0.24963,0.82379,561,2.55458,0.234,0.1165,0.61576,5,2U1D,1.0,True,0.304,71,False,left,-0.24963,0.2966,1.0553,0.7587,1.9386,2.3302,0.3916,A
562,0.49927,0.1,2,0.4327,0.34949,0.74058,562,2.72101,0.394,0.19971,0.69897,5,2D1U,2.0,True,0.683,65,False,right,0.08321,1.8813,2.4986,0.6173,0.306,1.0564,0.7504,A
563,0.49927,0.1,2,0.39109,0.37445,0.78219,563,2.74597,0.394,0.19971,0.69897,5,2D1U,2.0,True,0.487,65,False,right,-0.24963,1.7172,2.3342,0.6171,0.4337,0.8506,0.4169,A
564,0.49927,1.2,2,0.29956,0.2746,0.79883,564,2.48802,0.234,0.1165,0.61576,5,2U1D,1.0,False,0.573,71,False,left,0.08321,1.7819,2.3241,0.5422,0.1906,0.9155,0.7249,A
565,0.49927,1.2,1,0.39109,0.33284,0.45766,565,2.36319,0.358,0.18306,0.68233,5,2D1U,1.0,True,1.065,66,True,left,-0.24963,0.3224,1.148,0.8256,1.6643,2.0558,0.3915,A
566,0.49927,0.1,1,0.37445,0.33284,0.7489,566,2.63779,0.358,0.18306,0.68233,5,2D1U,1.0,True,0.255,66,True,left,0.08321,0.2901,1.1404,0.8503,1.7647,2.5154,0.7507,A
567,0.49927,0.1,2,0.2746,0.20803,0.49927,567,2.11358,0.27,0.13314,0.63241,5,2U1D,1.0,False,1.142,71,False,left,-0.24963,1.3127,1.8623,0.5495,0.3121,0.7295,0.4174,A
568,0.49927,1.2,1,0.3162,0.38277,0.64073,568,2.48802,0.306,0.14978,0.64905,5,2U1D,1.0,True,0.695,71,False,left,0.08321,0.2494,1.042,0.7926,1.5745,2.2996,0.7251,A
569,0.49927,1.2,1,0.24963,0.35781,0.41606,569,2.17182,0.306,0.14978,0.64905,5,2U1D,1.0,True,1.339,71,False,left,-0.24963,0.1817,0.9738,0.7921,1.4485,1.8404,0.3919,A
570,0.49927,0.1,2,0.40773,0.41606,0.53255,570,2.48802,0.27,0.13314,0.63241,5,2U1D,1.0,False,0.441,72,True,left,0.08321,1.6442,2.1941,0.5499,0.2777,1.0275,0.7497,A
571,0.49927,0.1,2,0.26628,0.44102,0.40773,571,2.27167,0.322,0.1581,0.65737,5,2D1U,2.0,True,0.156,66,False,right,-0.24963,1.2125,1.7872,0.5747,0.3046,0.7208,0.4162,A
572,0.49927,1.2,1,0.40773,0.2746,0.42438,572,2.25503,0.306,0.14978,0.64905,5,2U1D,1.0,True,0.229,73,True,left,0.08321,0.3396,1.1311,0.7915,1.448,2.1731,0.7252,A
573,0.49927,1.2,1,0.24131,0.41606,0.75722,573,2.57123,0.322,0.1581,0.65737,5,2D1U,1.0,True,0.308,66,False,left,-0.24963,0.1723,0.9722,0.7999,1.7886,2.18,0.3914,A
574,0.49927,0.1,1,0.22467,0.38277,0.49927,574,2.24671,0.286,0.14146,0.64073,5,2D1U,1.0,True,0.859,66,False,left,0.08321,0.1439,0.9516,0.8076,1.327,2.0769,0.7499,A
575,0.49927,0.1,1,0.42438,0.44934,0.42438,575,2.4381,0.286,0.14146,0.64073,5,2D1U,2.0,False,0.15,66,False,right,-0.24963,0.3433,1.1518,0.8085,1.6187,2.0352,0.4165,A
576,0.49927,1.2,2,0.32452,0.24131,0.54087,576,2.25502,0.306,0.14978,0.64905,5,2U1D,2.0,True,0.5,73,True,right,0.08321,1.5445,2.12,0.5755,0.2114,0.9365,0.7252,A
577,0.49927,1.2,2,0.29124,0.38277,0.59912,577,2.42977,0.322,0.1581,0.65737,5,2D1U,2.0,True,0.11,67,True,right,-0.24963,1.4103,1.9938,0.5835,0.3517,0.744,0.3923,A
578,0.49927,0.1,2,0.29956,0.4327,0.73226,578,2.62116,0.322,0.1581,0.65737,5,2D1U,1.0,False,0.192,67,True,left,0.08321,1.7427,2.3171,0.5744,0.1756,0.9257,0.7501,A
579,0.49927,0.1,1,0.34949,0.21635,0.87372,579,2.57124,0.27,0.13314,0.63241,5,2U1D,1.0,True,0.559,74,True,left,-0.24963,0.2679,1.0683,0.8004,1.9847,2.4011,0.4164,A
580,0.49927,1.2,2,0.22467,0.28292,0.8654,580,2.50467,0.27,0.13314,0.63241,5,2U1D,2.0,True,0.887,74,True,right,0.08321,1.7722,2.3316,0.5594,0.1143,0.8388,0.7245,A
581,0.49927,1.2,2,0.36613,0.39109,0.49095,581,2.3632,0.234,0.1165,0.61576,5,2U1D,2.0,True,0.914,74,False,right,-0.24963,1.3755,1.917,0.5415,0.4254,0.8174,0.392,A
582,0.49927,0.1,2,0.32452,0.42438,0.45766,582,2.32159,0.234,0.1165,0.61576,5,2U1D,2.0,True,1.167,74,False,right,0.08321,1.4936,2.0267,0.533,0.2024,0.952,0.7496,A
583,0.49927,0.1,1,0.39941,0.33284,0.5908,583,2.50465,0.358,0.18306,0.68233,5,2D1U,1.0,True,0.497,67,False,left,-0.24963,0.3147,1.165,0.8503,1.7983,2.2148,0.4165,A
584,0.49927,1.2,1,0.4327,0.19971,0.54087,584,2.35488,0.358,0.18306,0.68233,5,2D1U,2.0,False,2.272,67,False,right,0.08321,0.3635,1.1879,0.8244,1.6215,2.3461,0.7246,A
585,0.49927,1.2,2,0.42438,0.40773,0.40773,585,2.33823,0.198,0.09985,0.59912,5,2U1D,2.0,True,0.143,74,False,right,-0.24963,1.3481,1.8736,0.5255,0.4818,0.8733,0.3914,A
586,0.49927,0.1,2,0.20803,0.22467,0.45766,586,1.98875,0.198,0.09985,0.59912,5,2U1D,1.0,False,1.863,74,False,left,0.08321,1.3764,1.8932,0.5168,0.0851,0.8348,0.7497,A
587,0.49927,0.1,1,0.4327,0.34117,0.51591,587,2.48802,0.394,0.19971,0.69897,5,2D1U,1.0,True,0.109,67,False,left,-0.24963,0.3465,1.2131,0.8666,1.7721,2.188,0.416,A
588,0.49927,1.2,2,0.35781,0.20803,0.52423,588,2.2051,0.234,0.1165,0.61576,5,2U1D,2.0,True,0.28,75,True,right,0.08321,1.5628,2.1041,0.5413,0.246,0.9705,0.7245,A
589,0.49927,1.2,1,0.26628,0.29124,0.78219,589,2.45474,0.234,0.1165,0.61576,5,2U1D,2.0,False,0.198,75,True,right,-0.24963,0.2015,0.9597,0.7582,1.8014,2.1928,0.3914,A
590,0.49927,0.1,1,0.32452,0.34117,0.80715,590,2.60452,0.27,0.13314,0.63241,5,2U1D,1.0,True,0.18,75,False,left,0.08321,0.239,1.039,0.8,1.7227,2.4721,0.7494,A
591,0.49927,0.1,1,0.39109,0.30788,0.84875,591,2.74596,0.394,0.19971,0.69897,5,2D1U,2.0,False,0.766,67,False,right,-0.24963,0.3035,1.1701,0.8666,2.0611,2.4781,0.417,A
592,0.49927,1.2,1,0.20803,0.32452,0.41606,592,2.1635,0.43,0.21635,0.71562,5,2D1U,1.0,True,0.595,67,False,left,0.08321,0.1374,0.9959,0.8586,1.304,2.0294,0.7254,A
593,0.49927,1.2,2,0.38277,0.28292,0.50759,593,2.30496,0.27,0.13314,0.63241,5,2U1D,2.0,True,0.676,75,False,right,-0.24963,1.4106,1.9698,0.5592,0.4437,0.8352,0.3915,A
594,0.49927,0.1,1,0.21635,0.35781,0.54919,594,2.33824,0.43,0.21635,0.71562,5,2D1U,1.0,True,0.306,67,False,left,0.08321,0.1288,1.0118,0.883,1.4372,2.1874,0.7502,A
595,0.49927,0.1,1,0.25795,0.40773,0.64073,595,2.42144,0.234,0.1165,0.61576,5,2U1D,1.0,True,0.792,76,True,left,-0.24963,0.1725,0.9555,0.783,1.6386,2.0556,0.417,A
596,0.49927,1.2,2,0.44934,0.34949,0.72394,596,2.6378,0.234,0.1165,0.61576,5,2U1D,1.0,False,2.239,76,True,left,0.08321,1.8555,2.3972,0.5417,0.3391,1.064,0.7249,A
597,0.49927,1.2,1,0.26628,0.38277,0.55752,597,2.40481,0.394,0.19971,0.69897,5,2D1U,2.0,False,2.517,68,True,right,-0.24963,0.1957,1.0379,0.8423,1.6546,2.0459,0.3913,A
598,0.49927,0.1,2,0.33284,0.30788,0.45766,598,2.31327,0.43,0.21635,0.71562,5,2D1U,1.0,False,0.74,69,True,left,0.08321,1.4944,2.1283,0.6338,0.2036,0.9536,0.7499,A
599,0.49927,0.1,1,0.44934,0.24131,0.84043,599,2.76261,0.466,0.23299,0.73226,5,2D1U,1.0,True,0.479,69,False,left,-0.24963,0.364,1.2635,0.8995,2.147,2.5637,0.4166,A
600,0.49927,1.2,2,0.37445,0.23299,0.4743,600,2.31327,0.466,0.23299,0.73226,5,2D1U,2.0,True,0.761,69,False,right,0.08321,1.5317,2.1898,0.6581,0.265,0.9907,0.7257,A
601,0.49927,1.2,1,0.29124,0.41606,0.52423,601,2.44642,0.43,0.21635,0.71562,5,2D1U,1.0,True,1.615,70,True,left,-0.24963,0.2264,1.0848,0.8584,1.6676,2.0597,0.3921,A
602,0.49927,0.1,1,0.29956,0.24963,0.54919,602,2.31327,0.43,0.21635,0.71562,5,2D1U,1.0,True,1.162,70,True,left,0.08321,0.2114,1.0947,0.8833,1.5195,2.2695,0.7499,A
603,0.49927,0.1,2,0.33284,0.42438,0.79051,603,2.74597,0.394,0.19971,0.69897,5,2D1U,2.0,True,0.112,70,False,right,-0.24963,1.6674,2.2834,0.616,0.3752,0.7915,0.4163,A
604,0.49927,1.2,2,0.23299,0.44102,0.54087,604,2.41312,0.394,0.19971,0.69897,5,2D1U,2.0,True,0.189,70,False,right,0.08321,1.4598,2.0844,0.6246,0.1265,0.8512,0.7247,A
605,0.49927,1.2,1,0.38277,0.35781,0.41606,605,2.33824,0.358,0.18306,0.68233,5,2D1U,1.0,True,0.311,70,False,left,-0.24963,0.3169,1.1419,0.8249,1.6165,2.0086,0.3922,A
606,0.49927,0.1,1,0.33284,0.34949,0.61576,606,2.47969,0.358,0.18306,0.68233,5,2D1U,1.0,True,0.334,70,False,left,0.08321,0.2494,1.0999,0.8505,1.5913,2.3412,0.7499,A
607,0.49927,0.1,1,0.40773,0.26628,0.64905,607,2.4797,0.322,0.1581,0.65737,5,2D1U,1.0,True,0.292,70,False,left,-0.24963,0.3268,1.1525,0.8257,1.844,2.2602,0.4162,A
608,0.49927,1.2,2,0.24131,0.22467,0.61576,608,2.23838,0.322,0.1581,0.65737,5,2D1U,2.0,True,0.196,70,False,right,0.08321,1.5439,2.1267,0.5828,0.1351,0.8606,0.7254,A
