,standardDur,audNoise,order,preDur,postDur,isiDur,trial_num,totalDur,delta_dur_percents,deltaDurS,testDurS,intensities,current_stair,responses,is_correct,response_rts,stair_num_reversal,stair_is_reversal,response_keys,conflictDur,recordedOnsetVisualTest,recordedOffsetVisualTest,recordedDurVisualTest,recordedOnsetVisualStandard,recordedOffsetVisualStandard,recordedDurVisualStandard,modalityCue
0,0.50116,1.2,1,0.28399,0.41763,0.68492,0,2.73967,0.7,0.35081,0.85197,5,2D1U,1,TRUE,1.778,0,FALSE,left,0.25058,0.2154,1.2072,0.9918,1.6992,2.5912,0.892,A
1,0.50116,1.2,1,0.25893,0.28399,0.89373,1,2.08816,-0.7,-0.35081,0.15035,5,2U1D,2,TRUE,1.46,0,FALSE,right,0,0.1934,0.4852,0.2918,1.3101,1.9516,0.6415,A
2,0.50116,1.2,2,0.3174,0.23387,0.88538,2,2.08816,-0.7,-0.35081,0.15035,5,2U1D,2,FALSE,3.545,0,FALSE,right,-0.16705,1.7589,1.8333,0.0744,0.3332,0.8122,0.479,A
3,0.50116,0.1,1,0.35916,0.20882,0.56798,3,2.48909,0.7,0.35081,0.85197,5,2D1U,1,TRUE,1.263,0,FALSE,left,0.25058,0.2734,1.2902,1.0168,1.6485,999,997.3515,A
4,0.50116,0.1,2,0.34246,0.23387,0.86868,4,2.84826,0.8,0.40093,0.90209,5,lapse_rate,2,TRUE,0.478,0,FALSE,right,0,1.8735,2.6898,0.8162,0.2569,0.924,0.6671,A
5,0.50116,0.1,1,0.22552,0.29234,0.7935,5,2.71461,0.8,0.40093,0.90209,5,lapse_rate,2,FALSE,62.19,0,FALSE,right,-0.16705,0.1417,1.2084,1.0667,1.9997,2.499,0.4993,A
6,0.50116,0.1,1,0.24223,0.34246,0.40928,6,2.27193,0.55,0.27564,0.7768,5,2D1U,1,TRUE,0.113,0,FALSE,left,0.25058,0.1579,1.0995,0.9416,1.2998,2.2162,0.9164,A
7,0.50116,0.1,1,0.20882,0.38422,0.72668,7,1.89605,-0.85,-0.42599,0.07517,5,2U1D,2,TRUE,0.582,0,FALSE,right,0,0.1273,0.3689,0.2416,1.0102,1.6773,0.667,A
8,0.50116,1.2,1,0.25058,0.40928,0.65151,8,2.58933,0.55,0.27564,0.7768,5,2D1U,2,FALSE,1.389,0,FALSE,right,-0.16705,0.1793,1.0959,0.9166,1.7625,2.2377,0.4752,A
9,0.50116,1.2,1,0.35916,0.27564,0.55963,9,1.77076,-0.85,-0.42599,0.07517,5,2U1D,2,TRUE,1.168,0,FALSE,right,0.25058,0.288,0.5052,0.2173,0.8716,1.763,0.8914,A
10,0.50116,0.1,2,0.35081,0.30905,0.40928,10,2.47239,0.8,0.40093,0.90209,5,lapse_rate,2,TRUE,0.849,0,FALSE,right,0,1.4237,2.2396,0.816,0.2647,0.932,0.6672,A
11,0.50116,1.2,2,0.28399,0.33411,0.53457,11,2.55592,0.8,0.40093,0.90209,5,lapse_rate,2,TRUE,0.123,0,FALSE,right,-0.16705,1.3786,2.2036,0.825,0.3034,0.7772,0.4738,A
12,0.50116,1.2,1,0.28399,0.44269,0.41763,12,2.46403,0.64,0.3174,0.81856,5,2D1U,1,TRUE,0.112,1,TRUE,left,0.25058,0.2124,1.1706,0.9582,1.3957,2.2875,0.8918,A
13,0.50116,0.1,2,0.42599,0.44269,0.65151,13,2.13829,-0.76,-0.37587,0.11694,5,2U1D,1,TRUE,1.082,1,TRUE,left,0,1.7381,1.772,0.0338,0.3386,1.005,0.6664,A
14,0.50116,0.1,2,0.21717,0.40928,0.86032,14,2.10487,-0.76,-0.37587,0.11694,5,2U1D,1,TRUE,0.249,1,TRUE,left,-0.16705,1.6605,1.694,0.0335,0.2195,0.7191,0.4995,A
15,0.50116,0.1,2,0.27564,0.29234,0.70998,15,2.59768,0.64,0.3174,0.81856,5,2D1U,2,TRUE,0.284,1,TRUE,right,0.25058,1.7726,2.5064,0.7338,0.0644,0.9811,0.9168,A
16,0.50116,0.1,2,0.22552,0.24223,0.50951,16,1.57865,-0.8,-0.40093,0.10023,5,lapse_rate,1,TRUE,0.402,0,FALSE,left,0,1.3965,1.4131,0.0166,0.1381,0.8055,0.6674,A
17,0.50116,1.2,1,0.36752,0.34246,0.76844,17,2.77308,0.586,0.29234,0.7935,5,2D1U,1,TRUE,0.129,2,TRUE,left,-0.16705,0.3024,1.2364,0.934,2.0194,2.4945,0.4751,A
18,0.50116,0.1,1,0.22552,0.29234,0.70998,18,2.63109,0.8,0.40093,0.90209,5,lapse_rate,2,FALSE,1.089,0,FALSE,right,0.25058,0.1437,1.2104,1.0667,1.7106,2.627,0.9164,A
19,0.50116,1.2,1,0.42599,0.22552,0.50951,19,1.82923,-0.67,-0.33411,0.16705,5,2U1D,2,TRUE,0.639,1,FALSE,right,0,0.355,0.6638,0.3088,1.105,1.7468,0.6418,A
20,0.50116,1.2,2,0.44269,0.27564,0.70998,20,2.0297,-0.8,-0.40093,0.10023,5,lapse_rate,1,TRUE,0.661,0,FALSE,left,-0.16705,1.7082,1.7334,0.0252,0.4576,0.9328,0.4752,A
21,0.50116,1.2,2,0.20882,0.44269,0.65986,21,1.97958,-0.67,-0.33411,0.16705,5,2U1D,1,TRUE,1.291,1,FALSE,left,0.25058,1.6353,1.7266,0.0912,0.0187,0.911,0.8922,A
22,0.50116,0.1,1,0.28399,0.23387,0.55963,22,2.37215,0.586,0.29234,0.7935,5,2D1U,2,FALSE,0.52,2,TRUE,right,0,0.2019,1.1602,0.9583,1.6359,2.3017,0.6658,A
23,0.50116,0.1,1,0.34246,0.39258,0.66821,23,2.72297,0.64,0.3174,0.81856,5,2D1U,1,TRUE,0.878,3,TRUE,left,-0.16705,0.2579,1.2413,0.9833,1.9082,2.4084,0.5002,A
24,0.50116,0.1,2,0.3174,0.22552,0.83527,24,2.78144,0.8,0.40093,0.90209,5,lapse_rate,2,TRUE,0.25,0,FALSE,right,0.25058,1.9396,2.7565,0.8169,0.1064,1.0233,0.9169,A
25,0.50116,0.1,1,0.3174,0.28399,0.57633,25,1.8877,-0.58,-0.29234,0.20882,5,2U1D,2,TRUE,0.311,1,FALSE,right,0,0.2298,0.6058,0.3761,1.0969,1.7645,0.6676,A
26,0.50116,0.1,1,0.35081,0.36752,0.88538,26,2.2051,-0.8,-0.40093,0.10023,5,lapse_rate,2,TRUE,0.467,0,FALSE,right,-0.16705,0.2623,0.5286,0.2663,1.4123,1.9122,0.5,A
27,0.50116,1.2,1,0.40928,0.25893,0.88538,27,2.87331,0.64,0.3174,0.81856,5,2D1U,2,FALSE,0.466,3,TRUE,right,0.25058,0.3419,1.2998,0.9579,1.9903,2.8824,0.8921,A
28,0.50116,1.2,1,0.28399,0.42599,0.70162,28,2.12158,-0.58,-0.29234,0.20882,5,2U1D,2,TRUE,0.461,1,FALSE,right,0,0.2144,0.5652,0.3508,1.1988,1.8404,0.6416,A
29,0.50116,1.2,2,0.25058,0.35081,0.67657,29,2.62274,0.694,0.35081,0.84362,5,2D1U,2,TRUE,0.468,3,FALSE,right,-0.16705,1.4788,2.2461,0.7673,0.2621,0.7374,0.4753,A
30,0.50116,0.1,2,0.29234,0.3174,0.84362,30,2.21345,-0.49,-0.24223,0.25893,5,2U1D,2,FALSE,0.614,1,FALSE,right,0.25058,1.9284,2.1033,0.1749,0.0871,1.0035,0.9164,A
31,0.50116,0.1,2,0.22552,0.41763,0.56798,31,1.81252,-0.8,-0.40093,0.10023,5,lapse_rate,2,FALSE,0.899,0,FALSE,right,0,1.4548,1.4715,0.0167,0.1381,0.8046,0.6665,A
32,0.50116,0.1,2,0.35916,0.39258,0.7935,32,2.27192,-0.544,-0.27564,0.22552,5,2U1D,1,TRUE,0.11,2,TRUE,left,-0.16705,1.7366,1.8782,0.1415,0.3617,0.862,0.5003,A
33,0.50116,0.1,1,0.25893,0.44269,0.40928,33,1.71229,-0.8,-0.40093,0.10023,5,lapse_rate,2,TRUE,1.199,0,FALSE,right,0.25058,0.172,0.4394,0.2674,0.6391,1.5559,0.9168,A
34,0.50116,0.1,1,0.3174,0.28399,0.82691,34,2.77308,0.694,0.35081,0.84362,5,2D1U,2,FALSE,0.833,3,FALSE,right,0,0.2361,1.2447,1.0086,1.9861,2.653,0.667,A
35,0.50116,1.2,1,0.23387,0.35081,0.46775,35,1.77911,-0.544,-0.27564,0.22552,5,2U1D,2,TRUE,0.785,2,TRUE,right,-0.16705,0.1616,0.5287,0.3671,1.0113,1.4864,0.4751,A
36,0.50116,1.2,2,0.37587,0.41763,0.64315,36,2.81484,0.748,0.37587,0.87703,5,2D1U,1,FALSE,1.09,3,FALSE,left,0.25058,1.7813,2.581,0.7997,0.1809,1.0722,0.8913,A
37,0.50116,0.1,1,0.26729,0.37587,0.86868,37,2.91509,0.8,0.40093,0.90209,5,lapse_rate,2,FALSE,0.489,0,FALSE,right,0,0.1854,1.2518,1.0664,2.035,2.7023,0.6674,A
38,0.50116,1.2,2,0.35916,0.20046,0.83527,38,2.15498,-0.49,-0.24223,0.25893,5,2U1D,1,TRUE,0.425,3,TRUE,left,-0.16705,1.746,1.9292,0.1832,0.3702,0.8451,0.4749,A
39,0.50116,1.2,2,0.42599,0.44269,0.70162,39,2.97355,0.8,0.40093,0.90209,5,lapse_rate,2,TRUE,0.12,0,FALSE,right,0.25058,1.8893,2.7134,0.8241,0.2308,1.1222,0.8913,A
40,0.50116,0.1,2,0.20046,0.45104,0.78515,40,2.8399,0.802,0.40093,0.90209,5,2D1U,2,TRUE,1.517,3,FALSE,right,0,1.6521,2.4686,0.8164,0.1193,0.7863,0.667,A
41,0.50116,0.1,2,0.20046,0.35081,0.83527,41,2.14663,-0.49,-0.24223,0.25893,5,2U1D,1,TRUE,0.978,3,TRUE,left,-0.16705,1.6156,1.7895,0.1739,0.1991,0.6978,0.4987,A
42,0.50116,0.1,2,0.40928,0.38422,0.85197,42,3.04872,0.802,0.40093,0.90209,5,2D1U,2,TRUE,1.163,3,FALSE,right,0.25058,2.0533,2.8692,0.8159,0.2037,1.1201,0.9163,A
43,0.50116,1.2,1,0.42599,0.36752,0.60974,43,2.8065,0.8,0.40093,0.90209,5,lapse_rate,1,TRUE,1.144,0,FALSE,left,0,0.3553,1.3979,1.0426,1.9387,2.5814,0.6427,A
44,0.50116,1.2,1,0.3007,0.42599,0.75174,44,2.26358,-0.436,-0.21717,0.28399,5,2U1D,1,FALSE,2.668,3,FALSE,left,-0.16705,0.229,0.6541,0.4251,1.4198,1.8945,0.4748,A
45,0.50116,1.2,1,0.24223,0.30905,0.90209,45,2.83156,0.748,0.37587,0.87703,5,2D1U,1,TRUE,0.743,4,TRUE,left,0.25058,0.176,1.1927,1.0167,1.9007,2.7925,0.8919,A
46,0.50116,1.2,2,0.20882,0.25058,0.76009,46,1.82088,-0.8,-0.40093,0.10023,5,lapse_rate,1,TRUE,1.773,0,FALSE,left,0,1.6075,1.6326,0.0251,0.1407,0.7823,0.6415,A
47,0.50116,1.2,2,0.39258,0.41763,0.75174,47,2.94014,0.748,0.37587,0.87703,5,2D1U,2,TRUE,0.591,4,TRUE,right,-0.16705,1.6953,2.4952,0.7999,0.4032,0.8785,0.4753,A
48,0.50116,0.1,1,0.35081,0.33411,0.60974,48,2.69791,0.8,0.40093,0.90209,5,lapse_rate,2,FALSE,1.552,0,FALSE,right,0.25058,0.2629,1.3294,1.0665,1.7304,2.6465,0.9161,A
49,0.50116,0.1,2,0.29234,0.20882,0.60974,49,1.87099,-0.49,-0.24223,0.25893,5,2U1D,1,TRUE,1.7,4,TRUE,left,0,1.5696,1.7448,0.1752,0.2115,0.8773,0.6658,A
50,0.50116,0.1,1,0.35916,0.41763,0.70162,50,2.82319,0.694,0.35081,0.84362,5,2D1U,1,TRUE,2.564,4,FALSE,left,-0.16705,0.271,1.2793,1.0084,1.9786,2.4792,0.5006,A
51,0.50116,0.1,2,0.21717,0.29234,0.40093,51,1.67053,-0.49,-0.24223,0.25893,5,2U1D,1,TRUE,35.781,4,TRUE,left,0.25058,1.4084,1.5834,0.1751,0.008,0.925,0.917,A
52,0.50116,1.2,2,0.22552,0.3174,0.76844,52,1.91275,-0.8,-0.40093,0.10023,5,lapse_rate,1,TRUE,0.239,0,FALSE,left,0,1.631,1.6558,0.0249,0.1555,0.7982,0.6427,A
53,0.50116,0.1,2,0.32575,0.27564,0.44269,53,2.44733,0.8,0.40093,0.90209,5,lapse_rate,2,TRUE,0.215,0,FALSE,right,-0.16705,1.3536,2.1702,0.8166,0.3286,0.8278,0.4992,A
54,0.50116,1.2,1,0.37587,0.32575,0.6348,54,2.12157,-0.436,-0.21717,0.28399,5,2U1D,2,TRUE,0.25,5,TRUE,right,0.25058,0.3094,0.7339,0.4246,1.1757,2.0678,0.892,A
55,0.50116,1.2,2,0.27564,0.40928,0.60974,55,2.63944,0.694,0.35081,0.84362,5,2D1U,2,TRUE,0.222,4,FALSE,right,0,1.5213,2.2882,0.7669,0.2043,0.8466,0.6423,A
56,0.50116,1.2,1,0.3007,0.3007,0.4594,56,2.38052,0.64,0.3174,0.81856,5,2D1U,1,TRUE,0.414,4,FALSE,left,-0.16705,0.2301,1.1883,0.9582,1.6637,2.1385,0.4749,A
57,0.50116,0.1,2,0.29234,0.32575,0.52622,57,1.92946,-0.436,-0.21717,0.28399,5,2U1D,1,TRUE,2.393,5,TRUE,left,0.25058,1.6077,1.8075,0.1998,0.0819,0.9993,0.9174,A
58,0.50116,0.1,1,0.40928,0.27564,0.50116,58,1.78747,-0.8,-0.40093,0.10023,5,lapse_rate,1,FALSE,1.081,0,FALSE,left,0,0.3249,0.5922,0.2673,1.0092,1.6757,0.6665,A
59,0.50116,0.1,1,0.40928,0.25893,0.7768,59,2.76473,0.64,0.3174,0.81856,5,2D1U,1,TRUE,1.808,4,FALSE,left,-0.16705,0.3271,1.3098,0.9827,2.0852,2.5852,0.5001,A
60,0.50116,0.1,2,0.23387,0.45104,0.54292,60,2.03804,-0.382,-0.19211,0.30905,5,2U1D,2,FALSE,0.334,5,FALSE,right,0.25058,1.5616,1.7874,0.2258,0.0206,0.9373,0.9167,A
61,0.50116,1.2,2,0.27564,0.37587,0.52622,61,2.58098,0.8,0.40093,0.90209,5,lapse_rate,2,TRUE,0.181,0,FALSE,right,0,1.4393,2.2652,0.8259,0.2063,0.8479,0.6415,A
62,0.50116,1.2,1,0.44269,0.34246,0.49281,62,2.57262,0.586,0.29234,0.7935,5,2D1U,1,TRUE,1.375,4,FALSE,left,-0.16705,0.3703,1.3037,0.9334,1.8118,2.2868,0.475,A
63,0.50116,0.1,1,0.33411,0.32575,0.60139,63,2.6645,0.8,0.40093,0.90209,5,lapse_rate,1,TRUE,2.273,0,FALSE,left,0.25058,0.2517,1.3183,1.0666,1.7099,2.6265,0.9165,A
64,0.50116,1.2,2,0.37587,0.40093,0.68492,64,2.24687,-0.436,-0.21717,0.28399,5,2U1D,1,TRUE,0.347,6,TRUE,left,0,1.6997,1.9077,0.208,0.3078,0.9494,0.6415,A
65,0.50116,1.2,2,0.42599,0.3174,0.59304,65,2.12158,-0.436,-0.21717,0.28399,5,2U1D,1,TRUE,0.396,6,TRUE,left,-0.16705,1.5754,1.7838,0.2085,0.4419,0.9173,0.4754,A
66,0.50116,0.1,2,0.40093,0.20882,0.41763,66,1.62877,-0.8,-0.40093,0.10023,5,lapse_rate,1,TRUE,0.616,0,FALSE,left,0.25058,1.6105,1.6273,0.0169,0.1947,1.1112,0.9165,A
67,0.50116,0.1,1,0.27564,0.40928,0.40928,67,2.38886,0.586,0.29234,0.7935,5,2D1U,1,TRUE,1.037,4,FALSE,left,0,0.1927,1.1511,0.9584,1.4769,2.1428,0.6659,A
68,0.50116,0.1,2,0.45104,0.20882,0.46775,68,2.39721,0.532,0.26729,0.76844,5,2D1U,2,TRUE,0.28,4,FALSE,right,-0.16705,1.5015,2.1847,0.6832,0.4514,0.9506,0.4992,A
69,0.50116,0.1,1,0.30905,0.40093,0.6181,69,2.13829,-0.382,-0.19211,0.30905,5,2U1D,1,FALSE,22.242,7,TRUE,left,0.25058,0.2208,0.6962,0.4754,1.1037,2.0205,0.9168,A
70,0.50116,1.2,2,0.35081,0.34246,0.45104,70,2.54756,0.8,0.40093,0.90209,5,lapse_rate,2,TRUE,0.557,0,FALSE,right,0,1.4407,2.2652,0.8245,0.2816,0.9238,0.6422,A
71,0.50116,1.2,1,0.3174,0.20882,0.68492,71,1.99629,-0.436,-0.21717,0.28399,5,2U1D,1,FALSE,0.473,8,TRUE,left,-0.16705,0.2525,0.6778,0.4253,1.3775,1.8544,0.4769,A
72,0.50116,1.2,2,0.22552,0.35081,0.87703,72,2.72296,0.532,0.26729,0.76844,5,2D1U,2,TRUE,1.821,4,FALSE,right,0.25058,1.8675,2.559,0.6915,0.0339,0.9259,0.892,A
73,0.50116,0.1,1,0.30905,0.33411,0.59304,73,1.83759,-0.8,-0.40093,0.10023,5,lapse_rate,2,TRUE,0.178,0,FALSE,right,0,0.2243,0.491,0.2668,0.9986,1.6656,0.667,A
74,0.50116,0.1,1,0.20046,0.28399,0.83527,74,2.72297,0.8,0.40093,0.90209,5,lapse_rate,1,TRUE,0.295,0,FALSE,left,-0.16705,0.1132,1.1797,1.0665,2.0137,2.5137,0.5,A
75,0.50116,1.2,1,0.32575,0.3007,0.56798,75,2.43062,0.478,0.24223,0.73503,5,2D1U,2,FALSE,0.948,4,FALSE,right,0.25058,0.2571,1.1316,0.8745,1.5071,2.3987,0.8916,A
76,0.50116,0.1,1,0.42599,0.40093,0.4761,76,2.06311,-0.49,-0.24223,0.25893,5,2U1D,2,TRUE,1.329,8,FALSE,right,0,0.3445,0.7697,0.4252,1.1606,1.8285,0.668,A
77,0.50116,1.2,2,0.21717,0.26729,0.86868,77,1.95453,-0.8,-0.40093,0.10023,5,lapse_rate,2,FALSE,0.608,0,FALSE,right,-0.16705,1.6428,1.6677,0.0249,0.2356,0.7095,0.4739,A
78,0.50116,0.1,1,0.45104,0.3174,0.42599,78,1.95452,-0.49,-0.24223,0.25893,5,2U1D,2,TRUE,0.546,8,FALSE,right,0.25058,0.3648,0.7889,0.4242,1.0056,1.9225,0.9169,A
79,0.50116,0.1,2,0.40928,0.35916,0.50951,79,2.54755,0.532,0.26729,0.76844,5,2D1U,2,TRUE,0.505,5,TRUE,right,0,1.5817,2.2643,0.6826,0.3226,0.9902,0.6676,A
80,0.50116,1.2,2,0.41763,0.22552,0.66821,80,2.09651,-0.436,-0.21717,0.28399,5,2U1D,2,FALSE,1.968,9,TRUE,right,-0.16705,1.6377,1.8461,0.2085,0.4299,0.9043,0.4744,A
81,0.50116,1.2,1,0.22552,0.39258,0.48445,81,1.70394,-0.8,-0.40093,0.10023,5,lapse_rate,2,TRUE,0.455,0,FALSE,right,0.25058,0.1555,0.3969,0.2414,0.6882,1.5805,0.8923,A
82,0.50116,1.2,1,0.36752,0.22552,0.81856,82,2.6812,0.532,0.26729,0.76844,5,2D1U,2,FALSE,0.601,5,TRUE,right,0,0.2975,1.2058,0.9083,1.9553,2.5967,0.6414,A
83,0.50116,1.2,2,0.38422,0.43434,0.83527,83,2.41392,-0.49,-0.24223,0.25893,5,2U1D,1,TRUE,0.361,10,TRUE,left,-0.16705,1.7747,1.9586,0.1839,0.3997,0.8748,0.4751,A
84,0.50116,0.1,1,0.40093,0.40093,0.80186,84,2.89838,0.586,0.29234,0.7935,5,2D1U,2,FALSE,2.684,5,FALSE,right,0.25058,0.3188,1.277,0.9583,1.8693,2.7859,0.9165,A
85,0.50116,0.1,1,0.26729,0.35916,0.49281,85,2.52251,0.8,0.40093,0.90209,5,lapse_rate,1,TRUE,4.04,0,FALSE,left,0,0.1789,1.2466,1.0677,1.6553,2.3212,0.6659,A
86,0.50116,0.1,1,0.26729,0.21717,0.7935,86,2.59768,0.64,0.3174,0.81856,5,2D1U,1,TRUE,1.666,5,FALSE,left,-0.16705,0.185,1.1681,0.9831,1.9596,2.4599,0.5003,A
87,0.50116,1.2,1,0.3174,0.40093,0.41763,87,2.53921,0.8,0.40093,0.90209,5,lapse_rate,2,FALSE,0.551,0,FALSE,right,0.25058,0.249,1.2905,1.0414,1.515,2.4066,0.8916,A
88,0.50116,0.1,1,0.32575,0.35916,0.68492,88,2.12992,-0.49,-0.24223,0.25893,5,2U1D,2,TRUE,0.358,10,TRUE,right,0,0.2405,0.666,0.4255,1.2654,1.9327,0.6673,A
89,0.50116,1.2,2,0.37587,0.33411,0.46775,89,1.77912,-0.8,-0.40093,0.10023,5,lapse_rate,1,TRUE,0.698,0,FALSE,left,-0.16705,1.4011,1.426,0.0249,0.3926,0.8673,0.4747,A
90,0.50116,1.2,1,0.25893,0.33411,0.71833,90,2.63109,0.64,0.3174,0.81856,5,2D1U,2,FALSE,0.525,5,FALSE,right,0.25058,0.191,1.1494,0.9584,1.675,2.5666,0.8915,A
91,0.50116,1.2,1,0.26729,0.23387,0.7768,91,2.06311,-0.436,-0.21717,0.28399,5,2U1D,2,TRUE,0.791,11,TRUE,right,0,0.2014,0.6263,0.4249,1.3347,1.9756,0.6409,A
92,0.50116,1.2,1,0.35916,0.25893,0.66821,92,2.07145,-0.436,-0.21717,0.28399,5,2U1D,2,TRUE,0.316,11,TRUE,right,-0.16705,0.2943,0.7187,0.4245,1.4013,1.8764,0.4751,A
93,0.50116,0.1,2,0.37587,0.23387,0.7768,93,1.98793,-0.8,-0.40093,0.10023,5,lapse_rate,1,TRUE,0.75,0,FALSE,left,0.25058,1.9451,1.962,0.0168,0.1701,1.0871,0.917,A
94,0.50116,0.1,2,0.36752,0.35916,0.46775,94,2.53921,0.694,0.35081,0.84362,5,2D1U,2,TRUE,1.061,5,FALSE,right,0,1.5017,2.2608,0.7591,0.2858,0.9528,0.6669,A
95,0.50116,1.2,1,0.21717,0.3007,0.86868,95,2.7898,0.8,0.40093,0.90209,5,lapse_rate,2,FALSE,2.5,0,FALSE,right,-0.16705,0.1491,1.1912,1.042,2.0739,2.5493,0.4754,A
96,0.50116,0.1,1,0.29234,0.37587,0.88538,96,2.89837,0.694,0.35081,0.84362,5,2D1U,1,TRUE,1.398,5,FALSE,left,0.25058,0.2062,1.2145,1.0082,1.8899,2.8076,0.9177,A
97,0.50116,0.1,2,0.27564,0.35081,0.68492,97,2.12158,-0.382,-0.19211,0.30905,5,2U1D,1,TRUE,0.213,11,FALSE,left,0,1.6238,1.8483,0.2245,0.1899,0.8569,0.667,A
98,0.50116,1.2,2,0.25893,0.24223,0.83527,98,2.65615,0.64,0.3174,0.81856,5,2D1U,2,TRUE,0.113,6,TRUE,right,-0.16705,1.6477,2.3889,0.7412,0.2729,0.7486,0.4757,A
99,0.50116,1.2,2,0.44269,0.42599,0.40093,99,2.07982,-0.382,-0.19211,0.30905,5,2U1D,2,FALSE,0.808,11,FALSE,right,0.25058,1.6064,1.8398,0.2333,0.2481,1.1398,0.8917,A
100,0.50116,1.2,1,0.27564,0.22552,0.41763,100,2.32204,0.8,0.40093,0.90209,5,lapse_rate,2,FALSE,1.49,0,FALSE,right,0,0.2056,1.247,1.0415,1.5967,2.2384,0.6417,A
101,0.50116,1.2,2,0.33411,0.37587,0.78515,101,2.81485,0.64,0.3174,0.81856,5,2D1U,2,TRUE,0.222,6,TRUE,right,-0.16705,1.6757,2.4166,0.7409,0.3497,0.8259,0.4762,A
102,0.50116,0.1,2,0.41763,0.42599,0.4761,102,2.10487,-0.436,-0.21717,0.28399,5,2U1D,2,FALSE,1.479,12,TRUE,right,0.25058,1.6845,1.8845,0.2,0.209,1.1261,0.9171,A
103,0.50116,1.2,1,0.38422,0.23387,0.51786,103,2.5392,0.8,0.40093,0.90209,5,lapse_rate,1,TRUE,1.133,0,FALSE,left,0,0.3176,1.3595,1.0419,1.8091,2.4499,0.6408,A
104,0.50116,0.1,1,0.26729,0.40928,0.76009,104,2.03805,-0.8,-0.40093,0.10023,5,lapse_rate,1,FALSE,2.458,0,FALSE,left,-0.16705,0.1856,0.4522,0.2666,1.2114,1.7105,0.4991,A
105,0.50116,0.1,2,0.30905,0.38422,0.58469,105,2.57262,0.586,0.29234,0.7935,5,2D1U,2,TRUE,0.252,6,FALSE,right,0.25058,1.685,2.3929,0.7079,0.101,1.0175,0.9165,A
106,0.50116,0.1,2,0.42599,0.20046,0.42599,106,1.81253,-0.49,-0.24223,0.25893,5,2U1D,2,FALSE,0.642,12,FALSE,right,0,1.5194,1.6947,0.1752,0.3447,1.0105,0.6658,A
107,0.50116,1.2,1,0.36752,0.23387,0.4761,107,1.67888,-0.8,-0.40093,0.10023,5,lapse_rate,2,TRUE,0.53,0,FALSE,right,-0.16705,0.2971,0.5387,0.2416,1.0314,1.5055,0.4741,A
108,0.50116,1.2,2,0.36752,0.42599,0.86868,108,2.95685,0.586,0.29234,0.7935,5,2D1U,2,TRUE,1.434,6,FALSE,right,0.25058,1.9988,2.715,0.7162,0.1726,1.0643,0.8916,A
109,0.50116,1.2,2,0.41763,0.3174,0.84362,109,2.30533,-0.544,-0.27564,0.22552,5,2U1D,1,TRUE,1.289,12,FALSE,left,0,1.8975,2.0481,0.1506,0.3484,0.9892,0.6408,A
110,0.50116,1.2,2,0.3174,0.39258,0.46775,110,2.58098,0.8,0.40093,0.90209,5,lapse_rate,2,TRUE,0.111,0,FALSE,right,-0.16705,1.3411,2.1661,0.8251,0.3329,0.807,0.4742,A
111,0.50116,1.2,2,0.20882,0.32575,0.55963,111,2.3638,0.532,0.26729,0.76844,5,2D1U,2,TRUE,0.963,6,FALSE,right,0.25058,1.5297,2.2211,0.6914,0.0125,0.904,0.8915,A
112,0.50116,0.1,2,0.25893,0.29234,0.76009,112,2.03804,-0.544,-0.27564,0.22552,5,2U1D,1,TRUE,0.353,12,FALSE,left,0,1.6805,1.8226,0.1421,0.1717,0.8389,0.6671,A
113,0.50116,0.1,2,0.40093,0.43434,0.69327,113,2.79814,0.532,0.26729,0.76844,5,2D1U,2,TRUE,1.342,6,FALSE,right,-0.16705,1.673,2.3562,0.6832,0.3986,0.8971,0.4984,A
114,0.50116,0.1,2,0.33411,0.21717,0.70162,114,2.01299,-0.49,-0.24223,0.25893,5,2U1D,1,TRUE,0.698,13,TRUE,left,0.25058,1.8265,2.0015,0.175,0.1268,1.0435,0.9167,A
115,0.50116,1.2,2,0.20046,0.30905,0.53457,115,1.64547,-0.8,-0.40093,0.10023,5,lapse_rate,1,TRUE,2.165,0,FALSE,left,0,1.3721,1.3973,0.0252,0.1304,0.7716,0.6412,A
116,0.50116,1.2,2,0.22552,0.35081,0.60139,116,1.77911,-0.8,-0.40093,0.10023,5,lapse_rate,1,TRUE,1.173,0,FALSE,left,-0.16705,1.3815,1.4066,0.0251,0.239,0.7143,0.4753,A
117,0.50116,1.2,2,0.33411,0.27564,0.83527,117,2.68121,0.478,0.24223,0.73503,5,2D1U,2,TRUE,0.791,6,FALSE,right,0.25058,1.9316,2.5895,0.6579,0.1399,1.031,0.8911,A
118,0.50116,1.2,2,0.25058,0.41763,0.86868,118,2.29698,-0.49,-0.24223,0.25893,5,2U1D,1,TRUE,1.247,13,TRUE,left,0,1.758,1.9416,0.1836,0.1821,0.8246,0.6425,A
119,0.50116,0.1,2,0.22552,0.33411,0.81021,119,2.77309,0.8,0.40093,0.90209,5,lapse_rate,2,TRUE,0.473,0,FALSE,right,-0.16705,1.6124,2.4285,0.8161,0.2208,0.721,0.5002,A
120,0.50116,1.2,2,0.27564,0.23387,0.72668,120,2.02134,-0.436,-0.21717,0.28399,5,2U1D,2,FALSE,0.784,13,FALSE,right,0.25058,1.7702,1.9784,0.2082,0.0863,0.9785,0.8922,A
121,0.50116,0.1,1,0.24223,0.25893,0.85197,121,2.58932,0.478,0.24223,0.73503,5,2D1U,2,FALSE,1.333,6,FALSE,right,0,0.1565,1.0568,0.9003,1.8229,2.4893,0.6664,A
122,0.50116,0.1,2,0.29234,0.20882,0.46775,122,1.729,-0.49,-0.24223,0.25893,5,2U1D,1,TRUE,1.029,14,TRUE,left,-0.16705,1.3408,1.5157,0.1749,0.29,0.7907,0.5007,A
123,0.50116,1.2,1,0.35916,0.3007,0.56798,123,1.82923,-0.8,-0.40093,0.10023,5,lapse_rate,2,TRUE,0.478,0,FALSE,right,0.25058,0.2868,0.5291,0.2423,0.904,1.796,0.892,A
124,0.50116,0.1,1,0.34246,0.25058,0.40093,124,2.26357,0.532,0.26729,0.76844,5,2D1U,1,TRUE,0.786,7,TRUE,left,0,0.2615,1.1949,0.9334,1.5119,2.1784,0.6665,A
125,0.50116,1.2,1,0.34246,0.36752,0.87703,125,2.85661,0.532,0.26729,0.76844,5,2D1U,2,FALSE,0.617,7,TRUE,right,-0.16705,0.2742,1.1825,0.9083,2.074,2.5485,0.4744,A
126,0.50116,0.1,2,0.32575,0.24223,0.76844,126,1.93781,-0.8,-0.40093,0.10023,5,lapse_rate,1,TRUE,0.691,0,FALSE,left,0.25058,1.8833,1.8997,0.0165,0.1166,1.0329,0.9164,A
127,0.50116,1.2,1,0.29234,0.36752,0.74339,127,2.16334,-0.49,-0.24223,0.25893,5,2U1D,2,TRUE,0.538,14,TRUE,right,0,0.2268,0.6273,0.4006,1.3026,1.944,0.6413,A
128,0.50116,0.1,1,0.35081,0.25058,0.55128,128,1.75406,-0.8,-0.40093,0.10023,5,lapse_rate,2,TRUE,1.247,0,FALSE,right,-0.16705,0.2657,0.533,0.2672,1.0831,1.5822,0.4991,A
129,0.50116,1.2,2,0.29234,0.35081,0.46775,129,2.40556,0.586,0.29234,0.7935,5,2D1U,2,TRUE,0.482,7,FALSE,right,0.25058,1.5268,2.2433,0.7166,0.1018,0.9939,0.8922,A
130,0.50116,0.1,1,0.3007,0.40093,0.40928,130,1.89606,-0.436,-0.21717,0.28399,5,2U1D,2,TRUE,0.727,15,TRUE,right,0,0.2129,0.6631,0.4501,0.989,1.6555,0.6665,A
131,0.50116,0.1,1,0.27564,0.25058,0.51786,131,1.82923,-0.436,-0.21717,0.28399,5,2U1D,2,TRUE,0.816,15,TRUE,right,-0.16705,0.1927,0.6429,0.4503,1.159,1.6589,0.4999,A
132,0.50116,1.2,2,0.36752,0.29234,0.89373,132,2.95684,0.8,0.40093,0.90209,5,lapse_rate,2,TRUE,0.546,0,FALSE,right,0.25058,2.0254,2.8505,0.8251,0.1756,1.067,0.8913,A
133,0.50116,0.1,2,0.36752,0.23387,0.41763,133,2.31368,0.586,0.29234,0.7935,5,2D1U,2,TRUE,0.481,7,FALSE,right,0,1.4464,2.1547,0.7083,0.28,0.9463,0.6663,A
134,0.50116,1.2,1,0.3007,0.43434,0.89373,134,2.89837,0.532,0.26729,0.76844,5,2D1U,1,TRUE,0.614,8,TRUE,left,-0.16705,0.2316,1.14,0.9083,2.0486,2.5232,0.4746,A
135,0.50116,1.2,1,0.28399,0.35916,0.72668,135,2.18004,-0.382,-0.19211,0.30905,5,2U1D,2,TRUE,0.292,15,FALSE,right,0.25058,0.2157,0.666,0.4503,1.199,2.091,0.892,A
136,0.50116,1.2,1,0.21717,0.40093,0.78515,136,2.8065,0.8,0.40093,0.90209,5,lapse_rate,1,TRUE,1.065,0,FALSE,left,0,0.1517,1.1935,1.0418,1.91,2.5509,0.6409,A
137,0.50116,1.2,1,0.24223,0.39258,0.59304,137,2.03806,-0.382,-0.19211,0.30905,5,2U1D,2,TRUE,0.371,15,FALSE,right,-0.16705,0.1716,0.6213,0.4497,1.2299,1.7041,0.4742,A
138,0.50116,0.1,1,0.42599,0.24223,0.67657,138,1.94618,-0.8,-0.40093,0.10023,5,lapse_rate,2,TRUE,1.137,0,FALSE,right,0.25058,0.3387,0.6047,0.266,1.0719,999,997.9281,A
139,0.50116,0.1,1,0.25058,0.40928,0.53457,139,2.46403,0.532,0.26729,0.76844,5,2D1U,2,FALSE,0.314,8,TRUE,right,0,0.1635,1.0962,0.9327,1.5468,2.2136,0.6668,A
140,0.50116,0.1,1,0.26729,0.22552,0.83527,140,2.62274,0.586,0.29234,0.7935,5,2D1U,1,TRUE,2.875,9,TRUE,left,-0.16705,0.1796,1.1376,0.9579,1.9712,2.4711,0.4998,A
141,0.50116,1.2,2,0.37587,0.37587,0.40928,141,1.76241,-0.8,-0.40093,0.10023,5,lapse_rate,1,TRUE,1.534,0,FALSE,left,0.25058,1.5532,1.5783,0.0252,0.1862,1.0775,0.8913,A
142,0.50116,0.1,1,0.22552,0.3007,0.85197,142,2.21346,-0.328,-0.16705,0.33411,5,2U1D,2,TRUE,0.277,15,FALSE,right,0,0.145,0.6441,0.4991,1.4106,2.0779,0.6673,A
143,0.50116,1.2,2,0.3174,0.41763,0.65151,143,2.6812,0.586,0.29234,0.7935,5,2D1U,2,TRUE,0.112,9,TRUE,right,-0.16705,1.5222,2.2387,0.7165,0.3306,0.8053,0.4748,A
144,0.50116,0.1,2,0.3174,0.22552,0.64315,144,2.58932,0.8,0.40093,0.90209,5,lapse_rate,2,TRUE,0.235,0,FALSE,right,0.25058,1.7534,2.5704,0.8169,0.111,1.0278,0.9167,A
145,0.50116,1.2,2,0.23387,0.35916,0.41763,145,1.84593,-0.328,-0.16705,0.33411,5,2U1D,2,FALSE,1.181,15,FALSE,right,0,1.2906,1.5487,0.2581,0.1649,0.8075,0.6426,A
146,0.50116,0.1,1,0.30905,0.38422,0.6181,146,1.91276,-0.8,-0.40093,0.10023,5,lapse_rate,2,TRUE,0.114,0,FALSE,right,-0.16705,0.2203,0.4866,0.2663,1.1041,1.6038,0.4998,A
147,0.50116,1.2,2,0.32575,0.28399,0.65151,147,2.07146,-0.382,-0.19211,0.30905,5,2U1D,1,TRUE,0.321,16,TRUE,left,0.25058,1.7369,1.9708,0.2339,0.1295,1.0206,0.8911,A
148,0.50116,0.1,2,0.28399,0.45104,0.81856,148,2.82319,0.532,0.26729,0.76844,5,2D1U,2,TRUE,1.285,10,TRUE,right,0,1.7648,2.448,0.6832,0.1981,0.8648,0.6667,A
149,0.50116,0.1,1,0.33411,0.40928,0.81856,149,2.9652,0.8,0.40093,0.90209,5,lapse_rate,2,FALSE,0.457,0,FALSE,right,-0.16705,0.253,1.3192,1.0662,2.1365,2.6361,0.4997,A
150,0.50116,0.1,1,0.25058,0.41763,0.87703,150,2.81484,0.532,0.26729,0.76844,5,2D1U,1,TRUE,0.516,10,TRUE,left,0.25058,0.1681,1.1012,0.9332,1.768,2.6838,0.9158,A
151,0.50116,0.1,1,0.3174,0.36752,0.6348,151,2.12993,-0.382,-0.19211,0.30905,5,2U1D,2,TRUE,0.151,16,TRUE,right,0,0.2343,0.7093,0.4749,1.2598,1.9252,0.6654,A
152,0.50116,1.2,1,0.20046,0.22552,0.55128,152,2.21345,0.478,0.24223,0.73503,5,2D1U,1,TRUE,0.122,10,FALSE,left,-0.16705,0.1294,1.0042,0.8749,1.5708,2.0456,0.4748,A
153,0.50116,1.2,2,0.43434,0.37587,0.41763,153,2.06311,-0.328,-0.16705,0.33411,5,2U1D,1,TRUE,0.391,17,TRUE,left,0.25058,1.6169,1.8742,0.2574,0.2413,1.1328,0.8915,A
154,0.50116,1.2,1,0.29234,0.27564,0.81021,154,1.97958,-0.8,-0.40093,0.10023,5,lapse_rate,2,TRUE,0.289,0,FALSE,right,0,0.2218,0.4638,0.2421,1.2051,1.8473,0.6422,A
155,0.50116,1.2,2,0.3174,0.34246,0.67657,155,2.1717,-0.328,-0.16705,0.33411,5,2U1D,1,TRUE,1.251,17,TRUE,left,-0.16705,1.5476,1.8053,0.2577,0.3312,0.8055,0.4743,A
156,0.50116,0.1,2,0.35916,0.35081,0.68492,156,2.63108,0.478,0.24223,0.73503,5,2D1U,2,TRUE,0.11,10,FALSE,right,0.25058,1.8337,2.4834,0.6497,0.1494,1.0668,0.9174,A
157,0.50116,1.2,2,0.40093,0.3174,0.44269,157,2.56427,0.8,0.40093,0.90209,5,lapse_rate,2,TRUE,0.121,0,FALSE,right,0,1.4791,2.3037,0.8246,0.3286,0.9714,0.6427,A
158,0.50116,1.2,1,0.22552,0.35081,0.81856,158,1.99628,-0.8,-0.40093,0.10023,5,lapse_rate,2,TRUE,0.382,0,FALSE,right,-0.16705,0.1557,0.3966,0.2409,1.2312,1.7051,0.4739,A
159,0.50116,0.1,2,0.26729,0.42599,0.50951,159,2.06311,-0.274,-0.13364,0.35916,5,2U1D,1,TRUE,0.303,17,FALSE,left,0.25058,1.5651,1.8393,0.2742,0.0569,0.9726,0.9157,A
160,0.50116,0.1,1,0.33411,0.24223,0.4761,160,2.26358,0.424,0.20882,0.70998,5,2D1U,2,FALSE,0.205,10,FALSE,right,0,0.2496,1.1249,0.8753,1.5167,2.1831,0.6664,A
161,0.50116,0.1,2,0.21717,0.35081,0.86868,161,2.03805,-0.8,-0.40093,0.10023,5,lapse_rate,1,TRUE,0.352,0,FALSE,left,-0.16705,1.6632,1.6797,0.0166,0.2129,0.7127,0.4998,A
162,0.50116,1.2,2,0.34246,0.43434,0.46775,162,2.10487,-0.274,-0.13364,0.35916,5,2U1D,1,TRUE,0.553,17,FALSE,left,0.25058,1.5704,1.8539,0.2835,0.1447,1.0365,0.8918,A
163,0.50116,1.2,1,0.25893,0.34246,0.67657,163,2.51415,0.478,0.24223,0.73503,5,2D1U,2,FALSE,0.182,11,TRUE,right,0,0.1898,1.065,0.8752,1.6733,2.3143,0.641,A
164,0.50116,1.2,1,0.25893,0.25058,0.42599,164,1.53689,-0.8,-0.40093,0.10023,5,lapse_rate,2,TRUE,0.516,0,FALSE,right,-0.16705,0.193,0.4339,0.2409,0.8761,1.3507,0.4745,A
165,0.50116,1.2,2,0.3174,0.24223,0.60139,165,2.43062,0.532,0.26729,0.76844,5,2D1U,2,TRUE,0.588,11,FALSE,right,0.25058,1.6824,2.374,0.6916,0.1237,1.016,0.8923,A
166,0.50116,0.1,1,0.35916,0.20046,0.84362,166,2.29698,-0.22,-0.10858,0.39258,5,2U1D,2,TRUE,0.241,17,FALSE,right,0,0.2729,0.8314,0.5585,1.5898,2.2565,0.6667,A
167,0.50116,0.1,1,0.23387,0.29234,0.4761,167,2.27191,0.532,0.26729,0.76844,5,2D1U,2,FALSE,0.317,11,FALSE,right,-0.16705,0.1492,1.0832,0.934,1.5584,2.0582,0.4998,A
168,0.50116,0.1,2,0.38422,0.35081,0.65986,168,2.28863,-0.22,-0.10858,0.39258,5,2U1D,1,TRUE,0.667,17,FALSE,left,0.25058,1.8299,2.1378,0.3079,0.1724,1.0885,0.9161,A
169,0.50116,1.2,1,0.25893,0.34246,0.66821,169,1.87099,-0.8,-0.40093,0.10023,5,lapse_rate,2,TRUE,0.839,0,FALSE,right,0,0.1954,0.4363,0.2409,1.0374,1.6787,0.6414,A
170,0.50116,1.2,2,0.25893,0.26729,0.74339,170,2.56427,0.586,0.29234,0.7935,5,2D1U,2,TRUE,0.134,11,FALSE,right,-0.16705,1.5559,2.2726,0.7167,0.273,0.7476,0.4746,A
171,0.50116,1.2,1,0.42599,0.35916,0.87703,171,3.06543,0.8,0.40093,0.90209,5,lapse_rate,2,FALSE,0.338,0,FALSE,right,0.25058,0.3574,1.3986,1.0412,2.0826,2.9743,0.8917,A
172,0.50116,1.2,1,0.35916,0.23387,0.76844,172,2.28026,-0.166,-0.08353,0.41763,5,2U1D,1,FALSE,1.959,17,FALSE,left,0,0.2952,0.8529,0.5577,1.5536,2.1954,0.6418,A
173,0.50116,1.2,1,0.35081,0.20882,0.66821,173,2.5225,0.586,0.29234,0.7935,5,2D1U,2,FALSE,3.45,11,FALSE,right,-0.16705,0.2778,1.2113,0.9335,1.8942,2.3701,0.4759,A
174,0.50116,0.1,2,0.24223,0.40928,0.82691,174,2.37216,-0.22,-0.10858,0.39258,5,2U1D,2,FALSE,0.334,18,TRUE,right,0.25058,1.8554,2.164,0.3086,0.0302,0.9478,0.9176,A
175,0.50116,1.2,2,0.20046,0.40093,0.71833,175,2.72297,0.8,0.40093,0.90209,5,lapse_rate,2,TRUE,0.313,0,FALSE,right,0,1.5557,2.3807,0.825,0.1314,0.7729,0.6415,A
176,0.50116,0.1,2,0.23387,0.33411,0.70162,176,2.58932,0.64,0.3174,0.81856,5,2D1U,2,TRUE,0.11,11,FALSE,right,-0.16705,1.5125,2.2462,0.7337,0.229,0.729,0.5,A
177,0.50116,0.1,1,0.26729,0.22552,0.84362,177,1.93782,-0.8,-0.40093,0.10023,5,lapse_rate,2,TRUE,0.155,0,FALSE,right,0.25058,0.1828,0.4483,0.2656,1.0823,999,997.9177,A
178,0.50116,0.1,2,0.37587,0.27564,0.50951,178,2.02134,-0.274,-0.13364,0.35916,5,2U1D,1,TRUE,0.18,18,FALSE,left,0,1.5476,1.8224,0.2748,0.2893,0.9558,0.6664,A
179,0.50116,1.2,1,0.35081,0.40928,0.55128,179,2.17169,-0.274,-0.13364,0.35916,5,2U1D,1,FALSE,0.668,18,FALSE,left,-0.16705,0.2801,0.7802,0.5001,1.3474,1.8221,0.4746,A
180,0.50116,1.2,2,0.45104,0.44269,0.7768,180,2.99025,0.64,0.3174,0.81856,5,2D1U,1,FALSE,0.498,11,FALSE,left,0.25058,1.9907,2.7325,0.7418,0.2581,1.1501,0.892,A
181,0.50116,0.1,2,0.20882,0.3174,0.49281,181,2.42228,0.8,0.40093,0.90209,5,lapse_rate,2,TRUE,0.149,0,FALSE,right,0,1.3687,2.1856,0.8169,0.1273,0.7936,0.6664,A
182,0.50116,1.2,1,0.26729,0.42599,0.52622,182,2.62275,0.8,0.40093,0.90209,5,lapse_rate,1,TRUE,0.112,0,FALSE,left,-0.16705,0.2012,1.2422,1.041,1.7846,2.2594,0.4747,A
183,0.50116,1.2,2,0.38422,0.21717,0.67657,183,2.62274,0.694,0.35081,0.84362,5,2D1U,2,TRUE,0.392,11,FALSE,right,0.25058,1.8222,2.5872,0.765,0.1872,1.0788,0.8916,A
184,0.50116,0.1,2,0.45104,0.40928,0.66821,184,2.3638,-0.328,-0.16705,0.33411,5,2U1D,1,TRUE,0.107,18,FALSE,left,0,1.7845,2.0349,0.2504,0.3681,1.0351,0.667,A
185,0.50116,0.1,2,0.3174,0.36752,0.46775,185,1.98794,-0.328,-0.16705,0.33411,5,2U1D,1,TRUE,0.223,18,FALSE,left,-0.16705,1.3661,1.6157,0.2496,0.3154,0.8155,0.5001,A
186,0.50116,0.1,1,0.35916,0.22552,0.4594,186,1.64547,-0.8,-0.40093,0.10023,5,lapse_rate,2,TRUE,0.108,0,FALSE,right,0.25058,0.2733,0.5397,0.2664,0.7899,999,998.2101,A
187,0.50116,0.1,1,0.32575,0.3174,0.60974,187,2.59767,0.694,0.35081,0.84362,5,2D1U,1,TRUE,0.232,11,FALSE,left,0,0.2379,1.2464,1.0085,1.7715,2.4379,0.6663,A
188,0.50116,1.2,2,0.43434,0.21717,0.86868,188,2.38051,-0.274,-0.13364,0.35916,5,2U1D,1,TRUE,0.207,19,TRUE,left,-0.16705,1.8543,2.1372,0.2829,0.4452,0.9206,0.4754,A
189,0.50116,1.2,2,0.27564,0.26729,0.76009,189,1.90441,-0.8,-0.40093,0.10023,5,lapse_rate,1,TRUE,0.408,0,FALSE,left,0.25058,1.8025,1.8287,0.0262,0.0867,0.9784,0.8917,A
190,0.50116,1.2,2,0.43434,0.20882,0.67657,190,2.63945,0.64,0.3174,0.81856,5,2D1U,2,TRUE,0.333,12,TRUE,right,0,1.7479,2.4896,0.7417,0.3647,1.0055,0.6408,A
191,0.50116,1.2,2,0.40928,0.24223,0.68492,191,2.65615,0.64,0.3174,0.81856,5,2D1U,2,TRUE,0.618,12,TRUE,right,-0.16705,1.6473,2.3893,0.742,0.4221,0.8967,0.4746,A
192,0.50116,0.1,2,0.42599,0.27564,0.51786,192,2.62274,0.8,0.40093,0.90209,5,lapse_rate,2,TRUE,0.284,0,FALSE,right,0.25058,1.7365,2.5524,0.8159,0.22,1.1364,0.9164,A
193,0.50116,0.1,1,0.25893,0.25893,0.85197,193,2.23015,-0.274,-0.13364,0.35916,5,2U1D,1,FALSE,0.364,19,TRUE,left,0,0.1786,0.7035,0.5249,1.4697,2.1366,0.6668,A
194,0.50116,1.2,2,0.27564,0.20046,0.4761,194,1.55359,-0.8,-0.40093,0.10023,5,lapse_rate,1,TRUE,0.49,0,FALSE,left,-0.16705,1.3074,1.3324,0.025,0.2909,0.7649,0.474,A
195,0.50116,0.1,1,0.35081,0.22552,0.81856,195,2.23016,-0.328,-0.16705,0.33411,5,2U1D,2,TRUE,0.113,20,TRUE,right,0.25058,0.2673,0.768,0.5007,1.3756,999,997.6244,A
196,0.50116,0.1,1,0.43434,0.45104,0.74339,196,2.92343,0.586,0.29234,0.7935,5,2D1U,1,TRUE,0.563,12,FALSE,left,0,0.3462,1.3042,0.958,1.9652,2.6301,0.6648,A
197,0.50116,1.2,1,0.25893,0.27564,0.87703,197,2.70626,0.586,0.29234,0.7935,5,2D1U,2,FALSE,0.35,12,FALSE,right,-0.16705,0.1875,1.1205,0.933,2.0122,2.488,0.4758,A
198,0.50116,1.2,2,0.42599,0.34246,0.86032,198,2.23016,-0.8,-0.40093,0.10023,5,lapse_rate,1,TRUE,0.256,0,FALSE,left,0.25058,2.0453,2.0701,0.0248,0.2279,1.1201,0.8922,A
199,0.50116,1.2,1,0.22552,0.23387,0.56798,199,1.86264,-0.328,-0.16705,0.33411,5,2U1D,2,TRUE,0.12,20,TRUE,right,0,0.1548,0.6305,0.4757,1.1301,1.7721,0.642,A
200,0.50116,1.2,1,0.26729,0.32575,0.49281,200,2.40557,0.64,0.3174,0.81856,5,2D1U,1,TRUE,0.291,13,TRUE,left,-0.16705,0.1983,1.156,0.9577,1.6653,2.14,0.4747,A
201,0.50116,1.2,1,0.21717,0.34246,0.85197,201,2.81485,0.8,0.40093,0.90209,5,lapse_rate,1,TRUE,0.468,0,FALSE,left,0.25058,0.1486,1.1898,1.0412,1.8492,2.7402,0.891,A
202,0.50116,0.1,2,0.43434,0.40928,0.60139,202,2.30533,-0.274,-0.13364,0.35916,5,2U1D,1,TRUE,0.777,21,TRUE,left,0,1.6979,1.9726,0.2747,0.3476,1.015,0.6674,A
203,0.50116,0.1,2,0.30905,0.36752,0.64315,203,2.63944,0.64,0.3174,0.81856,5,2D1U,2,TRUE,0.14,13,TRUE,right,-0.16705,1.5304,2.2637,0.7332,0.3052,0.8059,0.5007,A
204,0.50116,0.1,1,0.42599,0.36752,0.4761,204,2.12993,-0.274,-0.13364,0.35916,5,2U1D,2,TRUE,0.109,21,TRUE,right,0.25058,0.3396,0.8648,0.5252,1.1316,2.0484,0.9168,A
205,0.50116,1.2,1,0.35916,0.37587,0.87703,205,3.01531,0.8,0.40093,0.90209,5,lapse_rate,1,TRUE,1.551,0,FALSE,left,0,0.291,1.3324,1.0414,2.1405,2.7833,0.6427,A
206,0.50116,1.2,2,0.44269,0.35916,0.66821,206,2.07145,-0.8,-0.40093,0.10023,5,lapse_rate,1,TRUE,0.17,0,FALSE,left,-0.16705,1.6637,1.6885,0.0248,0.4551,0.9304,0.4753,A
207,0.50116,1.2,1,0.43434,0.35081,0.83527,207,2.91508,0.586,0.29234,0.7935,5,2D1U,2,FALSE,0.111,14,TRUE,right,0.25058,0.3626,1.2966,0.934,1.9385,2.8298,0.8913,A
208,0.50116,1.2,1,0.27564,0.37587,0.60139,208,2.14664,-0.22,-0.10858,0.39258,5,2U1D,2,TRUE,0.331,21,FALSE,right,0,0.2076,0.74,0.5325,1.273,1.9148,0.6418,A
209,0.50116,1.2,2,0.40093,0.27564,0.85197,209,2.42228,-0.22,-0.10858,0.39258,5,2U1D,1,TRUE,0.412,21,FALSE,left,-0.16705,1.8056,2.1226,0.317,0.4137,0.8892,0.4755,A
210,0.50116,0.1,2,0.25058,0.34246,0.45104,210,1.64547,-0.8,-0.40093,0.10023,5,lapse_rate,1,TRUE,0.377,0,FALSE,left,0.25058,1.4942,1.5109,0.0167,0.044,0.9621,0.9182,A
211,0.50116,0.1,1,0.22552,0.25893,0.42599,211,2.23016,0.64,0.3174,0.81856,5,2D1U,1,TRUE,0.892,15,TRUE,left,0,0.1395,1.1229,0.9834,1.4644,2.131,0.6666,A
212,0.50116,1.2,2,0.32575,0.27564,0.64315,212,2.64779,0.8,0.40093,0.90209,5,lapse_rate,2,TRUE,0.112,0,FALSE,right,-0.16705,1.5268,2.3519,0.8251,0.3435,0.8193,0.4758,A
213,0.50116,0.1,2,0.40093,0.20882,0.60139,213,2.12993,-0.166,-0.08353,0.41763,5,2U1D,2,FALSE,0.291,21,FALSE,right,0.25058,1.7895,2.1232,0.3337,0.1893,1.1062,0.9169,A
214,0.50116,0.1,2,0.34246,0.22552,0.41763,214,2.30533,0.64,0.3174,0.81856,5,2D1U,2,TRUE,0.113,15,TRUE,right,0,1.4217,2.1547,0.733,0.2551,0.9209,0.6658,A
215,0.50116,1.2,1,0.40093,0.22552,0.55128,215,2.07147,-0.22,-0.10858,0.39258,5,2U1D,2,TRUE,0.425,22,TRUE,right,-0.16705,0.331,0.8654,0.5343,1.4315,1.9071,0.4756,A
216,0.50116,1.2,2,0.41763,0.30905,0.82691,216,2.15498,-0.8,-0.40093,0.10023,5,lapse_rate,1,TRUE,0.405,0,FALSE,left,0.25058,2.0084,2.0338,0.0254,0.2258,1.1175,0.8917,A
217,0.50116,1.2,1,0.40928,0.40928,0.86868,217,2.9819,0.586,0.29234,0.7935,5,2D1U,2,FALSE,0.345,16,TRUE,right,0,0.3448,1.2782,0.9334,2.0781,2.7192,0.6411,A
218,0.50116,0.1,1,0.40928,0.25058,0.52622,218,2.58933,0.8,0.40093,0.90209,5,lapse_rate,1,TRUE,0.144,0,FALSE,left,-0.16705,0.3258,1.3927,1.0669,1.9184,2.4177,0.4993,A
219,0.50116,1.2,2,0.39258,0.24223,0.48445,219,2.43898,0.64,0.3174,0.81856,5,2D1U,1,FALSE,0.674,17,TRUE,left,0.25058,1.6399,2.3805,0.7406,0.1971,1.0886,0.8914,A
220,0.50116,0.1,1,0.25893,0.3007,0.76009,220,2.21346,-0.22,-0.10858,0.39258,5,2U1D,1,FALSE,0.592,22,TRUE,left,0,0.1732,0.7321,0.5589,1.4073,2.0734,0.6662,A
221,0.50116,0.1,2,0.41763,0.36752,0.4594,221,2.58933,0.694,0.35081,0.84362,5,2D1U,2,TRUE,0.174,17,FALSE,right,-0.16705,1.4555,2.2138,0.7584,0.4142,0.9136,0.4994,A
222,0.50116,0.1,1,0.40093,0.23387,0.45104,222,1.94616,-0.274,-0.13364,0.35916,5,2U1D,1,FALSE,0.368,22,FALSE,left,0.25058,0.3175,0.8424,0.5249,1.084,999,997.916,A
223,0.50116,0.1,2,0.3007,0.37587,0.70998,223,2.7898,0.8,0.40093,0.90209,5,lapse_rate,2,TRUE,0.267,0,FALSE,right,0,1.673,2.4896,0.8166,0.2145,0.8811,0.6666,A
224,0.50116,1.2,1,0.35916,0.32575,0.55128,224,2.58097,0.694,0.35081,0.84362,5,2D1U,2,FALSE,1.126,17,FALSE,right,-0.16705,0.2875,1.2714,0.9839,1.8386,2.3127,0.4742,A
225,0.50116,0.1,2,0.20046,0.34246,0.7768,225,2.72297,0.8,0.40093,0.90209,5,lapse_rate,2,TRUE,0.516,0,FALSE,right,0.25058,1.7692,2.5858,0.8166,999,0.9111,-998.0889,A
226,0.50116,1.2,2,0.25058,0.40093,0.80186,226,2.28864,-0.328,-0.16705,0.33411,5,2U1D,2,FALSE,1.621,22,FALSE,right,0,1.6882,1.9464,0.2582,0.1808,0.8212,0.6404,A
227,0.50116,1.2,1,0.24223,0.32575,0.89373,227,2.8399,0.748,0.37587,0.87703,5,2D1U,1,TRUE,0.892,17,FALSE,left,-0.16705,0.1754,1.1912,1.0159,2.0998,2.5744,0.4746,A
228,0.50116,0.1,1,0.45104,0.45104,0.54292,228,2.25521,-0.382,-0.19211,0.30905,5,2U1D,2,TRUE,1.694,22,FALSE,right,0.25058,0.3657,0.8399,0.4742,1.1739,2.0899,0.916,A
229,0.50116,0.1,2,0.25058,0.35916,0.88538,229,2.89837,0.8,0.40093,0.90209,5,lapse_rate,2,TRUE,0.51,0,FALSE,right,0,1.799,2.6152,0.8162,0.1661,0.8314,0.6654,A
230,0.50116,0.1,1,0.37587,0.26729,0.81856,230,2.83991,0.748,0.37587,0.87703,5,2D1U,1,TRUE,0.951,17,FALSE,left,-0.16705,0.2932,1.3338,1.0407,2.1509,2.651,0.5,A
231,0.50116,0.1,1,0.33411,0.29234,0.62645,231,2.06311,-0.382,-0.19211,0.30905,5,2U1D,2,TRUE,0.466,22,FALSE,right,0.25058,0.2479,0.723,0.4751,1.1394,2.0561,0.9167,A
232,0.50116,1.2,1,0.26729,0.25058,0.60139,232,2.52251,0.8,0.40093,0.90209,5,lapse_rate,1,TRUE,0.741,0,FALSE,left,0,0.2033,1.2452,1.0418,1.7788,2.4203,0.6416,A
233,0.50116,1.2,1,0.23387,0.23387,0.62645,233,2.43897,0.694,0.35081,0.84362,5,2D1U,1,TRUE,0.875,18,TRUE,left,-0.16705,0.1688,1.1522,0.9833,1.7934,2.2684,0.475,A
234,0.50116,0.1,1,0.25893,0.25893,0.40093,234,2.32204,0.8,0.40093,0.90209,5,lapse_rate,1,TRUE,0.358,0,FALSE,left,0.25058,0.1782,1.2448,1.0666,1.4366,999,997.5634,A
235,0.50116,1.2,1,0.32575,0.40093,0.54292,235,2.10487,-0.328,-0.16705,0.33411,5,2U1D,2,TRUE,0.11,23,TRUE,right,0,0.2587,0.7341,0.4754,1.2087,1.8497,0.6409,A
236,0.50116,0.1,1,0.44269,0.28399,0.55963,236,1.8877,-0.8,-0.40093,0.10023,5,lapse_rate,2,TRUE,0.199,0,FALSE,right,-0.16705,0.3543,0.62,0.2658,1.1785,1.6778,0.4994,A
237,0.50116,1.2,2,0.28399,0.42599,0.86032,237,2.40557,-0.328,-0.16705,0.33411,5,2U1D,2,FALSE,0.268,23,TRUE,right,0.25058,1.9098,2.1678,0.258,0.0931,0.9846,0.8916,A
238,0.50116,0.1,1,0.44269,0.22552,0.46775,238,2.48074,0.694,0.35081,0.84362,5,2D1U,2,FALSE,0.806,18,TRUE,right,0,0.3567,1.3646,1.0079,1.7484,2.4143,0.6659,A
239,0.50116,0.1,1,0.32575,0.44269,0.64315,239,2.2218,-0.382,-0.19211,0.30905,5,2U1D,2,TRUE,1.275,24,TRUE,right,-0.16705,0.2374,0.7122,0.4748,1.3542,1.8544,0.5002,A
240,0.50116,0.1,2,0.34246,0.3174,0.49281,240,1.75406,-0.8,-0.40093,0.10023,5,lapse_rate,1,TRUE,5.053,0,FALSE,left,0.25058,1.6212,1.6381,0.0169,0.1301,1.0463,0.9162,A
241,0.50116,0.1,1,0.44269,0.32575,0.41763,241,2.56426,0.748,0.37587,0.87703,5,2D1U,1,TRUE,0.233,19,TRUE,left,0,0.3551,1.397,1.0419,1.7302,2.3973,0.6672,A
242,0.50116,1.2,1,0.25893,0.24223,0.54292,242,2.42227,0.748,0.37587,0.87703,5,2D1U,1,TRUE,1.384,19,TRUE,left,-0.16705,0.1919,1.2083,1.0164,1.7668,2.2414,0.4747,A
243,0.50116,1.2,2,0.43434,0.29234,0.83527,243,2.37216,-0.382,-0.19211,0.30905,5,2U1D,1,TRUE,0.933,24,TRUE,left,0.25058,2.0289,2.2626,0.2337,0.2377,1.1293,0.8916,A
244,0.50116,1.2,2,0.32575,0.22552,0.70998,244,2.6645,0.8,0.40093,0.90209,5,lapse_rate,2,TRUE,0.111,0,FALSE,right,0,1.6736,2.4989,0.8253,0.2578,0.8988,0.6411,A
245,0.50116,1.2,1,0.40093,0.21717,0.65986,245,2.62274,0.694,0.35081,0.84362,5,2D1U,1,TRUE,0.68,20,TRUE,left,-0.16705,0.3301,1.3131,0.983,1.9886,2.4631,0.4746,A
246,0.50116,0.1,1,0.38422,0.29234,0.45104,246,1.72899,-0.8,-0.40093,0.10023,5,lapse_rate,2,TRUE,0.11,0,FALSE,right,0.25058,0.2956,0.5617,0.2662,0.8044,1.7209,0.9165,A
247,0.50116,0.1,1,0.44269,0.33411,0.66821,247,2.28028,-0.328,-0.16705,0.33411,5,2U1D,2,TRUE,0.114,25,TRUE,right,0,0.356,0.8558,0.4997,1.4397,2.1055,0.6659,A
248,0.50116,0.1,2,0.25058,0.20882,0.54292,248,2.3471,0.694,0.35081,0.84362,5,2D1U,2,TRUE,0.108,20,TRUE,right,-0.16705,1.374,2.1323,0.7583,0.2484,0.7498,0.5014,A
249,0.50116,0.1,2,0.3174,0.27564,0.46775,249,1.89606,-0.328,-0.16705,0.33411,5,2U1D,1,TRUE,0.237,25,TRUE,left,0.25058,1.5727,1.8235,0.2508,0.1058,1.0223,0.9164,A
250,0.50116,1.2,1,0.32575,0.32575,0.55128,250,1.80417,-0.8,-0.40093,0.10023,5,lapse_rate,2,TRUE,0.775,0,FALSE,right,0,0.2568,0.4987,0.2419,0.9819,1.6235,0.6416,A
251,0.50116,1.2,1,0.35916,0.29234,0.70162,251,2.21344,-0.274,-0.13364,0.35916,5,2U1D,2,TRUE,0.868,25,FALSE,right,-0.16705,0.2868,0.7872,0.5004,1.5038,1.9788,0.4751,A
252,0.50116,0.1,2,0.40928,0.20046,0.58469,252,1.79582,-0.8,-0.40093,0.10023,5,lapse_rate,1,TRUE,0.69,0,FALSE,left,0.25058,1.7782,1.795,0.0168,0.1945,1.1115,0.917,A
253,0.50116,1.2,2,0.37587,0.35081,0.70162,253,2.74802,0.64,0.3174,0.81856,5,2D1U,2,TRUE,0.246,20,FALSE,right,0,1.7173,2.4592,0.7419,0.309,0.9514,0.6424,A
254,0.50116,1.2,1,0.3007,0.21717,0.45104,254,2.28863,0.64,0.3174,0.81856,5,2D1U,2,FALSE,0.441,20,FALSE,right,-0.16705,0.2312,1.1893,0.9581,1.6566,2.1309,0.4743,A
255,0.50116,0.1,2,0.40928,0.40928,0.84362,255,2.5225,-0.274,-0.13364,0.35916,5,2U1D,1,TRUE,0.209,25,FALSE,left,0.25058,2.042,2.3166,0.2746,0.2,1.1169,0.9169,A
256,0.50116,0.1,1,0.20046,0.34246,0.78515,256,2.22181,-0.22,-0.10858,0.39258,5,2U1D,2,TRUE,0.189,25,FALSE,right,0,0.1197,0.6781,0.5584,1.3779,2.0448,0.6669,A
257,0.50116,0.1,1,0.40093,0.21717,0.82691,257,2.78979,0.694,0.35081,0.84362,5,2D1U,1,TRUE,0.593,21,TRUE,left,-0.16705,0.3152,1.3233,1.008,2.1487,2.6482,0.4995,A
258,0.50116,1.2,2,0.33411,0.20046,0.65986,258,2.53921,0.694,0.35081,0.84362,5,2D1U,2,TRUE,0.114,21,TRUE,right,0.25058,1.7545,2.5217,0.7672,0.1374,1.0292,0.8919,A
259,0.50116,1.2,1,0.29234,0.35081,0.70162,259,2.23851,-0.22,-0.10858,0.39258,5,2U1D,2,TRUE,0.37,25,FALSE,right,0,0.2213,0.7551,0.5339,1.3892,2.0298,0.6406,A
260,0.50116,1.2,2,0.36752,0.21717,0.50951,260,2.01299,-0.166,-0.08353,0.41763,5,2U1D,2,FALSE,0.375,25,FALSE,right,-0.16705,1.431,1.7724,0.3414,0.3804,0.8556,0.4752,A
261,0.50116,0.1,1,0.43434,0.36752,0.4761,261,2.59768,0.64,0.3174,0.81856,5,2D1U,1,TRUE,1.06,22,TRUE,left,0.25058,0.3489,1.3316,0.9828,1.5978,2.5148,0.917,A
262,0.50116,0.1,1,0.40928,0.23387,0.50116,262,2.03805,-0.22,-0.10858,0.39258,5,2U1D,1,FALSE,0.801,26,TRUE,left,0,0.3276,0.8856,0.558,1.3026,1.9687,0.6662,A
263,0.50116,0.1,2,0.20046,0.35916,0.62645,263,2.04639,-0.274,-0.13364,0.35916,5,2U1D,1,TRUE,0.627,26,FALSE,left,-0.16705,1.406,1.68,0.274,0.1973,0.6967,0.4994,A
264,0.50116,1.2,2,0.22552,0.20882,0.59304,264,2.3471,0.64,0.3174,0.81856,5,2D1U,2,TRUE,0.671,22,TRUE,right,0.25058,1.5802,2.3227,0.7425,0.0309,0.9219,0.891,A
265,0.50116,1.2,2,0.34246,0.21717,0.55128,265,1.97123,-0.274,-0.13364,0.35916,5,2U1D,1,TRUE,0.359,26,FALSE,left,0,1.5353,1.8187,0.2834,0.2781,0.9192,0.6412,A
266,0.50116,1.2,2,0.21717,0.25058,0.40928,266,1.77077,-0.22,-0.10858,0.39258,5,2U1D,2,FALSE,0.517,27,TRUE,right,-0.16705,1.1851,1.5015,0.3164,0.2355,0.7107,0.4753,A
267,0.50116,0.1,1,0.20882,0.40093,0.78515,267,2.68956,0.586,0.29234,0.7935,5,2D1U,1,TRUE,0.628,22,FALSE,left,0.25058,0.1217,1.0802,0.9585,1.6553,2.5715,0.9163,A
268,0.50116,0.1,2,0.32575,0.21717,0.76009,268,2.16333,-0.274,-0.13364,0.35916,5,2U1D,1,TRUE,0.616,28,TRUE,left,0,1.751,2.0254,0.2745,0.2427,0.9087,0.666,A
269,0.50116,0.1,1,0.40093,0.39258,0.50951,269,2.16334,-0.274,-0.13364,0.35916,5,2U1D,2,TRUE,0.392,28,TRUE,right,-0.16705,0.3175,0.8418,0.5243,1.3506,1.8498,0.4992,A
270,0.50116,1.2,2,0.36752,0.43434,0.76009,270,2.85661,0.586,0.29234,0.7935,5,2D1U,1,FALSE,0.201,22,FALSE,left,0.25058,1.8893,2.6057,0.7165,0.1726,1.0645,0.8919,A
271,0.50116,1.2,1,0.43434,0.38422,0.74339,271,2.45569,-0.22,-0.10858,0.39258,5,2U1D,2,TRUE,0.11,29,TRUE,right,0,0.3665,0.9001,0.5336,1.5744,2.2159,0.6416,A
272,0.50116,1.2,1,0.34246,0.32575,0.86868,272,2.43063,-0.22,-0.10858,0.39258,5,2U1D,2,TRUE,0.126,29,TRUE,right,-0.16705,0.2734,0.8066,0.5332,1.6906,2.1654,0.4747,A
273,0.50116,0.1,2,0.25893,0.39258,0.85197,273,2.42227,-0.166,-0.08353,0.41763,5,2U1D,1,TRUE,0.508,29,FALSE,left,0.25058,1.8966,2.2305,0.3339,0.0462,0.9632,0.917,A
274,0.50116,0.1,2,0.27564,0.23387,0.4761,274,2.30533,0.64,0.3174,0.81856,5,2D1U,2,TRUE,0.115,23,TRUE,right,0,1.4125,2.146,0.7335,0.1875,0.8543,0.6669,A
275,0.50116,0.1,2,0.20046,0.33411,0.60139,275,2.05475,-0.166,-0.08353,0.41763,5,2U1D,1,TRUE,0.273,29,FALSE,left,-0.16705,1.3859,1.7187,0.3328,0.2028,0.702,0.4992,A
276,0.50116,1.2,1,0.40093,0.38422,0.73503,276,2.46403,-0.112,-0.05847,0.44269,5,2U1D,2,TRUE,0.167,29,FALSE,right,0.25058,0.3285,0.912,0.5834,1.4539,2.3454,0.8915,A
277,0.50116,1.2,2,0.35081,0.34246,0.40928,277,2.42227,0.64,0.3174,0.81856,5,2D1U,2,TRUE,0.112,23,TRUE,right,0,1.4003,2.1426,0.7423,0.2841,0.9264,0.6423,A
278,0.50116,1.2,2,0.40928,0.37587,0.78515,278,2.51415,-0.112,-0.05847,0.44269,5,2U1D,1,TRUE,0.567,29,FALSE,left,-0.16705,1.7458,2.1122,0.3664,0.4201,0.8955,0.4755,A
279,0.50116,0.1,2,0.32575,0.42599,0.4761,279,2.5225,0.586,0.29234,0.7935,5,2D1U,2,TRUE,0.115,24,TRUE,right,0.25058,1.5907,2.2982,0.7076,0.1148,1.0315,0.9167,A
280,0.50116,0.1,2,0.27564,0.20046,0.45104,280,2.2218,0.586,0.29234,0.7935,5,2D1U,2,TRUE,0.217,24,TRUE,right,0,1.3865,2.0956,0.7091,0.1866,0.8537,0.6671,A
281,0.50116,0.1,1,0.41763,0.35916,0.64315,281,2.38885,-0.058,-0.02506,0.46775,5,2U1D,2,TRUE,0.527,29,FALSE,right,-0.16705,0.3336,0.9668,0.6332,1.6086,2.109,0.5004,A
282,0.50116,1.2,2,0.34246,0.26729,0.70998,282,2.28864,-0.058,-0.02506,0.46775,5,2U1D,1,TRUE,0.463,29,FALSE,left,0.25058,1.819,2.2109,0.3919,0.1524,1.0442,0.8917,A
283,0.50116,1.2,2,0.3007,0.28399,0.52622,283,2.38051,0.532,0.26729,0.76844,5,2D1U,2,TRUE,0.117,24,FALSE,right,0,1.4648,2.1564,0.6916,0.2318,0.873,0.6412,A
284,0.50116,1.2,1,0.41763,0.42599,0.50951,284,2.62273,0.532,0.26729,0.76844,5,2D1U,1,TRUE,0.909,24,FALSE,left,-0.16705,0.3474,1.2565,0.9091,1.7806,2.2565,0.4759,A
285,0.50116,0.1,2,0.34246,0.39258,0.54292,285,2.51415,0.478,0.24223,0.73503,5,2D1U,2,TRUE,0.135,24,FALSE,right,0.25058,1.6778,2.3282,0.6504,0.1355,1.0524,0.9169,A
286,0.50116,0.1,2,0.39258,0.27564,0.78515,286,2.45569,-0.004,0,0.50116,5,2U1D,2,FALSE,0.942,29,FALSE,right,0,1.8379,2.2546,0.4167,0.305,0.9717,0.6667,A
287,0.50116,0.1,1,0.37587,0.3174,0.85197,287,2.51415,-0.058,-0.02506,0.46775,5,2U1D,2,TRUE,0.583,30,TRUE,right,-0.16705,0.2899,0.9236,0.6337,1.7725,2.2733,0.5008,A
288,0.50116,1.2,2,0.42599,0.25058,0.81021,288,2.45569,-0.058,-0.02506,0.46775,5,2U1D,2,FALSE,0.323,30,TRUE,right,0.25058,1.9992,2.3907,0.3915,0.2321,1.1246,0.8925,A
289,0.50116,1.2,2,0.3007,0.29234,0.54292,289,2.37215,0.478,0.24223,0.73503,5,2D1U,2,TRUE,0.273,24,FALSE,right,0,1.4851,2.144,0.6588,0.235,0.8773,0.6423,A
290,0.50116,1.2,2,0.39258,0.40928,0.85197,290,2.86497,0.424,0.20882,0.70998,5,2D1U,2,TRUE,0.128,24,FALSE,right,-0.16705,1.7955,2.4278,0.6323,0.4029,0.8786,0.4757,A
291,0.50116,0.1,1,0.25058,0.3174,0.69327,291,2.2051,-0.112,-0.05847,0.44269,5,2U1D,2,TRUE,0.119,30,FALSE,right,0.25058,0.1614,0.7703,0.6089,1.2537,2.1696,0.9159,A
292,0.50116,0.1,2,0.40093,0.22552,0.65151,292,2.22181,-0.112,-0.05847,0.44269,5,2U1D,1,TRUE,0.378,30,FALSE,left,0,1.7195,2.0776,0.3581,0.3195,0.9863,0.6668,A
293,0.50116,0.1,1,0.35081,0.35916,0.50116,293,2.42227,0.424,0.20882,0.70998,5,2D1U,1,TRUE,0.767,24,FALSE,left,-0.16705,0.2622,1.1373,0.875,1.6368,2.1376,0.5008,A
294,0.50116,1.2,1,0.40928,0.23387,0.53457,294,2.14663,-0.058,-0.02506,0.46775,5,2U1D,2,TRUE,0.367,31,TRUE,right,0.25058,0.34,0.9489,0.6089,1.29,999,997.71,A
295,0.50116,1.2,2,0.35081,0.39258,0.60974,295,2.32204,-0.058,-0.02506,0.46775,5,2U1D,2,FALSE,0.4,31,TRUE,right,0,1.5983,1.9909,0.3927,0.2823,0.924,0.6417,A
296,0.50116,1.2,2,0.28399,0.34246,0.68492,296,2.49745,0.37,0.18376,0.68492,5,2D1U,2,TRUE,0.437,24,FALSE,right,-0.16705,1.527,2.1353,0.6083,0.302,0.7765,0.4745,A
297,0.50116,0.1,1,0.40928,0.35081,0.62645,297,2.57262,0.37,0.18376,0.68492,5,2D1U,1,TRUE,0.11,24,FALSE,left,0.25058,0.3266,1.177,0.8504,1.594,2.5103,0.9163,A
298,0.50116,0.1,2,0.38422,0.40093,0.7768,298,2.5058,-0.112,-0.05847,0.44269,5,2U1D,2,FALSE,0.905,32,TRUE,right,0,1.8268,2.1853,0.3585,0.3007,0.9681,0.6674,A
299,0.50116,0.1,2,0.44269,0.30905,0.86032,299,2.53085,-0.166,-0.08353,0.41763,5,2U1D,1,TRUE,0.158,32,FALSE,left,-0.16705,1.8801,2.2143,0.3341,0.4387,0.9382,0.4994,A
300,0.50116,1.2,1,0.34246,0.20046,0.6181,300,2.32204,0.316,0.1587,0.65986,5,2D1U,2,FALSE,0.435,24,FALSE,right,0.25058,0.2706,1.071,0.8005,1.4963,999,997.5037,A
301,0.50116,1.2,2,0.25893,0.35916,0.70162,301,2.50579,0.37,0.18376,0.68492,5,2D1U,2,TRUE,0.162,25,TRUE,right,0,1.5987,2.206,0.6073,0.1895,0.8322,0.6427,A
302,0.50116,1.2,2,0.33411,0.29234,0.59304,302,2.13828,-0.166,-0.08353,0.41763,5,2U1D,2,FALSE,1.148,32,FALSE,right,-0.16705,1.4797,1.822,0.3424,0.3464,0.8223,0.4758,A
303,0.50116,0.1,1,0.43434,0.3174,0.88538,303,2.53086,-0.22,-0.10858,0.39258,5,2U1D,2,TRUE,0.488,32,FALSE,right,0.25058,0.3481,0.9056,0.5575,1.5814,2.4982,0.9168,A
304,0.50116,0.1,2,0.20046,0.20046,0.89373,304,2.48073,0.37,0.18376,0.68492,5,2D1U,2,TRUE,0.224,25,TRUE,right,0,1.7598,2.3602,0.6004,0.1183,0.784,0.6657,A
305,0.50116,0.1,2,0.37587,0.38422,0.6181,305,2.53921,0.316,0.1587,0.65986,5,2D1U,2,TRUE,0.212,26,TRUE,right,-0.16705,1.577,2.1532,0.5762,0.3777,0.8771,0.4994,A
306,0.50116,1.2,1,0.35916,0.25893,0.60974,306,2.38885,0.316,0.1587,0.65986,5,2D1U,2,FALSE,0.533,26,TRUE,right,0.25058,0.289,1.0891,0.8001,1.5053,999,997.4947,A
307,0.50116,1.2,2,0.44269,0.29234,0.70998,307,2.33875,-0.22,-0.10858,0.39258,5,2U1D,1,TRUE,0.377,32,FALSE,left,0,1.7941,2.1107,0.3167,0.3767,1.0192,0.6424,A
308,0.50116,1.2,2,0.29234,0.40928,0.89373,308,2.78143,0.37,0.18376,0.68492,5,2D1U,2,TRUE,0.111,27,TRUE,right,-0.16705,1.7406,2.3487,0.6081,0.3073,0.7818,0.4746,A
309,0.50116,0.1,2,0.25893,0.35916,0.62645,309,2.16333,-0.166,-0.08353,0.41763,5,2U1D,1,TRUE,0.699,33,TRUE,left,0.25058,1.6742,2.0077,0.3335,0.0489,0.9658,0.9169,A
310,0.50116,0.1,2,0.30905,0.27564,0.46775,310,1.97123,-0.166,-0.08353,0.41763,5,2U1D,2,FALSE,0.117,33,TRUE,right,0,1.4386,1.7732,0.3346,0.2219,0.8894,0.6675,A
311,0.50116,0.1,1,0.43434,0.20046,0.40928,311,1.93782,-0.22,-0.10858,0.39258,5,2U1D,2,TRUE,0.113,34,TRUE,right,-0.16705,0.3464,0.9044,0.558,1.3126,1.8128,0.5002,A
312,0.50116,1.2,1,0.28399,0.28399,0.48445,312,2.23851,0.37,0.18376,0.68492,5,2D1U,2,FALSE,0.109,27,TRUE,right,0.25058,0.2152,1.0401,0.8249,1.3317,2.2238,0.892,A
313,0.50116,1.2,2,0.20046,0.40928,0.42599,313,2.24687,0.424,0.20882,0.70998,5,2D1U,2,TRUE,0.185,27,FALSE,right,0,1.2647,1.8983,0.6336,0.1315,0.7731,0.6415,A
314,0.50116,1.2,2,0.26729,0.21717,0.44269,314,1.82089,-0.22,-0.10858,0.39258,5,2U1D,1,TRUE,0.416,34,TRUE,left,-0.16705,1.2633,1.5796,0.3163,0.2795,0.7547,0.4751,A
315,0.50116,0.1,2,0.26729,0.21717,0.66821,315,2.36381,0.424,0.20882,0.70998,5,2D1U,2,TRUE,0.108,27,FALSE,right,0.25058,1.7257,2.3506,0.6249,0.0589,0.9757,0.9168,A
316,0.50116,0.1,2,0.39258,0.3007,0.81021,316,2.42228,-0.166,-0.08353,0.41763,5,2U1D,1,TRUE,0.304,35,TRUE,left,0,1.8642,2.1977,0.3336,0.3064,0.9729,0.6665,A
317,0.50116,0.1,1,0.33411,0.22552,0.44269,317,2.1884,0.37,0.18376,0.68492,5,2D1U,2,FALSE,0.438,28,TRUE,right,-0.16705,0.2518,1.1017,0.8499,1.5432,2.0434,0.5002,A
318,0.50116,1.2,1,0.42599,0.22552,0.66821,318,2.23851,-0.166,-0.08353,0.41763,5,2U1D,2,TRUE,0.107,35,TRUE,right,0.25058,0.3543,0.9125,0.5582,1.3875,999,997.6125,A
319,0.50116,1.2,1,0.22552,0.24223,0.69327,319,2.37216,0.424,0.20882,0.70998,5,2D1U,2,FALSE,0.259,29,TRUE,right,0,0.1557,1.006,0.8503,1.631,2.2725,0.6415,A
320,0.50116,1.2,2,0.22552,0.24223,0.60139,320,2.30533,0.478,0.24223,0.73503,5,2D1U,2,TRUE,0.55,29,FALSE,right,-0.16705,1.3802,2.0388,0.6586,0.2386,0.7137,0.4751,A
321,0.50116,0.1,2,0.37587,0.26729,0.83527,321,2.42228,-0.112,-0.05847,0.44269,5,2U1D,2,FALSE,0.416,35,FALSE,right,0.25058,1.9989,2.3574,0.3585,0.166,1.0825,0.9165,A
322,0.50116,0.1,2,0.23387,0.25058,0.40928,322,1.81252,-0.166,-0.08353,0.41763,5,2U1D,2,FALSE,0.457,36,TRUE,right,0,1.3099,1.6433,0.3334,0.1521,0.8184,0.6663,A
323,0.50116,0.1,2,0.37587,0.33411,0.74339,323,2.68956,0.478,0.24223,0.73503,5,2D1U,2,TRUE,0.454,29,FALSE,right,-0.16705,1.6971,2.3468,0.6497,0.3717,0.872,0.5003,A
324,0.50116,1.2,1,0.42599,0.43434,0.50951,324,2.58098,0.424,0.20882,0.70998,5,2D1U,2,FALSE,0.114,30,TRUE,right,0.25058,0.3555,1.2055,0.85,1.5218,2.4138,0.892,A
325,0.50116,1.2,1,0.36752,0.43434,0.73503,325,2.43063,-0.22,-0.10858,0.39258,5,2U1D,2,TRUE,0.114,36,FALSE,right,0,0.3019,0.8345,0.5326,1.5018,2.1435,0.6417,A
326,0.50116,1.2,2,0.45104,0.42599,0.65151,326,2.76473,0.478,0.24223,0.73503,5,2D1U,2,TRUE,0.111,31,TRUE,right,-0.16705,1.6569,2.3165,0.6596,0.4657,0.9404,0.4747,A
327,0.50116,0.1,2,0.25058,0.3007,0.50116,327,1.94618,-0.22,-0.10858,0.39258,5,2U1D,1,TRUE,0.258,36,FALSE,left,0.25058,1.5398,1.8484,0.3085,0.0398,0.9561,0.9163,A
328,0.50116,0.1,1,0.34246,0.22552,0.42599,328,1.91276,-0.166,-0.08353,0.41763,5,2U1D,2,TRUE,0.225,37,TRUE,right,0,0.2535,0.8375,0.5841,1.1785,1.8461,0.6675,A
329,0.50116,0.1,2,0.39258,0.36752,0.51786,329,2.19675,-0.166,-0.08353,0.41763,5,2U1D,1,TRUE,0.747,37,TRUE,left,-0.16705,1.4894,1.8219,0.3325,0.3893,0.8887,0.4995,A
330,0.50116,1.2,2,0.27564,0.41763,0.57633,330,2.50579,0.478,0.24223,0.73503,5,2D1U,2,TRUE,0.508,31,TRUE,right,0.25058,1.6182,2.2765,0.6583,0.0844,0.9758,0.8914,A
331,0.50116,1.2,1,0.43434,0.26729,0.75174,331,2.66451,0.424,0.20882,0.70998,5,2D1U,1,TRUE,0.597,32,TRUE,left,0,0.3615,1.2113,0.8497,1.895,2.5369,0.642,A
332,0.50116,1.2,2,0.25058,0.20882,0.88538,332,2.28863,-0.112,-0.05847,0.44269,5,2U1D,2,FALSE,0.24,37,FALSE,right,-0.16705,1.6876,2.055,0.3674,0.2628,0.7373,0.4745,A
333,0.50116,0.1,2,0.40928,0.29234,0.51786,333,2.43062,0.424,0.20882,0.70998,5,2D1U,2,TRUE,0.111,32,TRUE,right,0.25058,1.7186,2.3436,0.625,0.2025,1.1192,0.9167,A
334,0.50116,0.1,1,0.26729,0.40093,0.43434,334,2.28864,0.37,0.18376,0.68492,5,2D1U,1,TRUE,0.867,32,FALSE,left,0,0.1864,1.0362,0.8497,1.387,2.053,0.666,A
335,0.50116,0.1,2,0.32575,0.21717,0.82691,335,2.55591,0.37,0.18376,0.68492,5,2D1U,2,TRUE,0.174,32,FALSE,right,-0.16705,1.7351,2.3356,0.6005,0.3275,0.8272,0.4997,A
336,0.50116,1.2,1,0.35916,0.37587,0.69327,336,2.58932,0.316,0.1587,0.65986,5,2D1U,1,TRUE,2.021,32,FALSE,left,0.25058,0.2918,1.091,0.7991,1.5906,2.4822,0.8917,A
337,0.50116,1.2,1,0.35081,0.42599,0.40093,337,2.09652,-0.166,-0.08353,0.41763,5,2U1D,2,TRUE,0.113,38,TRUE,right,0,0.2858,0.8441,0.5582,1.1776,1.8189,0.6413,A
338,0.50116,1.2,2,0.42599,0.25893,0.74339,338,2.3471,-0.166,-0.08353,0.41763,5,2U1D,2,FALSE,0.484,38,TRUE,right,-0.16705,1.7216,2.0636,0.342,0.4377,0.9132,0.4755,A
339,0.50116,0.1,1,0.20046,0.45104,0.65151,339,2.46403,0.316,0.1587,0.65986,5,2D1U,1,TRUE,0.779,32,FALSE,left,0.25058,0.1125,0.9379,0.8254,1.379,2.296,0.917,A
340,0.50116,0.1,1,0.37587,0.22552,0.67657,340,2.1717,-0.22,-0.10858,0.39258,5,2U1D,2,TRUE,0.114,38,FALSE,right,0,0.295,0.8536,0.5586,1.4458,2.1132,0.6674,A
341,0.50116,0.1,1,0.25058,0.21717,0.76009,341,2.12158,-0.22,-0.10858,0.39258,5,2U1D,2,TRUE,0.109,38,FALSE,right,-0.16705,0.1661,0.7246,0.5585,1.4836,1.9827,0.4991,A
342,0.50116,1.2,2,0.35081,0.26729,0.67657,342,2.43063,0.262,0.13364,0.6348,5,2D1U,2,TRUE,0.2,32,FALSE,right,0.25058,1.7892,2.3476,0.5584,0.1564,1.0477,0.8913,A
343,0.50116,1.2,1,0.20046,0.40928,0.44269,343,2.18839,0.262,0.13364,0.6348,5,2D1U,2,FALSE,0.111,32,FALSE,right,0,0.1359,0.9102,0.7742,1.2862,1.9276,0.6415,A
344,0.50116,1.2,2,0.34246,0.26729,0.41763,344,2.1884,0.316,0.1587,0.65986,5,2D1U,2,TRUE,0.245,33,TRUE,right,-0.16705,1.3138,1.898,0.5842,0.3569,0.8314,0.4745,A
345,0.50116,0.1,1,0.40928,0.39258,0.60974,345,2.57262,0.316,0.1587,0.65986,5,2D1U,1,TRUE,1.132,33,TRUE,left,0.25058,0.3196,1.1445,0.8249,1.5445,2.4614,0.917,A
346,0.50116,0.1,1,0.30905,0.40093,0.89373,346,2.5225,-0.166,-0.08353,0.41763,5,2U1D,2,TRUE,0.111,39,TRUE,right,0,0.2215,0.8051,0.5835,1.6129,2.2799,0.6669,A
347,0.50116,0.1,1,0.35081,0.43434,0.40093,347,2.32204,0.262,0.13364,0.6348,5,2D1U,1,TRUE,0.49,34,TRUE,left,-0.16705,0.2694,1.0688,0.7994,1.4687,1.9687,0.5,A
348,0.50116,1.2,2,0.25893,0.40928,0.43434,348,2.02134,-0.166,-0.08353,0.41763,5,2U1D,1,TRUE,1.549,39,TRUE,left,0.25058,1.4553,1.7977,0.3424,0.0635,0.9563,0.8928,A
349,0.50116,1.2,2,0.40928,0.36752,0.51786,349,2.23851,-0.112,-0.05847,0.44269,5,2U1D,1,TRUE,0.53,39,FALSE,left,0,1.5616,1.9286,0.367,0.3376,0.9784,0.6409,A
350,0.50116,1.2,2,0.20882,0.26729,0.44269,350,2.05476,0.262,0.13364,0.6348,5,2D1U,2,TRUE,0.179,34,TRUE,right,-0.16705,1.2051,1.7623,0.5572,0.2208,0.6965,0.4757,A
351,0.50116,0.1,2,0.45104,0.26729,0.75174,351,2.41392,-0.112,-0.05847,0.44269,5,2U1D,1,TRUE,0.939,39,FALSE,left,0.25058,1.99,2.3489,0.3589,0.2399,1.1567,0.9168,A
352,0.50116,0.1,2,0.38422,0.40093,0.54292,352,2.43062,0.208,0.10023,0.60139,5,2D1U,2,TRUE,0.112,34,FALSE,right,0,1.588,2.1055,0.5176,0.2966,0.9634,0.6669,A
353,0.50116,0.1,2,0.3174,0.3007,0.58469,353,2.1717,-0.058,-0.02506,0.46775,5,2U1D,2,FALSE,0.237,39,FALSE,right,-0.16705,1.4807,1.8637,0.383,0.3133,0.8135,0.5002,A
354,0.50116,1.2,2,0.34246,0.37587,0.81856,354,2.63944,0.208,0.10023,0.60139,5,2D1U,2,TRUE,0.81,34,FALSE,right,0.25058,1.9197,2.4454,0.5257,0.1447,1.0364,0.8917,A
355,0.50116,1.2,1,0.36752,0.44269,0.6181,355,2.5058,0.154,0.07517,0.57633,5,2D1U,2,FALSE,0.112,34,FALSE,right,0,0.2961,1.0133,0.7171,1.5629,2.2046,0.6417,A
356,0.50116,1.2,1,0.21717,0.40093,0.71833,356,2.28028,-0.112,-0.05847,0.44269,5,2U1D,2,TRUE,0.158,40,TRUE,right,-0.16705,0.1501,0.7334,0.5834,1.4664,1.9421,0.4757,A
357,0.50116,0.1,2,0.42599,0.32575,0.67657,357,2.53086,0.208,0.10023,0.60139,5,2D1U,2,TRUE,0.15,35,TRUE,right,0.25058,1.8881,2.4055,0.5175,0.2138,1.1301,0.9163,A
358,0.50116,0.1,1,0.23387,0.25893,0.56798,358,2.00463,-0.112,-0.05847,0.44269,5,2U1D,2,TRUE,0.617,40,TRUE,right,0,0.1484,0.756,0.6077,1.2398,1.906,0.6661,A
359,0.50116,0.1,1,0.28399,0.40093,0.86032,359,2.51415,-0.058,-0.02506,0.46775,5,2U1D,2,TRUE,0.382,41,TRUE,right,-0.16705,0.2019,0.8347,0.6328,1.6935,2.1937,0.5002,A
360,0.50116,1.2,1,0.32575,0.30905,0.54292,360,2.28027,0.208,0.10023,0.60139,5,2D1U,1,TRUE,0.233,35,TRUE,left,0.25058,0.2565,0.9989,0.7424,1.3483,2.2407,0.8924,A
361,0.50116,1.2,2,0.29234,0.24223,0.68492,361,2.1884,-0.058,-0.02506,0.46775,5,2U1D,1,TRUE,0.71,41,TRUE,left,0,1.6189,2.0102,0.3913,0.2275,0.8682,0.6406,A
362,0.50116,1.2,1,0.43434,0.3007,0.57633,362,2.31369,-0.004,0,0.50116,5,2U1D,2,FALSE,0.25,41,FALSE,right,-0.16705,0.3624,1.0034,0.6411,1.5954,2.0702,0.4748,A
363,0.50116,0.1,2,0.34246,0.32575,0.86868,363,2.61438,0.154,0.07517,0.57633,5,2D1U,2,TRUE,0.206,36,TRUE,right,0.25058,1.9994,2.4902,0.4908,0.1324,1.0489,0.9164,A
364,0.50116,0.1,2,0.29234,0.20882,0.71833,364,2.1884,-0.058,-0.02506,0.46775,5,2U1D,2,FALSE,0.577,42,TRUE,right,0,1.6784,2.0621,0.3837,0.2122,0.8788,0.6665,A
365,0.50116,0.1,2,0.21717,0.24223,0.73503,365,2.27192,0.154,0.07517,0.57633,5,2D1U,2,TRUE,0.391,36,TRUE,right,-0.16705,1.5363,2.0278,0.4915,0.2193,0.7195,0.5001,A
366,0.50116,1.2,2,0.20046,0.3174,0.49281,366,1.95452,-0.112,-0.05847,0.44269,5,2U1D,2,FALSE,0.5,42,FALSE,right,0.25058,1.4545,1.8211,0.3666,0.004,0.8957,0.8917,A
367,0.50116,1.2,2,0.23387,0.20046,0.43434,367,1.78746,-0.166,-0.08353,0.41763,5,2U1D,2,FALSE,0.408,42,FALSE,right,0,1.3052,1.6467,0.3415,0.1634,0.8061,0.6427,A
368,0.50116,1.2,2,0.42599,0.34246,0.81856,368,2.48075,-0.22,-0.10858,0.39258,5,2U1D,2,FALSE,0.5,42,FALSE,right,-0.16705,1.7962,2.1136,0.3174,0.4381,0.9129,0.4748,A
369,0.50116,0.1,2,0.25893,0.27564,0.60974,369,2.19675,0.1,0.05012,0.55128,5,2D1U,2,TRUE,0.906,36,FALSE,right,0.25058,1.661,2.1279,0.467,0.0527,0.9701,0.9174,A
370,0.50116,0.1,2,0.3007,0.28399,0.70162,370,2.14663,-0.274,-0.13364,0.35916,5,2U1D,1,TRUE,0.108,42,FALSE,left,0,1.6627,1.938,0.2753,0.2123,0.8795,0.6671,A
371,0.50116,0.1,2,0.3007,0.38422,0.78515,371,2.52251,0.1,0.05012,0.55128,5,2D1U,2,TRUE,1.062,36,FALSE,right,-0.16705,1.6644,2.1316,0.4672,0.2988,0.7978,0.499,A
372,0.50116,1.2,1,0.33411,0.41763,0.4594,372,2.07146,-0.274,-0.13364,0.35916,5,2U1D,2,TRUE,0.349,42,FALSE,right,0.25058,0.2659,0.7654,0.4995,1.0318,1.9235,0.8917,A
373,0.50116,1.2,2,0.22552,0.30905,0.87703,373,2.43898,0.046,0.02506,0.52622,5,2D1U,2,TRUE,0.111,36,FALSE,right,0,1.7403,2.1898,0.4495,0.1563,0.7989,0.6425,A
374,0.50116,1.2,1,0.23387,0.42599,0.58469,374,2.13829,-0.22,-0.10858,0.39258,5,2U1D,2,TRUE,0.143,43,TRUE,right,-0.16705,0.1647,0.6978,0.5331,1.2977,1.7731,0.4754,A
375,0.50116,0.1,1,0.42599,0.32575,0.55128,375,2.19676,-0.22,-0.10858,0.39258,5,2U1D,2,TRUE,0.111,43,TRUE,right,0.25058,0.3378,0.8956,0.5578,1.2379,2.1543,0.9164,A
376,0.50116,0.1,1,0.40093,0.40093,0.88538,376,2.71462,0.046,0.02506,0.52622,5,2D1U,1,TRUE,0.542,36,FALSE,left,0,0.3139,1.0065,0.6926,1.8062,2.4722,0.6661,A
377,0.50116,0.1,2,0.21717,0.44269,0.55963,377,2.21346,-0.008,0,0.49281,5,2D1U,1,TRUE,2.558,36,FALSE,left,-0.16705,1.354,1.7619,0.4078,0.2119,0.7113,0.4994,A
378,0.50116,1.2,2,0.30905,0.24223,0.44269,378,1.91276,-0.166,-0.08353,0.41763,5,2U1D,2,FALSE,0.531,43,FALSE,right,0.25058,1.5194,1.8607,0.3412,0.1193,1.0113,0.892,A
379,0.50116,1.2,2,0.35916,0.44269,0.62645,379,2.32204,-0.22,-0.10858,0.39258,5,2U1D,2,FALSE,0.171,44,TRUE,right,0,1.6219,1.938,0.3161,0.2883,0.9295,0.6411,A
380,0.50116,1.2,1,0.37587,0.38422,0.62645,380,2.24686,-0.274,-0.13364,0.35916,5,2U1D,2,TRUE,0.99,44,FALSE,right,-0.16705,0.305,0.8056,0.5006,1.4477,1.9222,0.4745,A
381,0.50116,0.1,2,0.35916,0.40928,0.66821,381,2.29697,-0.274,-0.13364,0.35916,5,2U1D,1,TRUE,0.358,44,FALSE,left,0.25058,1.8144,2.0903,0.2759,0.1484,1.0644,0.916,A
382,0.50116,0.1,2,0.3174,0.27564,0.80186,382,2.38887,-0.008,0,0.49281,5,2D1U,2,FALSE,1.397,36,FALSE,right,0,1.7791,2.1879,0.4088,0.2297,0.8958,0.6661,A
383,0.50116,0.1,1,0.36752,0.23387,0.57633,383,2.07146,-0.22,-0.10858,0.39258,5,2U1D,2,TRUE,0.258,45,TRUE,right,-0.16705,0.2806,0.8384,0.5577,1.4141,1.9138,0.4997,A
384,0.50116,1.2,1,0.26729,0.32575,0.50116,384,1.98794,-0.22,-0.10858,0.39258,5,2U1D,2,TRUE,1.046,45,TRUE,right,0.25058,0.196,0.7295,0.5335,1.0376,1.93,0.8923,A
385,0.50116,1.2,2,0.26729,0.3007,0.76009,385,2.29699,-0.062,-0.03341,0.46775,5,2D1U,2,FALSE,0.738,37,TRUE,right,0,1.6648,2.0557,0.3909,0.1975,0.8389,0.6414,A
386,0.50116,1.2,1,0.26729,0.25058,0.57633,386,2.03805,-0.116,-0.05847,0.44269,5,2D1U,2,TRUE,0.357,37,FALSE,right,-0.16705,0.1977,0.7809,0.5832,1.3733,1.8476,0.4743,A
387,0.50116,0.1,1,0.37587,0.36752,0.90209,387,2.58933,-0.116,-0.05847,0.44269,5,2D1U,2,TRUE,0.222,37,FALSE,right,0.25058,0.2931,0.9008,0.6077,1.5931,2.5095,0.9164,A
388,0.50116,0.1,1,0.3007,0.36752,0.53457,388,2.12158,-0.166,-0.08353,0.41763,5,2U1D,2,TRUE,0.108,45,FALSE,right,0,0.2197,0.8026,0.5829,1.2526,1.9192,0.6666,A
389,0.50116,0.1,2,0.25893,0.25893,0.49281,389,1.92946,-0.166,-0.08353,0.41763,5,2U1D,2,FALSE,1.339,45,FALSE,right,-0.16705,1.3326,1.6664,0.3338,0.2576,0.7578,0.5003,A
390,0.50116,1.2,2,0.33411,0.21717,0.88538,390,2.40557,-0.062,-0.03341,0.46775,5,2D1U,2,FALSE,0.333,38,TRUE,right,0.25058,1.9833,2.3754,0.3921,0.1413,1.033,0.8917,A
391,0.50116,1.2,1,0.21717,0.36752,0.7935,391,2.27193,-0.22,-0.10858,0.39258,5,2U1D,2,TRUE,0.192,46,TRUE,right,0,0.1455,0.6793,0.5338,1.4046,2.0459,0.6413,A
392,0.50116,1.2,2,0.23387,0.35916,0.4761,392,1.96287,-0.22,-0.10858,0.39258,5,2U1D,2,FALSE,0.319,46,TRUE,right,-0.16705,1.2652,1.5815,0.3163,0.2479,0.723,0.4751,A
393,0.50116,0.1,1,0.24223,0.35916,0.64315,393,2.10486,-0.274,-0.13364,0.35916,5,2U1D,2,TRUE,0.353,46,FALSE,right,0.25058,0.1551,0.6799,0.5248,1.1137,2.0302,0.9165,A
394,0.50116,0.1,2,0.42599,0.43434,0.50951,394,2.31369,-0.116,-0.05847,0.44269,5,2D1U,1,TRUE,1.125,39,TRUE,left,0,1.6022,1.9614,0.3592,0.345,1.0106,0.6656,A
395,0.50116,0.1,1,0.3174,0.3174,0.50951,395,2.08816,-0.116,-0.05847,0.44269,5,2D1U,2,TRUE,0.174,39,TRUE,right,-0.16705,0.2297,0.8386,0.6089,1.3469,1.847,0.5002,A
396,0.50116,1.2,1,0.26729,0.42599,0.68492,396,2.34711,-0.062,-0.03341,0.46775,5,2D1U,1,FALSE,1.829,40,TRUE,left,0.25058,0.2011,0.8097,0.6085,1.3011,2.1925,0.8914,A
397,0.50116,1.2,2,0.25893,0.23387,0.7935,397,2.14662,-0.274,-0.13364,0.35916,5,2U1D,2,FALSE,0.357,46,FALSE,right,0,1.6892,1.9719,0.2827,0.1886,0.8305,0.642,A
398,0.50116,1.2,2,0.32575,0.41763,0.76009,398,2.33874,-0.328,-0.16705,0.33411,5,2U1D,1,TRUE,0.235,46,FALSE,left,-0.16705,1.6373,1.8957,0.2584,0.3368,0.8124,0.4756,A
399,0.50116,0.1,1,0.20046,0.40093,0.89373,399,2.33039,-0.328,-0.16705,0.33411,5,2U1D,2,TRUE,0.164,46,FALSE,right,0.25058,0.1148,0.6143,0.4995,1.2976,2.2149,0.9174,A
400,0.50116,0.1,1,0.40928,0.43434,0.86032,400,2.64779,-0.116,-0.05847,0.44269,5,2D1U,2,TRUE,0.179,41,TRUE,right,0,0.3239,0.9326,0.6087,1.7071,2.3742,0.6671,A
401,0.50116,0.1,2,0.25058,0.28399,0.70998,401,2.10487,-0.274,-0.13364,0.35916,5,2U1D,1,TRUE,0.858,47,TRUE,left,-0.16705,1.5427,1.8186,0.2759,0.2517,0.7512,0.4995,A
402,0.50116,1.2,2,0.29234,0.37587,0.59304,402,2.2051,-0.116,-0.05847,0.44269,5,2D1U,2,FALSE,0.193,41,TRUE,right,0.25058,1.6518,2.0183,0.3665,0.1018,0.9931,0.8913,A
403,0.50116,1.2,1,0.24223,0.29234,0.76844,403,2.2218,-0.17,-0.08353,0.41763,5,2D1U,2,TRUE,0.232,41,FALSE,right,0,0.1696,0.728,0.5583,1.428,2.0698,0.6417,A
404,0.50116,1.2,2,0.28399,0.3007,0.81021,404,2.25522,-0.274,-0.13364,0.35916,5,2U1D,1,TRUE,0.348,47,TRUE,left,-0.16705,1.6468,1.9291,0.2823,0.2965,0.7709,0.4745,A
405,0.50116,0.1,2,0.25058,0.25058,0.60139,405,2.02134,-0.17,-0.08353,0.41763,5,2D1U,1,TRUE,2.476,41,FALSE,left,0.25058,1.6439,1.9771,0.3331,0.0443,0.9604,0.9161,A
406,0.50116,0.1,2,0.30905,0.35916,0.48445,406,2.0464,-0.22,-0.10858,0.39258,5,2U1D,1,TRUE,0.7,47,FALSE,left,0,1.4562,1.7645,0.3082,0.2227,0.8896,0.6669,A
407,0.50116,0.1,1,0.34246,0.34246,0.78515,407,2.41392,-0.116,-0.05847,0.44269,5,2D1U,2,TRUE,0.11,42,TRUE,right,-0.16705,0.2578,0.8659,0.6081,1.6502,2.1496,0.4994,A
408,0.50116,1.2,2,0.27564,0.22552,0.66821,408,2.06311,-0.22,-0.10858,0.39258,5,2U1D,1,TRUE,0.501,47,FALSE,left,0.25058,1.7057,2.0223,0.3165,0.0802,0.9718,0.8916,A
409,0.50116,1.2,1,0.32575,0.35916,0.89373,409,2.52249,-0.116,-0.05847,0.44269,5,2D1U,2,TRUE,0.109,42,TRUE,right,0,0.2617,0.8453,0.5836,1.6697,2.3116,0.6419,A
410,0.50116,1.2,1,0.38422,0.35081,0.7768,410,2.43062,-0.166,-0.08353,0.41763,5,2U1D,2,TRUE,0.108,47,FALSE,right,-0.16705,0.32,0.8775,0.5574,1.6694,2.1453,0.4759,A
411,0.50116,0.1,1,0.30905,0.44269,0.87703,411,2.59768,-0.062,-0.03341,0.46775,5,2D1U,2,TRUE,0.645,42,FALSE,right,0.25058,0.2239,0.8563,0.6324,1.5233,2.4402,0.9168,A
412,0.50116,0.1,1,0.33411,0.20882,0.62645,412,2.08817,-0.166,-0.08353,0.41763,5,2U1D,2,TRUE,0.202,47,FALSE,right,0,0.2512,0.8353,0.5842,1.3764,2.0431,0.6667,A
413,0.50116,0.1,2,0.35081,0.21717,0.66821,413,2.2051,-0.062,-0.03341,0.46775,5,2D1U,1,TRUE,0.767,42,FALSE,left,-0.16705,1.6014,1.9854,0.384,0.3518,0.8514,0.4996,A
414,0.50116,1.2,1,0.30905,0.37587,0.55963,414,2.1884,-0.112,-0.05847,0.44269,5,2U1D,2,TRUE,0.52,47,FALSE,right,0.25058,0.2451,0.8281,0.583,1.1942,2.0863,0.8921,A
415,0.50116,1.2,1,0.36752,0.41763,0.78515,415,2.56427,-0.008,0,0.49281,5,2D1U,1,FALSE,0.13,42,FALSE,left,0,0.2957,0.9304,0.6347,1.6466,2.2873,0.6407,A
416,0.50116,1.2,2,0.35081,0.39258,0.62645,416,2.31369,-0.112,-0.05847,0.44269,5,2U1D,1,TRUE,0.521,47,FALSE,left,-0.16705,1.5356,1.903,0.3674,0.369,0.8447,0.4757,A
417,0.50116,0.1,1,0.23387,0.3007,0.55963,417,2.06311,-0.062,-0.03341,0.46775,5,2D1U,2,TRUE,0.134,43,TRUE,right,0.25058,0.1526,0.7866,0.634,1.1361,2.0537,0.9176,A
418,0.50116,0.1,2,0.38422,0.41763,0.87703,418,2.64779,-0.062,-0.03341,0.46775,5,2D1U,2,FALSE,0.532,43,TRUE,right,0,1.9211,2.305,0.3838,0.2969,0.9626,0.6658,A
419,0.50116,0.1,2,0.23387,0.38422,0.81021,419,2.37215,-0.116,-0.05847,0.44269,5,2D1U,2,FALSE,0.19,43,FALSE,right,-0.16705,1.6245,1.9829,0.3584,0.2324,0.7326,0.5002,A
420,0.50116,1.2,1,0.41763,0.43434,0.69327,420,2.46403,-0.17,-0.08353,0.41763,5,2D1U,2,TRUE,0.11,43,FALSE,right,0.25058,0.3457,0.9039,0.5582,1.404,2.2959,0.892,A
421,0.50116,1.2,2,0.3007,0.3174,0.78515,421,2.37216,-0.058,-0.02506,0.46775,5,2U1D,1,TRUE,0.305,47,FALSE,left,0,1.723,2.1135,0.3905,0.2314,0.8722,0.6407,A
422,0.50116,1.2,2,0.40928,0.25893,0.55128,422,2.13828,-0.17,-0.08353,0.41763,5,2D1U,2,FALSE,0.263,43,FALSE,right,-0.16705,1.5161,1.8583,0.3422,0.4257,0.9001,0.4744,A
423,0.50116,0.1,2,0.20882,0.34246,0.6181,423,2.05476,-0.224,-0.10858,0.38422,5,2D1U,1,TRUE,1.443,43,FALSE,left,0.25058,1.6146,1.9148,0.3002,0.0029,0.915,0.9121,A
424,0.50116,0.1,2,0.39258,0.40093,0.89373,424,2.65615,-0.058,-0.02506,0.46775,5,2U1D,2,FALSE,0.423,47,FALSE,right,0,1.9505,2.3342,0.3838,0.3091,0.9759,0.6668,A
425,0.50116,0.1,1,0.45104,0.34246,0.55963,425,2.29698,-0.112,-0.05847,0.44269,5,2U1D,2,TRUE,0.315,48,TRUE,right,-0.16705,0.3692,0.9772,0.608,1.5357,2.0355,0.4998,A
426,0.50116,1.2,1,0.28399,0.3174,0.46775,426,1.95452,-0.224,-0.10858,0.38422,5,2D1U,2,TRUE,0.451,43,FALSE,right,0.25058,0.2125,0.738,0.5255,1.0129,1.9049,0.892,A
427,0.50116,1.2,2,0.35081,0.39258,0.56798,427,2.25522,-0.112,-0.05847,0.44269,5,2U1D,1,TRUE,0.129,48,TRUE,left,0,1.5609,1.9279,0.367,0.2865,0.9273,0.6408,A
428,0.50116,1.2,1,0.41763,0.30905,0.70162,428,2.34709,-0.17,-0.08353,0.41763,5,2D1U,2,TRUE,0.27,44,TRUE,right,-0.16705,0.3528,0.9105,0.5577,1.6278,2.1033,0.4755,A
429,0.50116,0.1,1,0.42599,0.27564,0.6348,429,2.25522,-0.17,-0.08353,0.41763,5,2D1U,2,TRUE,0.337,44,TRUE,right,0.25058,0.3384,0.9223,0.5839,1.3474,2.2635,0.9162,A
430,0.50116,0.1,1,0.3007,0.24223,0.50116,430,2.013,-0.058,-0.02506,0.46775,5,2U1D,2,TRUE,0.276,49,TRUE,right,0,0.2162,0.8493,0.6331,1.2669,1.9331,0.6662,A
431,0.50116,0.1,1,0.22552,0.30905,0.4594,431,1.93782,-0.116,-0.05847,0.44269,5,2D1U,2,TRUE,0.165,44,FALSE,right,-0.16705,0.1446,0.7528,0.6082,1.2111,1.7107,0.4996,A
432,0.50116,1.2,1,0.27564,0.3007,0.44269,432,1.96288,-0.116,-0.05847,0.44269,5,2D1U,2,TRUE,0.267,44,FALSE,right,0.25058,0.2081,0.7913,0.5832,1.041,1.9332,0.8922,A
433,0.50116,1.2,1,0.24223,0.20882,0.41763,433,1.83759,-0.058,-0.02506,0.46775,5,2U1D,2,TRUE,0.359,49,TRUE,right,0,0.1765,0.7841,0.6076,1.1348,1.7763,0.6416,A
434,0.50116,1.2,1,0.20046,0.28399,0.75174,434,2.2051,-0.062,-0.03341,0.46775,5,2D1U,1,FALSE,0.844,44,FALSE,left,-0.16705,0.1312,0.7393,0.608,1.5054,1.9803,0.4749,A
435,0.50116,0.1,2,0.33411,0.36752,0.65986,435,2.30534,-0.116,-0.05847,0.44269,5,2D1U,1,TRUE,0.249,45,TRUE,left,0.25058,1.7855,2.1445,0.359,0.1279,1.0444,0.9164,A
436,0.50116,0.1,2,0.28399,0.28399,0.49281,436,2.06311,-0.004,0,0.50116,5,2U1D,1,FALSE,1.644,49,FALSE,left,0,1.44,1.8559,0.4158,0.1976,0.8644,0.6668,A
437,0.50116,0.1,2,0.24223,0.24223,0.4761,437,1.92947,-0.058,-0.02506,0.46775,5,2U1D,1,TRUE,1.123,50,TRUE,left,-0.16705,1.2965,1.6798,0.3833,0.2383,0.7381,0.4998,A
438,0.50116,1.2,1,0.38422,0.27564,0.60139,438,2.2051,-0.116,-0.05847,0.44269,5,2D1U,1,FALSE,1.151,45,TRUE,left,0.25058,0.3151,0.8986,0.5835,1.3068,2.1982,0.8914,A
439,0.50116,1.2,2,0.35916,0.33411,0.57633,439,2.23851,-0.058,-0.02506,0.46775,5,2U1D,1,TRUE,4.536,50,TRUE,left,0,1.5764,1.9681,0.3917,0.2932,0.9348,0.6416,A
440,0.50116,1.2,2,0.41763,0.27564,0.7935,440,2.40556,-0.17,-0.08353,0.41763,5,2D1U,1,TRUE,1.067,45,FALSE,left,-0.16705,1.7686,2.1102,0.3415,0.4356,0.9102,0.4745,A
441,0.50116,0.1,2,0.42599,0.3174,0.62645,441,2.28863,-0.17,-0.08353,0.41763,5,2D1U,2,FALSE,1.076,45,FALSE,right,0.25058,1.844,2.1771,0.3331,0.2191,1.1356,0.9166,A
442,0.50116,0.1,2,0.38422,0.35916,0.76009,442,2.50579,-0.004,0,0.50116,5,2U1D,2,FALSE,0.596,51,TRUE,right,0,1.8066,2.2234,0.4168,0.2985,0.9652,0.6667,A
443,0.50116,0.1,1,0.24223,0.40928,0.87703,443,2.49745,-0.058,-0.02506,0.46775,5,2U1D,1,FALSE,0.922,52,TRUE,left,-0.16705,0.1563,0.7893,0.633,1.6653,2.1647,0.4994,A
444,0.50116,1.2,1,0.3174,0.42599,0.7935,444,2.42227,-0.224,-0.10858,0.38422,5,2D1U,2,TRUE,0.148,45,FALSE,right,0.25058,0.2527,0.7783,0.5256,1.3776,2.2696,0.892,A
445,0.50116,1.2,2,0.23387,0.33411,0.88538,445,2.39721,-0.112,-0.05847,0.44269,5,2U1D,2,FALSE,0.63,52,FALSE,right,0,1.7619,2.1284,0.3665,0.1692,0.8111,0.6419,A
446,0.50116,1.2,1,0.44269,0.3174,0.84362,446,2.5225,-0.166,-0.08353,0.41763,5,2U1D,2,TRUE,0.112,52,FALSE,right,-0.16705,0.3735,0.932,0.5585,1.7904,2.2656,0.4753,A
447,0.50116,0.1,1,0.3174,0.20882,0.41763,447,1.86264,-0.166,-0.08353,0.41763,5,2U1D,2,TRUE,0.234,52,FALSE,right,0.25058,0.236,0.82,0.584,1.0275,999,997.9725,A
448,0.50116,0.1,1,0.26729,0.3007,0.80186,448,2.25523,-0.224,-0.10858,0.38422,5,2D1U,2,TRUE,0.363,45,FALSE,right,0,0.1851,0.7343,0.5492,1.452,2.1184,0.6664,A
449,0.50116,0.1,2,0.26729,0.27564,0.4594,449,1.92112,-0.17,-0.08353,0.41763,5,2D1U,1,TRUE,0.307,46,TRUE,left,-0.16705,1.3106,1.6437,0.333,0.2679,0.7683,0.5003,A
450,0.50116,1.2,1,0.22552,0.22552,0.7935,450,2.16333,-0.17,-0.08353,0.41763,5,2D1U,2,TRUE,0.154,46,TRUE,right,0.25058,0.1611,0.7196,0.5584,1.3194,999,997.6806,A
451,0.50116,1.2,1,0.3007,0.3007,0.85197,451,2.39722,-0.112,-0.05847,0.44269,5,2U1D,2,TRUE,0.203,53,TRUE,right,0,0.2308,0.8134,0.5827,1.5967,2.2394,0.6426,A
452,0.50116,1.2,1,0.36752,0.38422,0.48445,452,2.18004,-0.116,-0.05847,0.44269,5,2D1U,2,TRUE,0.59,46,FALSE,right,-0.16705,0.2951,0.8785,0.5834,1.3793,1.8532,0.4739,A
453,0.50116,0.1,2,0.29234,0.20882,0.68492,453,2.12993,-0.116,-0.05847,0.44269,5,2D1U,1,TRUE,0.289,46,FALSE,left,0.25058,1.7642,2.1233,0.3591,0.0809,0.9973,0.9164,A
454,0.50116,0.1,2,0.22552,0.20882,0.57633,454,1.95452,-0.112,-0.05847,0.44269,5,2U1D,1,TRUE,0.446,53,TRUE,left,0,1.4633,1.8209,0.3576,0.1376,0.8054,0.6678,A
455,0.50116,0.1,2,0.41763,0.23387,0.41763,455,2.03804,-0.062,-0.03341,0.46775,5,2D1U,2,FALSE,0.148,46,FALSE,right,-0.16705,1.4189,1.8027,0.3838,0.4188,0.9193,0.5005,A
456,0.50116,1.2,1,0.39258,0.40928,0.67657,456,2.44734,-0.058,-0.02506,0.46775,5,2U1D,2,TRUE,1.32,53,FALSE,right,0.25058,0.3267,0.9347,0.6079,1.4185,2.3104,0.8919,A
457,0.50116,1.2,2,0.23387,0.30905,0.70162,457,2.18839,-0.116,-0.05847,0.44269,5,2D1U,2,FALSE,0.296,47,TRUE,right,0,1.5728,1.9383,0.3655,0.1651,0.8055,0.6404,A
458,0.50116,1.2,2,0.32575,0.25058,0.85197,458,2.34709,-0.17,-0.08353,0.41763,5,2D1U,1,TRUE,2.505,47,FALSE,left,-0.16705,1.7325,2.0732,0.3407,0.3402,0.8148,0.4745,A
459,0.50116,0.1,2,0.32575,0.26729,0.65151,459,2.21346,-0.058,-0.02506,0.46775,5,2U1D,1,TRUE,0.182,53,FALSE,left,0.25058,1.7684,2.1519,0.3835,0.1181,1.0349,0.9168,A
460,0.50116,0.1,2,0.40928,0.23387,0.70162,460,2.34709,-0.004,0,0.50116,5,2U1D,1,FALSE,0.424,53,FALSE,left,0,1.7779,2.1941,0.4162,0.3275,0.9941,0.6666,A
461,0.50116,0.1,1,0.20882,0.38422,0.41763,461,1.92946,-0.17,-0.08353,0.41763,5,2D1U,2,TRUE,1.24,47,FALSE,right,-0.16705,0.1268,0.7099,0.5831,1.1266,1.6265,0.4999,A
462,0.50116,1.2,2,0.23387,0.22552,0.44269,462,1.84593,-0.116,-0.05847,0.44269,5,2D1U,1,TRUE,0.316,48,TRUE,left,0.25058,1.4366,1.8035,0.3669,0.0361,0.928,0.8919,A
463,0.50116,1.2,2,0.22552,0.29234,0.64315,463,2.12992,-0.058,-0.02506,0.46775,5,2U1D,2,FALSE,1.192,54,TRUE,right,0,1.5074,1.8991,0.3917,0.1578,0.7991,0.6413,A
464,0.50116,1.2,1,0.35916,0.3007,0.58469,464,2.1884,-0.116,-0.05847,0.44269,5,2D1U,2,TRUE,0.11,48,TRUE,right,-0.16705,0.2927,0.8756,0.5829,1.476,1.9506,0.4747,A
465,0.50116,0.1,1,0.42599,0.24223,0.52622,465,2.13829,-0.112,-0.05847,0.44269,5,2U1D,1,FALSE,0.816,54,FALSE,left,0.25058,0.3426,0.9511,0.6085,1.2674,999,997.7326,A
466,0.50116,0.1,2,0.45104,0.29234,0.75174,466,2.41391,-0.166,-0.08353,0.41763,5,2U1D,1,TRUE,0.9,54,FALSE,left,0,1.8621,2.1949,0.3327,0.3619,1.0282,0.6663,A
467,0.50116,0.1,1,0.20882,0.32575,0.55128,467,2.05476,-0.062,-0.03341,0.46775,5,2D1U,2,TRUE,0.112,48,FALSE,right,-0.16705,0.1273,0.7604,0.6332,1.3098,1.8102,0.5003,A
468,0.50116,1.2,2,0.3174,0.40928,0.48445,468,2.12992,-0.166,-0.08353,0.41763,5,2U1D,1,TRUE,0.11,54,FALSE,left,0.25058,1.5679,1.9094,0.3416,0.1257,1.0176,0.8919,A
469,0.50116,1.2,2,0.30905,0.35916,0.55963,469,2.19675,-0.062,-0.03341,0.46775,5,2D1U,1,TRUE,0.112,48,FALSE,left,0,1.5095,1.9015,0.392,0.2424,0.8845,0.6421,A
470,0.50116,1.2,1,0.30905,0.44269,0.42599,470,2.1717,-0.008,0,0.49281,5,2D1U,2,TRUE,0.654,48,FALSE,right,-0.16705,0.2377,0.8708,0.6332,1.3123,1.7875,0.4751,A
471,0.50116,0.1,1,0.35916,0.40093,0.80186,471,2.55592,-0.008,0,0.49281,5,2D1U,2,TRUE,0.444,48,FALSE,right,0.25058,0.2717,0.9305,0.6588,1.522,2.4382,0.9162,A
472,0.50116,0.1,2,0.30905,0.26729,0.75174,472,2.27193,-0.112,-0.05847,0.44269,5,2U1D,2,FALSE,0.179,55,TRUE,right,0,1.726,2.0839,0.3579,0.2262,0.8926,0.6664,A
473,0.50116,0.1,1,0.24223,0.32575,0.84362,473,2.43898,0.046,0.02506,0.52622,5,2D1U,2,FALSE,0.109,48,FALSE,right,-0.16705,0.1552,0.8468,0.6917,1.6881,2.1885,0.5004,A
474,0.50116,1.2,1,0.38422,0.41763,0.6181,474,2.33874,-0.166,-0.08353,0.41763,5,2U1D,2,TRUE,0.166,56,TRUE,right,0.25058,0.3183,0.8773,0.5589,1.3017,2.1933,0.8915,A
475,0.50116,1.2,1,0.3007,0.24223,0.55128,475,2.14665,0.1,0.05012,0.55128,5,2D1U,2,FALSE,0.132,49,TRUE,right,0,0.2297,0.9216,0.6919,1.4048,2.0464,0.6416,A
476,0.50116,1.2,1,0.40928,0.26729,0.74339,476,2.33875,-0.166,-0.08353,0.41763,5,2U1D,1,FALSE,0.587,56,TRUE,left,-0.16705,0.3403,0.8986,0.5583,1.657,2.1323,0.4753,A
477,0.50116,0.1,2,0.35081,0.22552,0.45104,477,1.92111,-0.22,-0.10858,0.39258,5,2U1D,1,TRUE,0.359,56,FALSE,left,0.25058,1.5885,1.898,0.3095,0.1391,1.0558,0.9167,A
478,0.50116,0.1,2,0.29234,0.35081,0.60139,478,2.32203,0.154,0.07517,0.57633,5,2D1U,2,TRUE,0.205,49,FALSE,right,0,1.5596,2.0506,0.491,0.209,0.8758,0.6668,A
479,0.50116,0.1,2,0.32575,0.28399,0.46775,479,1.97123,-0.22,-0.10858,0.39258,5,2U1D,1,TRUE,1.133,56,FALSE,left,-0.16705,1.3726,1.6812,0.3086,0.3227,0.8233,0.5006,A
480,0.50116,1.2,2,0.22552,0.29234,0.86868,480,2.46403,0.154,0.07517,0.57633,5,2D1U,1,FALSE,3.051,49,FALSE,left,0.25058,1.8579,2.3566,0.4988,0.0313,0.9238,0.8924,A
481,0.50116,1.2,1,0.35081,0.29234,0.78515,481,2.34709,-0.166,-0.08353,0.41763,5,2U1D,2,TRUE,0.949,57,TRUE,right,0,0.2799,0.8372,0.5573,1.5539,2.1958,0.6419,A
482,0.50116,1.2,1,0.44269,0.29234,0.45104,482,2.28862,0.208,0.10023,0.60139,5,2D1U,1,TRUE,0.127,49,FALSE,left,-0.16705,0.3709,1.1127,0.7418,1.5794,2.0544,0.475,A
483,0.50116,0.1,1,0.33411,0.44269,0.83527,483,2.71462,0.208,0.10023,0.60139,5,2D1U,1,TRUE,0.141,49,FALSE,left,0.25058,0.2457,1.0124,0.7667,1.6374,2.5541,0.9167,A
484,0.50116,0.1,1,0.26729,0.38422,0.43434,484,2.00464,-0.166,-0.08353,0.41763,5,2U1D,2,TRUE,0.449,57,TRUE,right,0,0.1847,0.7686,0.5839,1.1178,1.785,0.6672,A
485,0.50116,0.1,1,0.26729,0.32575,0.59304,485,2.12993,-0.112,-0.05847,0.44269,5,2U1D,1,FALSE,1.291,57,FALSE,left,-0.16705,0.1821,0.7906,0.6085,1.3817,1.8819,0.5002,A
486,0.50116,1.2,2,0.34246,0.3007,0.75174,486,2.47239,0.154,0.07517,0.57633,5,2D1U,2,TRUE,0.245,50,TRUE,right,0.25058,1.8608,2.3612,0.5004,0.1528,1.0444,0.8916,A
487,0.50116,1.2,1,0.3007,0.30905,0.7768,487,2.46404,0.154,0.07517,0.57633,5,2D1U,1,TRUE,0.675,50,TRUE,left,0,0.2358,0.9524,0.7166,1.6606,2.3022,0.6417,A
488,0.50116,1.2,2,0.34246,0.41763,0.50951,488,2.18839,-0.166,-0.08353,0.41763,5,2U1D,2,FALSE,0.114,58,TRUE,right,-0.16705,1.4039,1.7453,0.3415,0.3534,0.8282,0.4747,A
489,0.50116,0.1,2,0.37587,0.25058,0.88538,489,2.56427,0.1,0.05012,0.55128,5,2D1U,2,TRUE,0.849,50,FALSE,right,0.25058,2.0481,2.515,0.4669,0.1655,1.0813,0.9158,A
490,0.50116,0.1,1,0.28399,0.33411,0.55128,490,2.22182,0.1,0.05012,0.55128,5,2D1U,2,FALSE,0.23,50,FALSE,right,0,0.1963,0.913,0.7166,1.3797,2.0465,0.6668,A
491,0.50116,0.1,1,0.35081,0.43434,0.68492,491,2.36381,-0.22,-0.10858,0.39258,5,2U1D,1,FALSE,0.246,58,FALSE,left,-0.16705,0.2678,0.826,0.5582,1.51,2.0094,0.4994,A
492,0.50116,1.2,1,0.28399,0.26729,0.46775,492,2.09652,0.154,0.07517,0.57633,5,2D1U,2,FALSE,0.92,51,TRUE,right,0.25058,0.2131,0.9298,0.7167,1.2048,2.0964,0.8916,A
493,0.50116,1.2,1,0.24223,0.21717,0.80186,493,2.12158,-0.274,-0.13364,0.35916,5,2U1D,2,TRUE,0.2,58,FALSE,right,0,0.1769,0.6764,0.4995,1.4105,2.0521,0.6415,A
494,0.50116,1.2,1,0.43434,0.38422,0.43434,494,2.35545,0.208,0.10023,0.60139,5,2D1U,1,TRUE,0.109,51,FALSE,left,-0.16705,0.3637,1.1054,0.7417,1.5557,2.0305,0.4747,A
495,0.50116,0.1,1,0.41763,0.35081,0.41763,495,2.04639,-0.274,-0.13364,0.35916,5,2U1D,2,TRUE,0.525,58,FALSE,right,0.25058,0.3337,0.8595,0.5258,1.0678,1.9845,0.9167,A
496,0.50116,0.1,2,0.44269,0.42599,0.72668,496,2.69791,0.208,0.10023,0.60139,5,2D1U,1,FALSE,0.884,51,FALSE,left,0,1.8351,2.3515,0.5163,0.3597,1.0272,0.6675,A
497,0.50116,0.1,1,0.25058,0.42599,0.69327,497,2.26358,-0.22,-0.10858,0.39258,5,2U1D,2,TRUE,1.497,59,TRUE,right,-0.16705,0.1641,0.7227,0.5586,1.4138,1.9137,0.4999,A
498,0.50116,1.2,2,0.40093,0.24223,0.49281,498,2.27193,0.262,0.13364,0.6348,5,2D1U,1,FALSE,2.225,51,FALSE,left,0.25058,1.6558,2.2142,0.5584,0.2068,1.0976,0.8909,A
499,0.50116,1.2,2,0.36752,0.43434,0.57633,499,2.27193,-0.22,-0.10858,0.39258,5,2U1D,2,FALSE,1.725,59,TRUE,right,0,1.583,1.9001,0.3171,0.2996,0.9417,0.6421,A
500,0.50116,1.2,1,0.3007,0.32575,0.49281,500,2.28028,0.316,0.1587,0.65986,5,2D1U,1,TRUE,0.425,51,FALSE,left,-0.16705,0.2292,1.0295,0.8003,1.5376,2.0126,0.475,A
501,0.50116,0.1,1,0.22552,0.34246,0.40928,501,1.83758,-0.274,-0.13364,0.35916,5,2U1D,2,TRUE,0.211,60,TRUE,right,0.25058,0.1381,0.6637,0.5256,0.8631,1.78,0.9169,A
502,0.50116,0.1,2,0.45104,0.34246,0.65986,502,2.61438,0.316,0.1587,0.65986,5,2D1U,2,TRUE,0.111,51,FALSE,right,0,1.7771,2.3525,0.5753,0.3691,1.035,0.6659,A
503,0.50116,0.1,2,0.38422,0.38422,0.81856,503,2.44732,-0.274,-0.13364,0.35916,5,2U1D,1,TRUE,0.603,60,TRUE,left,-0.16705,1.7798,2.0556,0.2759,0.3801,0.8797,0.4996,A
504,0.50116,1.2,2,0.42599,0.32575,0.70998,504,2.59768,0.262,0.13364,0.6348,5,2D1U,1,FALSE,1.302,52,TRUE,left,0.25058,1.8954,2.4538,0.5584,0.2287,1.1207,0.892,A
505,0.50116,1.2,1,0.41763,0.25058,0.75174,505,2.31369,-0.22,-0.10858,0.39258,5,2U1D,2,TRUE,2.085,61,TRUE,right,0,0.3467,0.8806,0.5339,1.5636,2.2048,0.6411,A
506,0.50116,1.2,1,0.42599,0.34246,0.4761,506,2.40557,0.316,0.1587,0.65986,5,2D1U,1,TRUE,2.3,53,TRUE,left,-0.16705,0.3553,1.1563,0.8009,1.6475,2.1232,0.4757,A
507,0.50116,0.1,2,0.40928,0.26729,0.48445,507,2.32204,0.316,0.1587,0.65986,5,2D1U,2,TRUE,1.416,53,TRUE,right,0.25058,1.6798,2.2543,0.5745,0.1963,1.113,0.9166,A
508,0.50116,0.1,1,0.21717,0.23387,0.51786,508,1.86264,-0.22,-0.10858,0.39258,5,2U1D,1,FALSE,0.353,61,TRUE,left,0,0.1314,0.6904,0.5589,1.1232,1.7905,0.6673,A
509,0.50116,0.1,1,0.36752,0.32575,0.80186,509,2.63109,0.262,0.13364,0.6348,5,2D1U,1,TRUE,0.196,54,TRUE,left,-0.16705,0.2827,1.0828,0.8001,1.8822,2.383,0.5008,A
510,0.50116,1.2,2,0.45104,0.44269,0.86032,510,2.89001,0.262,0.13364,0.6348,5,2D1U,1,FALSE,0.484,54,TRUE,left,0.25058,2.0743,2.6326,0.5583,0.2578,1.1493,0.8915,A
511,0.50116,1.2,2,0.22552,0.20046,0.57633,511,1.86263,-0.274,-0.13364,0.35916,5,2U1D,1,TRUE,1.358,62,TRUE,left,0,1.4406,1.7244,0.2838,0.1572,0.7997,0.6425,A
512,0.50116,1.2,1,0.28399,0.40928,0.50116,512,2.35545,0.316,0.1587,0.65986,5,2D1U,2,FALSE,0.535,55,TRUE,right,-0.16705,0.2134,1.0134,0.8,1.5298,2.0055,0.4757,A
513,0.50116,0.1,2,0.3007,0.43434,0.67657,513,2.27193,-0.274,-0.13364,0.35916,5,2U1D,2,FALSE,1.259,62,TRUE,right,0.25058,1.7679,2.0435,0.2756,0.0932,1.0101,0.9169,A
514,0.50116,0.1,1,0.40093,0.23387,0.81021,514,2.28028,-0.328,-0.16705,0.33411,5,2U1D,2,TRUE,0.242,62,FALSE,right,0,0.3187,0.8185,0.4998,1.5438,2.2104,0.6666,A
515,0.50116,0.1,2,0.38422,0.3007,0.80186,515,2.67286,0.37,0.18376,0.68492,5,2D1U,2,TRUE,1.525,55,FALSE,right,-0.16705,1.7641,2.3645,0.6004,0.3814,0.8808,0.4994,A
516,0.50116,1.2,1,0.28399,0.33411,0.64315,516,2.09652,-0.328,-0.16705,0.33411,5,2U1D,2,TRUE,0.335,62,FALSE,right,0.25058,0.2183,0.6933,0.475,1.1436,2.0352,0.8916,A
517,0.50116,1.2,2,0.3174,0.43434,0.6348,517,2.57262,0.37,0.18376,0.68492,5,2D1U,2,TRUE,0.461,55,FALSE,right,0,1.5899,2.1984,0.6085,0.2484,0.8903,0.6419,A
518,0.50116,1.2,2,0.35916,0.24223,0.6181,518,2.07981,-0.274,-0.13364,0.35916,5,2U1D,1,TRUE,1.384,63,TRUE,left,-0.16705,1.5304,1.8139,0.2835,0.3726,0.8472,0.4746,A
519,0.50116,0.1,1,0.26729,0.39258,0.7768,519,2.59769,0.316,0.1587,0.65986,5,2D1U,1,TRUE,0.331,56,TRUE,left,0.25058,0.1859,1.0109,0.825,1.578,2.4944,0.9164,A
520,0.50116,0.1,1,0.42599,0.34246,0.86868,520,2.79815,0.316,0.1587,0.65986,5,2D1U,2,FALSE,0.388,56,TRUE,right,0,0.3368,1.1614,0.8246,1.9447,2.6118,0.6671,A
521,0.50116,0.1,1,0.32575,0.20882,0.76009,521,2.48074,0.37,0.18376,0.68492,5,2D1U,1,TRUE,0.132,57,TRUE,left,-0.16705,0.237,1.0876,0.8506,1.845,2.3452,0.5002,A
522,0.50116,1.2,1,0.43434,0.39258,0.41763,522,2.10487,-0.274,-0.13364,0.35916,5,2U1D,2,TRUE,0.318,63,TRUE,right,0.25058,0.3636,0.8639,0.5003,1.0883,1.9801,0.8918,A
523,0.50116,1.2,1,0.39258,0.26729,0.6348,523,2.48075,0.37,0.18376,0.68492,5,2D1U,2,FALSE,0.559,57,TRUE,right,0,0.326,1.1507,0.8247,1.7169,2.3589,0.642,A
524,0.50116,1.2,1,0.44269,0.35081,0.4761,524,2.16334,-0.22,-0.10858,0.39258,5,2U1D,2,TRUE,0.595,63,FALSE,right,-0.16705,0.3748,0.9079,0.5331,1.4001,1.8754,0.4753,A
525,0.50116,0.1,2,0.3007,0.43434,0.85197,525,2.48075,-0.22,-0.10858,0.39258,5,2U1D,1,TRUE,0.225,63,FALSE,left,0.25058,1.9455,2.2529,0.3074,0.0947,1.0119,0.9171,A
526,0.50116,0.1,1,0.27564,0.27564,0.43434,526,2.19676,0.424,0.20882,0.70998,5,2D1U,1,TRUE,0.338,57,FALSE,left,0,0.1874,1.0628,0.8754,1.413,2.0792,0.6662,A
527,0.50116,0.1,1,0.35081,0.29234,0.55128,527,2.40557,0.424,0.20882,0.70998,5,2D1U,2,FALSE,0.329,57,FALSE,right,-0.16705,0.2638,1.1386,0.8748,1.69,2.1886,0.4987,A
528,0.50116,1.2,1,0.21717,0.42599,0.43434,528,1.99629,-0.166,-0.08353,0.41763,5,2U1D,2,TRUE,0.304,63,FALSE,right,0.25058,0.1488,0.7069,0.5581,0.9488,1.8406,0.8919,A
529,0.50116,1.2,1,0.45104,0.26729,0.73503,529,2.68955,0.478,0.24223,0.73503,5,2D1U,1,TRUE,1.99,57,FALSE,left,0,0.3831,1.2581,0.875,1.9248,2.5664,0.6416,A
530,0.50116,1.2,1,0.40928,0.22552,0.4594,530,2.33039,0.478,0.24223,0.73503,5,2D1U,1,TRUE,0.883,57,FALSE,left,-0.16705,0.3443,1.2189,0.8746,1.694,2.1691,0.4751,A
531,0.50116,0.1,2,0.25893,0.33411,0.67657,531,2.1884,-0.166,-0.08353,0.41763,5,2U1D,1,TRUE,1.08,63,FALSE,left,0.25058,1.7283,2.0606,0.3322,0.0523,0.9686,0.9163,A
532,0.50116,0.1,1,0.29234,0.39258,0.52622,532,2.15499,-0.112,-0.05847,0.44269,5,2U1D,1,FALSE,0.732,63,FALSE,left,0,0.204,0.8123,0.6083,1.254,1.9212,0.6673,A
533,0.50116,0.1,2,0.3007,0.45104,0.81021,533,2.48074,-0.166,-0.08353,0.41763,5,2U1D,2,FALSE,0.449,64,TRUE,right,-0.16705,1.6877,2.0211,0.3334,0.2964,0.7966,0.5002,A
534,0.50116,1.2,1,0.43434,0.28399,0.65986,534,2.27193,-0.22,-0.10858,0.39258,5,2U1D,2,TRUE,0.112,64,FALSE,right,0.25058,0.3681,0.9016,0.5334,1.368,2.2606,0.8926,A
535,0.50116,1.2,2,0.3007,0.39258,0.45104,535,2.35546,0.424,0.20882,0.70998,5,2D1U,2,TRUE,0.149,58,TRUE,right,0,1.3934,2.027,0.6336,0.2354,0.8773,0.6419,A
536,0.50116,1.2,2,0.3007,0.20882,0.60974,536,2.3304,0.424,0.20882,0.70998,5,2D1U,2,TRUE,0.112,58,TRUE,right,-0.16705,1.4641,2.098,0.6339,0.3145,0.7892,0.4746,A
537,0.50116,0.1,1,0.30905,0.3174,0.45104,537,2.26357,0.37,0.18376,0.68492,5,2D1U,1,TRUE,0.75,58,FALSE,left,0.25058,0.2228,1.072,0.8492,1.3146,2.231,0.9164,A
538,0.50116,0.1,2,0.23387,0.34246,0.6348,538,2.10487,-0.22,-0.10858,0.39258,5,2U1D,2,FALSE,1.436,64,FALSE,right,0,1.5363,1.8445,0.3082,0.1525,0.8189,0.6664,A
539,0.50116,0.1,2,0.40093,0.20882,0.58469,539,2.05476,-0.274,-0.13364,0.35916,5,2U1D,1,TRUE,0.209,64,FALSE,left,-0.16705,1.564,1.8393,0.2753,0.3971,0.8972,0.5001,A
540,0.50116,1.2,1,0.42599,0.43434,0.55963,540,2.60604,0.37,0.18376,0.68492,5,2D1U,1,TRUE,0.107,58,FALSE,left,0.25058,0.3584,1.1829,0.8245,1.5495,2.4413,0.8919,A
541,0.50116,1.2,2,0.36752,0.37587,0.86868,541,2.77309,0.316,0.1587,0.65986,5,2D1U,2,TRUE,1.879,58,FALSE,right,0,1.8706,2.4534,0.5827,0.2951,0.937,0.6419,A
542,0.50116,1.2,1,0.25058,0.21717,0.74339,542,2.07146,-0.274,-0.13364,0.35916,5,2U1D,2,TRUE,0.818,64,FALSE,right,-0.16705,0.1816,0.6818,0.5002,1.4403,1.916,0.4757,A
543,0.50116,0.1,2,0.20046,0.30905,0.4594,543,2.12993,0.316,0.1587,0.65986,5,2D1U,1,FALSE,93.307,58,FALSE,left,0.25058,1.4461,2.0206,0.5744,999,0.904,-998.096,A
544,0.50116,0.1,1,0.43434,0.29234,0.40928,544,2.0297,-0.22,-0.10858,0.39258,5,2U1D,2,TRUE,0.347,65,TRUE,right,0,0.3482,0.9064,0.5581,1.2312,1.8983,0.667,A
545,0.50116,0.1,1,0.26729,0.32575,0.62645,545,2.40557,0.37,0.18376,0.68492,5,2D1U,2,FALSE,0.255,59,TRUE,right,-0.16705,0.1862,1.0367,0.8505,1.6611,2.1615,0.5004,A
546,0.50116,1.2,1,0.40928,0.35081,0.60974,546,2.26357,-0.22,-0.10858,0.39258,5,2U1D,2,TRUE,0.257,65,TRUE,right,0.25058,0.3421,0.8758,0.5337,1.292,2.1845,0.8924,A
547,0.50116,1.2,2,0.40928,0.40928,0.49281,547,2.52251,0.424,0.20882,0.70998,5,2D1U,2,TRUE,0.574,59,FALSE,right,0,1.543,2.1767,0.6337,0.3426,0.9846,0.642,A
548,0.50116,1.2,1,0.37587,0.25058,0.4761,548,2.02134,-0.166,-0.08353,0.41763,5,2U1D,2,TRUE,0.462,65,FALSE,right,-0.16705,0.3076,0.8658,0.5582,1.3577,1.8327,0.4751,A
549,0.50116,0.1,2,0.37587,0.38422,0.66821,549,2.63944,0.424,0.20882,0.70998,5,2D1U,2,TRUE,1.85,59,FALSE,right,0.25058,1.8306,2.4552,0.6246,0.1638,1.0807,0.9169,A
550,0.50116,0.1,1,0.30905,0.41763,0.48445,550,2.12992,-0.166,-0.08353,0.41763,5,2U1D,2,TRUE,0.272,65,FALSE,right,0,0.2243,0.8076,0.5833,1.2077,1.8739,0.6661,A
551,0.50116,0.1,2,0.36752,0.30905,0.86868,551,2.73133,0.37,0.18376,0.68492,5,2D1U,1,FALSE,1.039,60,TRUE,left,-0.16705,1.8179,2.4177,0.5998,0.368,0.8681,0.5002,A
552,0.50116,1.2,2,0.20046,0.32575,0.82691,552,2.29697,-0.112,-0.05847,0.44269,5,2U1D,2,FALSE,1.365,65,FALSE,right,0.25058,1.7888,2.1561,0.3672,0.0057,0.8975,0.8918,A
553,0.50116,1.2,2,0.33411,0.38422,0.48445,553,2.41392,0.424,0.20882,0.70998,5,2D1U,2,TRUE,0.109,61,TRUE,right,0,1.4563,2.09,0.6338,0.2652,0.9062,0.641,A
554,0.50116,1.2,1,0.25893,0.25893,0.4761,554,2.2051,0.424,0.20882,0.70998,5,2D1U,2,FALSE,0.457,61,TRUE,right,-0.16705,0.1937,1.0438,0.8501,1.5347,2.0098,0.4752,A
555,0.50116,0.1,2,0.30905,0.29234,0.81021,555,2.33039,-0.166,-0.08353,0.41763,5,2U1D,2,FALSE,0.433,66,TRUE,right,0.25058,1.9084,2.2421,0.3337,0.1005,1.0175,0.917,A
556,0.50116,0.1,1,0.39258,0.22552,0.78515,556,2.63944,0.478,0.24223,0.73503,5,2D1U,2,FALSE,1.884,61,FALSE,right,0,0.3044,1.2038,0.8993,1.9036,2.571,0.6674,A
0,0.49642,1.2,2,0.38886,0.38886,0.55434,0,2.00223,-0.65,-0.32268,0.17375,5,2U1D,1,TRUE,1.439,0,FALSE,left,0.24821,1.7429,1.8348,0.0918,0.1846,1.1006,0.916,A
1,0.49642,0.1,1,0.25649,0.41369,0.76946,1,2.08499,-0.7,-0.3475,0.14893,5,lapse_rate,2,TRUE,0.283,0,FALSE,right,0,0.1896,0.4811,0.2915,1.1896,1.8314,0.6418,A
2,0.49642,1.2,1,0.28131,0.29785,0.86047,2,2.78824,0.7,0.3475,0.85219,5,lapse_rate,1,TRUE,2.284,0,FALSE,left,-0.16547,0.1992,1.2237,1.0246,2.0905,2.5906,0.5001,A
3,0.49642,1.2,1,0.41369,0.43023,0.76118,3,2.92889,0.65,0.32268,0.82737,5,2D1U,2,FALSE,0.25,0,FALSE,right,0.24821,0.3315,1.3314,0.9999,1.8897,2.8064,0.9167,A
4,0.49642,1.2,2,0.3144,0.23994,0.52952,4,1.75403,-0.65,-0.32268,0.17375,5,2U1D,1,TRUE,1.189,0,FALSE,left,0,1.5154,1.607,0.0916,0.2321,0.8989,0.6668,A
5,0.49642,0.1,1,0.28131,0.27303,0.57089,5,2.49866,0.75,0.37232,0.87701,5,2D1U,1,TRUE,1.775,0,FALSE,left,-0.16547,0.2185,1.2433,1.0247,1.8353,2.3101,0.4748,A
6,0.49642,0.1,1,0.29785,0.20684,0.85219,6,2.00223,-0.7,-0.3475,0.14893,5,lapse_rate,2,TRUE,0.49,0,FALSE,right,0.24821,0.2291,0.5209,0.2918,1.1874,999,997.8126,A
7,0.49642,0.1,2,0.23166,0.40541,0.86047,7,2.21735,-0.55,-0.27303,0.22339,5,2U1D,1,TRUE,1.25,0,FALSE,left,0,1.7411,1.891,0.1499,0.1656,0.8076,0.6419,A
8,0.49642,0.1,2,0.38059,0.44678,0.69499,8,2.16771,-0.7,-0.3475,0.14893,5,lapse_rate,1,TRUE,1.825,0,FALSE,left,-0.16547,1.6373,1.7128,0.0755,0.3962,0.871,0.4748,A
9,0.49642,0.1,1,0.21512,0.33922,0.67017,9,1.94432,-0.55,-0.27303,0.22339,5,2U1D,2,TRUE,0.586,0,FALSE,right,0.24821,0.1458,0.5122,0.3664,0.9956,1.8868,0.8911,A
10,0.49642,1.2,1,0.24821,0.25649,0.65362,10,2.53175,0.75,0.37232,0.87701,5,2D1U,2,FALSE,0.393,0,FALSE,right,0,0.1641,1.2144,1.0502,1.7891,2.4559,0.6668,A
11,0.49642,0.1,2,0.30613,0.30613,0.52952,11,2.49039,0.7,0.3475,0.85219,5,lapse_rate,1,FALSE,2.925,0,FALSE,left,-0.16547,1.3969,2.1799,0.783,0.3217,0.7973,0.4756,A
12,0.49642,1.2,2,0.43023,0.27303,0.786,12,2.91234,0.85,0.42196,0.92666,5,2D1U,2,TRUE,0.209,0,FALSE,right,0.24821,2.0159,2.8662,0.8503,0.2244,1.1405,0.9161,A
13,0.49642,1.2,2,0.35577,0.38886,0.64535,13,2.15943,-0.45,-0.22339,0.27303,5,2U1D,1,TRUE,0.976,0,FALSE,left,0,1.6754,1.8665,0.1911,0.2756,0.9424,0.6668,A
14,0.49642,1.2,2,0.35577,0.3475,0.79428,14,2.84616,0.7,0.3475,0.85219,5,lapse_rate,2,TRUE,0.111,0,FALSE,right,-0.16547,1.7399,2.5156,0.7758,0.3574,0.8574,0.5,A
15,0.49642,0.1,1,0.38059,0.38059,0.67017,15,2.85443,0.85,0.42196,0.92666,5,2D1U,1,TRUE,0.113,0,FALSE,left,0.24821,0.3167,1.3923,1.0756,1.8762,2.7675,0.8913,A
16,0.49642,0.1,2,0.3144,0.22339,0.60398,16,1.91122,-0.45,-0.22339,0.27303,5,2U1D,1,TRUE,0.267,0,FALSE,left,0,1.565,1.7655,0.2005,0.2486,0.8904,0.6418,A
17,0.49642,0.1,2,0.37232,0.37232,0.5047,17,2.59795,0.7,0.3475,0.85219,5,lapse_rate,2,TRUE,0.467,0,FALSE,right,-0.16547,1.4385,2.2217,0.7832,0.3882,0.863,0.4747,A
18,0.49642,0.1,1,0.3475,0.21512,0.77773,18,2.15945,-0.35,-0.17375,0.32268,5,2U1D,2,TRUE,1.199,0,FALSE,right,0.24821,0.2813,0.7478,0.4665,1.3392,999,997.6608,A
19,0.49642,1.2,2,0.32268,0.38886,0.69499,19,2.79651,0.79,0.39714,0.89356,5,2D1U,2,TRUE,0.601,1,TRUE,right,0,1.6895,2.5061,0.8167,0.2395,0.906,0.6665,A
20,0.49642,1.2,2,0.37232,0.22339,0.90184,20,2.88753,0.79,0.39714,0.89356,5,2D1U,2,TRUE,0.433,1,TRUE,right,-0.16547,1.8643,2.6786,0.8143,0.3706,0.8713,0.5007,A
21,0.49642,1.2,1,0.27303,0.32268,0.40541,21,1.82022,-0.35,-0.17375,0.32268,5,2U1D,2,TRUE,0.242,0,FALSE,right,0.24821,0.1939,0.6853,0.4913,0.886,1.8026,0.9166,A
22,0.49642,0.1,2,0.33922,0.37232,0.54607,22,1.90296,-0.7,-0.3475,0.14893,5,lapse_rate,1,TRUE,0.742,0,FALSE,left,0,1.5328,1.6079,0.0751,0.2745,0.9166,0.6421,A
23,0.49642,0.1,1,0.40541,0.27303,0.47988,23,2.02706,-0.25,-0.12411,0.37232,5,2U1D,2,TRUE,0.309,0,FALSE,right,-0.16547,0.3438,0.8606,0.5168,1.3606,1.8354,0.4748,A
24,0.49642,1.2,2,0.21512,0.40541,0.49642,24,1.7623,-0.7,-0.3475,0.14893,5,lapse_rate,2,FALSE,1.634,0,FALSE,right,0.24821,1.5058,1.5729,0.0671,0.0071,0.9228,0.9156,A
25,0.49642,0.1,1,0.37232,0.42196,0.64535,25,2.80479,0.73,0.36404,0.86874,5,2D1U,2,FALSE,0.475,1,FALSE,right,0,0.3052,1.3217,1.0165,1.9049,2.5465,0.6416,A
26,0.49642,0.1,1,0.40541,0.41369,0.71154,26,2.39938,-0.25,-0.12411,0.37232,5,2U1D,2,TRUE,0.609,0,FALSE,right,-0.16547,0.3411,0.8576,0.5165,1.5919,2.0659,0.474,A
27,0.49642,1.2,1,0.26476,0.23994,0.47988,27,2.36629,0.766,0.38059,0.88529,5,2D1U,2,FALSE,0.341,2,TRUE,right,0.24821,0.1815,1.2401,1.0587,1.5149,999,997.4851,A
28,0.49642,0.1,2,0.39714,0.28131,0.61226,28,1.93606,-0.7,-0.3475,0.14893,5,lapse_rate,2,FALSE,0.649,0,FALSE,right,0,1.6557,1.7307,0.0749,0.331,0.9723,0.6413,A
29,0.49642,1.2,1,0.22339,0.22339,0.43023,29,2.27527,0.802,0.39714,0.90184,5,2D1U,1,TRUE,0.716,2,FALSE,left,-0.16547,0.1396,1.2135,1.0739,1.6476,2.1476,0.5,A
30,0.49642,0.1,2,0.30613,0.22339,0.73636,30,2.61449,0.7,0.3475,0.85219,5,lapse_rate,2,TRUE,0.767,0,FALSE,right,0.24821,1.8137,2.5978,0.7841,0.1141,1.0053,0.8912,A
31,0.49642,1.2,2,0.41369,0.19857,0.83565,31,2.36629,-0.15,-0.07446,0.42196,5,2U1D,2,FALSE,0.425,0,FALSE,right,0,1.9226,2.2642,0.3416,0.3309,0.9975,0.6665,A
32,0.49642,0.1,2,0.33922,0.37232,0.68672,32,2.29182,-0.21,-0.10756,0.39714,5,2U1D,1,TRUE,0.308,1,TRUE,left,-0.16547,1.5946,1.9197,0.3251,0.3616,0.8366,0.475,A
33,0.49642,0.1,2,0.35577,0.3144,0.83565,33,2.90408,0.802,0.39714,0.90184,5,2D1U,2,TRUE,0.134,2,FALSE,right,0.24821,1.9678,2.8017,0.8338,0.1679,1.0601,0.8922,A
34,0.49642,1.2,2,0.22339,0.24821,0.62053,34,2.44074,0.7,0.3475,0.85219,5,lapse_rate,2,TRUE,0.15,0,FALSE,right,0,1.5194,2.2939,0.7745,0.1438,0.811,0.6672,A
35,0.49642,0.1,1,0.23994,0.3144,0.79428,35,2.69723,0.7,0.3475,0.85219,5,lapse_rate,1,TRUE,0.401,0,FALSE,left,-0.16547,0.1726,1.1728,1.0002,1.9896,2.4648,0.4752,A
36,0.49642,0.1,2,0.32268,0.19857,0.45505,36,1.86986,-0.21,-0.10756,0.39714,5,2U1D,2,FALSE,0.633,1,TRUE,right,0.24821,1.5474,1.8718,0.3244,0.1303,1.022,0.8918,A
37,0.49642,1.2,1,0.20684,0.30613,0.44678,37,2.34146,0.766,0.38059,0.88529,5,2D1U,2,FALSE,0.267,3,TRUE,right,0,0.1223,1.1807,1.0584,1.548,2.2132,0.6652,A
38,0.49642,1.2,1,0.37232,0.3144,0.81082,38,2.8958,0.802,0.39714,0.90184,5,2D1U,1,TRUE,1.083,4,TRUE,left,-0.16547,0.2939,1.3684,1.0746,2.1852,2.6856,0.5004,A
39,0.49642,0.1,1,0.41369,0.29785,0.64535,39,2.00224,-0.7,-0.3475,0.14893,5,lapse_rate,2,TRUE,0.217,0,FALSE,right,0.24821,0.3474,0.6384,0.2911,1.097,1.9887,0.8918,A
40,0.49642,1.2,1,0.44678,0.38059,0.73636,40,2.42419,-0.27,-0.13238,0.36404,5,2U1D,2,TRUE,0.2,1,FALSE,right,0,0.3637,0.8966,0.5329,1.5548,2.222,0.6672,A
41,0.49642,0.1,2,0.32268,0.3144,0.58743,41,2.08497,-0.27,-0.13238,0.36404,5,2U1D,2,FALSE,1.791,1,FALSE,right,-0.16547,1.476,1.7674,0.2913,0.3429,0.8183,0.4754,A
42,0.49642,0.1,2,0.41369,0.37232,0.89356,42,2.32492,-0.7,-0.3475,0.14893,5,lapse_rate,1,TRUE,0.293,0,FALSE,left,0.24821,2.0854,2.1602,0.0748,0.2268,1.1188,0.892,A
43,0.49642,0.1,2,0.30613,0.29785,0.80255,43,2.80479,0.802,0.39714,0.90184,5,2D1U,2,TRUE,0.208,4,TRUE,right,0,1.756,2.5895,0.8335,0.2397,0.8811,0.6415,A
44,0.49642,0.1,1,0.39714,0.37232,0.69499,44,2.29182,-0.33,-0.16547,0.33095,5,2U1D,2,TRUE,1,1,FALSE,right,-0.16547,0.3295,0.8045,0.4749,1.5209,1.9961,0.4752,A
45,0.49642,1.2,1,0.24821,0.28958,0.67017,45,1.85331,-0.7,-0.3475,0.14893,5,lapse_rate,2,TRUE,0.489,0,FALSE,right,0.24821,0.1647,0.4811,0.3165,0.948,1.8647,0.9167,A
46,0.49642,1.2,2,0.23994,0.33095,0.49642,46,2.44902,0.766,0.38059,0.88529,5,2D1U,2,TRUE,0.5,5,TRUE,right,0,1.4062,2.2144,0.8083,0.1562,0.8224,0.6663,A
47,0.49642,1.2,1,0.3475,0.26476,0.85219,47,2.84616,0.766,0.38059,0.88529,5,2D1U,2,FALSE,0.734,5,TRUE,right,-0.16547,0.2623,1.3207,1.0583,2.1794,2.6795,0.5001,A
48,0.49642,1.2,1,0.36404,0.33095,0.75291,48,2.27527,-0.33,-0.16547,0.33095,5,2U1D,2,TRUE,0.526,1,FALSE,right,0.24821,0.2791,0.7793,0.5002,1.3293,2.246,0.9167,A
49,0.49642,0.1,1,0.26476,0.43851,0.82737,49,2.17599,-0.7,-0.3475,0.14893,5,lapse_rate,2,TRUE,0.725,0,FALSE,right,0,0.1984,0.4891,0.2907,1.2563,1.8978,0.6415,A
50,0.49642,0.1,2,0.25649,0.41369,0.81082,50,2.33319,-0.294,-0.14893,0.35577,5,2U1D,2,FALSE,0.5,2,TRUE,right,-0.16547,1.6364,1.9199,0.2834,0.2782,0.7531,0.4749,A
51,0.49642,1.2,2,0.39714,0.33922,0.72809,51,2.1098,-0.7,-0.3475,0.14893,5,lapse_rate,1,TRUE,0.584,0,FALSE,left,0.24821,1.9262,1.993,0.0669,0.1927,1.1094,0.9167,A
52,0.49642,0.1,1,0.21512,0.26476,0.84392,52,2.72206,0.802,0.39714,0.90184,5,2D1U,1,TRUE,1.009,6,TRUE,left,0,0.1527,1.203,1.0503,1.9861,2.6276,0.6415,A
53,0.49642,0.1,2,0.30613,0.23994,0.52124,53,2.46557,0.802,0.39714,0.90184,5,2D1U,2,TRUE,0.116,6,TRUE,right,-0.16547,1.3874,2.2207,0.8333,0.3213,0.796,0.4746,A
54,0.49642,1.2,1,0.41369,0.28131,0.64535,54,1.9857,-0.7,-0.3475,0.14893,5,lapse_rate,2,TRUE,0.208,0,FALSE,right,0.24821,0.3313,0.6485,0.3172,1.0902,999,997.9098,A
55,0.49642,1.2,2,0.21512,0.22339,0.6288,55,1.89468,-0.33,-0.16547,0.33095,5,2U1D,1,TRUE,0.383,3,TRUE,left,0,1.514,1.7635,0.2495,0.1306,0.7969,0.6663,A
56,0.49642,1.2,1,0.25649,0.40541,0.56261,56,2.60622,0.766,0.38059,0.88529,5,2D1U,1,TRUE,0.533,7,TRUE,left,-0.16547,0.1737,1.2319,1.0582,1.7992,2.2984,0.4992,A
57,0.49642,0.1,1,0.38886,0.3475,0.74463,57,2.12634,-0.7,-0.3475,0.14893,5,lapse_rate,2,TRUE,0.267,0,FALSE,right,0.24821,0.323,0.6143,0.2913,1.1725,2.0641,0.8917,A
58,0.49642,1.2,2,0.37232,0.35577,0.60398,58,2.15944,-0.33,-0.16547,0.33095,5,2U1D,1,TRUE,1.775,3,TRUE,left,0,1.6522,1.9012,0.249,0.2939,0.9605,0.6667,A
59,0.49642,1.2,2,0.21512,0.43851,0.44678,59,1.74576,-0.7,-0.3475,0.14893,5,lapse_rate,2,FALSE,2.309,0,FALSE,right,-0.16547,1.2533,1.3201,0.0668,0.2202,0.7192,0.499,A
60,0.49642,0.1,2,0.23994,0.22339,0.68672,60,2.00224,-0.294,-0.14893,0.35577,5,2U1D,1,TRUE,1.034,4,TRUE,left,0.24821,1.6972,1.9801,0.283,0.0463,0.9382,0.8919,A
