,standardDur,audNoise,order,preDur,postDur,isiDur,trial_num,totalDur,delta_dur_percents,deltaDurS,testDurS,intensities,current_stair,responses,is_correct,response_rts,stair_num_reversal,stair_is_reversal,response_keys,conflictDur,recordedOnsetVisualTest,recordedOffsetVisualTest,recordedDurVisualTest,recordedOnsetVisualStandard,recordedOffsetVisualStandard,recordedDurVisualStandard,modalityCue,VisualPSE
0,0.5,1.2,2,0.30833,0.325,0.54167,0,1.725,-0.9,-0.45,0.05,5,lapse_rate,1.0,True,0.027,0,False,left,0.08333,999,999,0,999,999,0,A,0.14
1,0.5,1.2,1,0.275,0.29167,0.85,1,2.66667,0.5,0.25,0.75,5,1D2U,1.0,True,0.016,0,False,left,-0.25,999,999,0,999,999,0,A,0.14
2,0.5,0.1,2,0.30833,0.44167,0.65,2,2.85,0.9,0.45,0.95,5,lapse_rate,1.0,False,0.016,0,False,left,0.08333,999,999,0,999,999,0,A,0.165
3,0.5,1.2,2,0.40833,0.275,0.85,3,2.78333,0.5,0.25,0.75,5,2D1U,1.0,False,0.017,0,False,left,-0.25,999,999,0,999,999,0,A,0.14
4,0.5,0.1,2,0.425,0.3,0.45,4,2.425,0.5,0.25,0.75,5,1D2U,2.0,True,0.016,0,False,right,0.08333,999,999,0,999,999,0,A,0.165
5,0.5,0.1,2,0.35,0.43333,0.74167,5,2.875,0.7,0.35,0.85,5,2D1U,2.0,True,0.017,0,False,right,-0.25,999,999,0,999,999,0,A,0.165
6,0.5,1.2,1,0.25833,0.23333,0.73333,6,2.47499,0.5,0.25,0.75,5,1D2U,1.0,True,0.017,0,False,left,0.08333,999,999,0,999,999,0,A,0.14
7,0.5,1.2,2,0.39167,0.225,0.875,7,2.94167,0.9,0.45,0.95,5,lapse_rate,2.0,True,0.016,0,False,right,-0.25,999,999,0,999,999,0,A,0.14
8,0.5,1.2,2,0.35,0.375,0.88333,8,3.05833,0.9,0.45,0.95,5,lapse_rate,1.0,False,0.017,0,False,left,0.08333,999,999,0,999,999,0,A,0.14
9,0.5,1.2,2,0.4,0.29167,0.41667,9,2.45834,0.7,0.35,0.85,5,2D1U,2.0,True,0.017,0,False,right,-0.25,999,999,0,999,999,0,A,0.14
10,0.5,0.1,1,0.28333,0.35833,0.69167,10,2.48333,0.3,0.15,0.65,5,1D2U,2.0,False,0.016,0,False,right,0.08333,999,999,0,999,999,0,A,0.165
11,0.5,0.1,2,0.33333,0.24167,0.725,11,2.50833,0.42,0.20833,0.70833,5,1D2U,2.0,True,0.016,1,True,right,-0.25,999,999,0,999,999,0,A,0.165
12,0.5,1.2,1,0.375,0.26667,0.85833,12,2.95,0.9,0.45,0.95,5,lapse_rate,1.0,True,0.017,0,False,left,0.08333,999,999,0,999,999,0,A,0.14
13,0.5,1.2,1,0.24167,0.40833,0.86667,13,2.80834,0.58,0.29167,0.79167,5,2D1U,1.0,True,0.016,1,True,left,-0.25,999,999,0,999,999,0,A,0.14
14,0.5,1.2,2,0.39167,0.35,0.775,14,2.80834,0.58,0.29167,0.79167,5,2D1U,2.0,True,0.017,1,True,right,0.08333,999,999,0,999,999,0,A,0.14
15,0.5,0.1,2,0.4,0.43333,0.69167,15,2.73333,0.42,0.20833,0.70833,5,1D2U,1.0,False,0.017,1,True,left,-0.25,999,999,0,999,999,0,A,0.165
16,0.5,0.1,2,0.43333,0.33333,0.48333,16,1.79999,-0.9,-0.45,0.05,5,lapse_rate,1.0,True,0.017,0,False,left,0.08333,999,999,0,999,999,0,A,0.165
17,0.5,0.1,1,0.25833,0.28333,0.575,17,2.34999,0.46,0.23333,0.73333,5,2D1U,2.0,False,0.017,1,False,right,-0.25,999,999,0,999,999,0,A,0.165
18,0.5,1.2,2,0.25,0.31667,0.775,18,2.60834,0.54,0.26667,0.76667,5,1D2U,1.0,False,0.017,1,False,left,0.08333,999,999,0,999,999,0,A,0.14
19,0.5,0.1,1,0.4,0.30833,0.45,19,1.70833,-0.9,-0.45,0.05,5,lapse_rate,2.0,True,0.016,0,False,right,-0.25,999,999,0,999,999,0,A,0.165
20,0.5,1.2,2,0.43333,0.4,0.5,20,2.6,0.532,0.26667,0.76667,5,2D1U,2.0,True,0.017,2,True,right,0.08333,999,999,0,999,999,0,A,0.14
21,0.5,0.1,1,0.225,0.31667,0.625,21,1.71667,-0.9,-0.45,0.05,5,lapse_rate,2.0,True,0.017,0,False,right,-0.25,999,999,0,999,999,0,A,0.165
22,0.5,0.1,2,0.425,0.24167,0.50833,22,2.50833,0.66,0.33333,0.83333,5,1D2U,2.0,True,0.017,1,False,right,0.08333,999,999,0,999,999,0,A,0.165
23,0.5,0.1,2,0.375,0.26667,0.425,23,2.33334,0.532,0.26667,0.76667,5,2D1U,2.0,True,0.017,2,True,right,-0.25,999,999,0,999,999,0,A,0.165
24,0.5,1.2,2,0.25833,0.38333,0.76667,24,2.74166,0.66,0.33333,0.83333,5,1D2U,2.0,True,0.017,1,False,right,0.08333,999,999,0,999,999,0,A,0.14
25,0.5,1.2,2,0.23333,0.375,0.6,25,2.65833,0.9,0.45,0.95,5,lapse_rate,1.0,False,0.017,0,False,left,-0.25,999,999,0,999,999,0,A,0.14
26,0.5,1.2,1,0.40833,0.23333,0.75,26,1.94166,-0.9,-0.45,0.05,5,lapse_rate,2.0,True,0.017,0,False,right,0.08333,999,999,0,999,999,0,A,0.14
27,0.5,1.2,1,0.41667,0.20833,0.85,27,2.80833,0.66,0.33333,0.83333,5,1D2U,2.0,False,0.017,1,False,right,-0.25,999,999,0,999,999,0,A,0.14
28,0.5,0.1,1,0.26667,0.41667,0.425,28,2.34167,0.46,0.23333,0.73333,5,2D1U,1.0,True,0.016,3,True,left,0.08333,999,999,0,999,999,0,A,0.165
29,0.5,1.2,2,0.325,0.41667,0.71667,29,2.00834,-0.9,-0.45,0.05,5,lapse_rate,1.0,True,0.017,0,False,left,-0.25,999,999,0,999,999,0,A,0.14
30,0.5,0.1,1,0.25833,0.20833,0.85,30,2.54999,0.46,0.23333,0.73333,5,2D1U,2.0,False,0.017,3,True,right,0.08333,999,999,0,999,999,0,A,0.165
31,0.5,1.2,1,0.39167,0.23333,0.53333,31,2.55,0.78,0.39167,0.89167,5,1D2U,2.0,False,0.017,1,False,right,-0.25,999,999,0,999,999,0,A,0.14
32,0.5,1.2,1,0.26667,0.25,0.40833,32,2.375,0.9,0.45,0.95,5,lapse_rate,1.0,True,0.016,0,False,left,0.08333,999,999,0,999,999,0,A,0.14
33,0.5,1.2,2,0.38333,0.20833,0.79167,33,2.65,0.532,0.26667,0.76667,5,2D1U,1.0,False,0.016,4,True,left,-0.25,999,999,0,999,999,0,A,0.14
34,0.5,0.1,1,0.25833,0.26667,0.7,34,2.675,0.9,0.45,0.95,5,1D2U,2.0,False,0.017,1,False,right,0.08333,999,999,0,999,999,0,A,0.165
35,0.5,0.1,1,0.4,0.23333,0.625,35,2.55833,0.604,0.3,0.8,5,2D1U,1.0,True,0.017,4,False,left,-0.25,999,999,0,999,999,0,A,0.165
36,0.5,1.2,1,0.34167,0.24167,0.63333,36,2.725,1.02,0.50833,1.00833,5,1D2U,2.0,False,0.017,1,False,right,0.08333,999,999,0,999,999,0,A,0.14
37,0.5,0.1,2,0.28333,0.33333,0.84167,37,2.00833,-0.9,-0.45,0.05,5,lapse_rate,1.0,True,0.016,0,False,left,-0.25,999,999,0,999,999,0,A,0.165
38,0.5,1.2,2,0.44167,0.28333,0.75,38,2.775,0.604,0.3,0.8,5,2D1U,1.0,False,0.016,4,False,left,0.08333,999,999,0,999,999,0,A,0.14
39,0.5,0.1,1,0.325,0.44167,0.775,39,3.10834,1.14,0.56667,1.06667,5,1D2U,2.0,False,0.016,1,False,right,-0.25,999,999,0,999,999,0,A,0.165
40,0.5,0.1,2,0.375,0.35833,0.55,40,2.73333,0.9,0.45,0.95,5,lapse_rate,2.0,True,0.016,0,False,right,0.08333,999,999,0,999,999,0,A,0.165
41,0.5,0.1,2,0.3,0.39167,0.85833,41,3.18333,1.26,0.63333,1.13333,5,1D2U,1.0,False,0.017,1,False,left,-0.25,999,999,0,999,999,0,A,0.165
42,0.5,1.2,2,0.4,0.24167,0.44167,42,2.42501,0.676,0.34167,0.84167,5,2D1U,1.0,False,0.016,4,False,left,0.08333,999,999,0,999,999,0,A,0.14
43,0.5,0.1,2,0.25833,0.325,0.45833,43,2.49166,0.9,0.45,0.95,5,lapse_rate,2.0,True,0.016,0,False,right,-0.25,999,999,0,999,999,0,A,0.165
44,0.5,1.2,1,0.39167,0.34167,0.70833,44,3.13334,1.38,0.69167,1.19167,5,1D2U,2.0,False,0.016,1,False,right,0.08333,999,999,0,999,999,0,A,0.14
45,0.5,0.1,1,0.26667,0.38333,0.43333,45,2.45833,0.748,0.375,0.875,5,2D1U,2.0,False,0.016,4,False,right,-0.25,999,999,0,999,999,0,A,0.165
46,0.5,0.1,1,0.33333,0.43333,0.45,46,1.76666,-0.9,-0.45,0.05,5,lapse_rate,1.0,False,0.016,0,False,left,0.08333,999,999,0,999,999,0,A,0.165
47,0.5,0.1,2,0.25,0.36667,0.70833,47,2.73333,0.82,0.40833,0.90833,5,2D1U,2.0,True,0.017,4,False,right,-0.25,999,999,0,999,999,0,A,0.165
48,0.5,1.2,2,0.40833,0.21667,0.83333,48,3.20833,1.5,0.75,1.25,5,1D2U,1.0,False,0.017,1,False,left,0.08333,999,999,0,999,999,0,A,0.14
49,0.5,1.2,1,0.325,0.325,0.68333,49,2.78333,0.9,0.45,0.95,5,lapse_rate,2.0,False,0.017,0,False,right,-0.25,999,999,0,999,999,0,A,0.14
50,0.5,1.2,1,0.21667,0.325,0.43333,50,2.425,0.9,0.45,0.95,5,lapse_rate,2.0,False,0.017,0,False,right,0.08333,999,999,0,999,999,0,A,0.14
51,0.5,1.2,2,0.33333,0.425,0.73333,51,3.29999,1.62,0.80833,1.30833,5,1D2U,1.0,False,0.016,1,False,left,-0.25,999,999,0,999,999,0,A,0.14
52,0.5,0.1,2,0.43333,0.41667,0.60833,52,2.86666,0.82,0.40833,0.90833,5,2D1U,2.0,True,0.017,4,False,right,0.08333,999,999,0,999,999,0,A,0.165
53,0.5,0.1,2,0.34167,0.36667,0.85,53,2.10834,-0.9,-0.45,0.05,5,lapse_rate,1.0,True,0.016,0,False,left,-0.25,999,999,0,999,999,0,A,0.165
54,0.5,0.1,1,0.45,0.20833,0.54167,54,3.06667,1.74,0.86667,1.36667,5,1D2U,2.0,False,0.017,1,False,right,0.08333,999,999,0,999,999,0,A,0.165
55,0.5,1.2,2,0.35833,0.31667,0.575,55,2.625,0.748,0.375,0.875,5,2D1U,1.0,False,0.017,5,True,left,-0.25,999,999,0,999,999,0,A,0.14
56,0.5,1.2,1,0.25833,0.43333,0.60833,56,2.74999,0.9,0.45,0.95,5,lapse_rate,1.0,True,0.017,0,False,left,0.08333,999,999,0,999,999,0,A,0.14
57,0.5,1.2,1,0.25,0.21667,0.74167,57,3.14167,1.86,0.93333,1.43333,5,1D2U,2.0,False,0.016,1,False,right,-0.25,999,999,0,999,999,0,A,0.14
58,0.5,0.1,1,0.29167,0.33333,0.63333,58,2.66666,0.82,0.40833,0.90833,5,2D1U,2.0,False,0.016,6,True,right,0.08333,999,999,0,999,999,0,A,0.165
59,0.5,1.2,2,0.38333,0.41667,0.73333,59,2.08333,-0.9,-0.45,0.05,5,lapse_rate,2.0,False,0.016,0,False,right,-0.25,999,999,0,999,999,0,A,0.14
60,0.5,0.1,2,0.31667,0.30833,0.84167,60,3.45834,1.98,0.99167,1.49167,5,1D2U,1.0,False,0.017,1,False,left,0.08333,999,999,0,999,999,0,A,0.165
61,0.5,1.2,1,0.225,0.40833,0.50833,61,2.59166,0.892,0.45,0.95,5,2D1U,1.0,True,0.017,6,False,left,-0.25,999,999,0,999,999,0,A,0.14
62,0.5,1.2,2,0.43333,0.28333,0.48333,62,2.64999,0.892,0.45,0.95,5,2D1U,1.0,False,0.016,6,False,left,0.08333,999,999,0,999,999,0,A,0.14
63,0.5,0.1,1,0.41667,0.31667,0.625,63,3.40834,2.1,1.05,1.55,5,1D2U,1.0,True,0.016,1,False,left,-0.25,999,999,0,999,999,0,A,0.165
64,0.5,1.2,2,0.31667,0.45,0.43333,64,1.75,-0.9,-0.45,0.05,5,lapse_rate,1.0,True,0.016,0,False,left,0.08333,999,999,0,999,999,0,A,0.14
65,0.5,0.1,1,0.38333,0.2,0.71667,65,2.78333,0.964,0.48333,0.98333,5,2D1U,2.0,False,0.018,6,False,right,-0.25,999,999,0,999,999,0,A,0.165
66,0.5,1.2,1,0.225,0.20833,0.74167,66,1.725,-0.9,-0.45,0.05,5,lapse_rate,2.0,True,0.017,0,False,right,0.08333,999,999,0,999,999,0,A,0.14
67,0.5,1.2,2,0.3,0.25,0.79167,67,3.39167,2.1,1.05,1.55,5,1D2U,1.0,False,0.019,1,False,left,-0.25,999,999,0,999,999,0,A,0.14
68,0.5,1.2,2,0.38333,0.29167,0.575,68,2.76667,1.036,0.51667,1.01667,5,2D1U,2.0,True,0.016,6,False,right,0.08333,999,999,0,999,999,0,A,0.14
69,0.5,0.1,2,0.44167,0.25,0.70833,69,1.95,-0.9,-0.45,0.05,5,lapse_rate,2.0,False,0.018,0,False,right,-0.25,999,999,0,999,999,0,A,0.165
70,0.5,0.1,2,0.275,0.40833,0.44167,70,3.23333,2.22,1.10833,1.60833,5,1D2U,1.0,False,0.017,1,False,left,0.08333,999,999,0,999,999,0,A,0.165
71,0.5,0.1,2,0.20833,0.39167,0.85,71,2.96667,1.036,0.51667,1.01667,5,2D1U,1.0,False,0.017,6,False,left,-0.25,999,999,0,999,999,0,A,0.165
72,0.5,1.2,1,0.21667,0.36667,0.9,72,3.65001,2.34,1.16667,1.66667,5,1D2U,1.0,True,0.016,1,False,left,0.08333,999,999,0,999,999,0,A,0.14
73,0.5,0.1,1,0.38333,0.38333,0.80833,73,2.12499,-0.9,-0.45,0.05,5,lapse_rate,1.0,False,0.018,0,False,left,-0.25,999,999,0,999,999,0,A,0.165
74,0.5,1.2,2,0.425,0.41667,0.425,74,3.43334,2.34,1.16667,1.66667,5,1D2U,2.0,True,0.017,1,False,right,0.08333,999,999,0,999,999,0,A,0.14
75,0.5,0.1,2,0.25833,0.41667,0.6,75,2.825,1.108,0.55,1.05,5,2D1U,2.0,True,0.017,6,False,right,-0.25,999,999,0,999,999,0,A,0.165
76,0.5,1.2,2,0.31667,0.3,0.75,76,1.91667,-0.9,-0.45,0.05,5,lapse_rate,2.0,False,0.016,0,False,right,0.08333,999,999,0,999,999,0,A,0.14
77,0.5,0.1,1,0.25,0.35,0.9,77,3.05,1.108,0.55,1.05,5,2D1U,1.0,True,0.017,6,False,left,-0.25,999,999,0,999,999,0,A,0.165
78,0.5,1.2,2,0.33333,0.43333,0.85833,78,2.17499,-0.9,-0.45,0.05,5,lapse_rate,2.0,False,0.017,0,False,right,0.08333,999,999,0,999,999,0,A,0.14
79,0.5,1.2,2,0.20833,0.40833,0.80833,79,3.59166,2.34,1.16667,1.66667,5,1D2U,2.0,True,0.017,1,False,right,-0.25,999,999,0,999,999,0,A,0.14
80,0.5,1.2,1,0.34167,0.4,0.825,80,3.08334,1.036,0.51667,1.01667,5,2D1U,2.0,False,0.016,7,True,right,0.08333,999,999,0,999,999,0,A,0.14
81,0.5,0.1,2,0.29167,0.38333,0.65,81,3.45833,2.268,1.13333,1.63333,5,1D2U,1.0,False,0.017,2,True,left,-0.25,999,999,0,999,999,0,A,0.165
82,0.5,1.2,1,0.40833,0.2,0.75833,82,2.81666,0.9,0.45,0.95,5,lapse_rate,1.0,True,0.016,0,False,left,0.08333,999,999,0,999,999,0,A,0.14
83,0.5,0.1,1,0.25833,0.425,0.75,83,1.98333,-0.9,-0.45,0.05,5,lapse_rate,2.0,True,0.016,0,False,right,-0.25,999,999,0,999,999,0,A,0.165
84,0.5,0.1,2,0.45,0.39167,0.75,84,3.14167,1.108,0.55,1.05,5,2D1U,1.0,False,0.017,8,True,left,0.08333,999,999,0,999,999,0,A,0.165
85,0.5,1.2,2,0.29167,0.29167,0.475,85,3.22501,2.34,1.16667,1.66667,5,1D2U,1.0,False,0.016,3,True,left,-0.25,999,999,0,999,999,0,A,0.14
86,0.5,1.2,2,0.29167,0.25,0.525,86,2.65834,1.18,0.59167,1.09167,5,2D1U,1.0,False,0.017,8,False,left,0.08333,999,999,0,999,999,0,A,0.14
87,0.5,0.1,1,0.24167,0.425,0.69167,87,2.80834,0.9,0.45,0.95,5,lapse_rate,2.0,False,0.017,0,False,right,-0.25,999,999,0,999,999,0,A,0.165
88,0.5,0.1,1,0.4,0.29167,0.475,88,3.375,2.412,1.20833,1.70833,5,1D2U,2.0,False,0.02,3,False,right,0.08333,999,999,0,999,999,0,A,0.165
89,0.5,0.1,2,0.41667,0.375,0.71667,89,3.13334,1.252,0.625,1.125,5,2D1U,2.0,True,0.017,8,False,right,-0.25,999,999,0,999,999,0,A,0.165
90,0.5,0.1,2,0.275,0.23333,0.55833,90,2.51666,0.9,0.45,0.95,5,lapse_rate,1.0,False,0.027,0,False,left,0.08333,999,999,0,999,999,0,A,0.165
91,0.5,1.2,2,0.35,0.24167,0.425,91,3.25834,2.484,1.24167,1.74167,5,1D2U,1.0,False,0.017,3,False,left,-0.25,999,999,0,999,999,0,A,0.14
92,0.5,1.2,1,0.28333,0.375,0.6,92,1.80833,-0.9,-0.45,0.05,5,lapse_rate,1.0,False,0.016,0,False,left,0.08333,999,999,0,999,999,0,A,0.14
93,0.5,1.2,1,0.34167,0.38333,0.64167,93,3.64167,2.556,1.275,1.775,5,1D2U,1.0,True,0.019,3,False,left,-0.25,999,999,0,999,999,0,A,0.14
94,0.5,0.1,2,0.40833,0.21667,0.40833,94,2.65833,1.252,0.625,1.125,5,2D1U,2.0,True,0.016,8,False,right,0.08333,999,999,0,999,999,0,A,0.165
95,0.5,1.2,1,0.34167,0.23333,0.58333,95,2.60833,0.9,0.45,0.95,5,lapse_rate,2.0,False,0.018,0,False,right,-0.25,999,999,0,999,999,0,A,0.14
96,0.5,0.1,2,0.3,0.28333,0.6,96,3.45833,2.556,1.275,1.775,5,1D2U,1.0,False,0.016,3,False,left,0.08333,999,999,0,999,999,0,A,0.165
97,0.5,1.2,2,0.28333,0.375,0.5,97,2.75,1.18,0.59167,1.09167,5,2D1U,1.0,False,0.027,9,True,left,-0.25,999,999,0,999,999,0,A,0.14
98,0.5,1.2,2,0.39167,0.41667,0.425,98,3.55001,2.628,1.31667,1.81667,5,1D2U,2.0,True,0.02,3,False,right,0.08333,999,999,0,999,999,0,A,0.14
99,0.5,1.2,2,0.39167,0.31667,0.48333,99,1.74167,-0.9,-0.45,0.05,5,lapse_rate,2.0,False,0.021,0,False,right,-0.25,999,999,0,999,999,0,A,0.14
100,0.5,0.1,1,0.20833,0.29167,0.78333,100,2.90833,1.252,0.625,1.125,5,2D1U,2.0,False,0.02,10,True,right,0.08333,999,999,0,999,999,0,A,0.165
101,0.5,0.1,2,0.25,0.36667,0.83333,101,3.76667,2.628,1.31667,1.81667,5,1D2U,1.0,False,0.02,3,False,left,-0.25,999,999,0,999,999,0,A,0.165
102,0.5,0.1,1,0.25833,0.34167,0.75833,102,1.90833,-0.9,-0.45,0.05,5,lapse_rate,2.0,True,0.02,0,False,right,0.08333,999,999,0,999,999,0,A,0.165
103,0.5,1.2,1,0.30833,0.39167,0.56667,103,2.925,1.324,0.65833,1.15833,5,2D1U,1.0,True,0.017,10,False,left,-0.25,999,999,0,999,999,0,A,0.14
104,0.5,0.1,1,0.21667,0.4,0.51667,104,2.58334,0.9,0.45,0.95,5,lapse_rate,1.0,True,0.031,0,False,left,0.08333,999,999,0,999,999,0,A,0.165
105,0.5,1.2,1,0.38333,0.24167,0.725,105,3.7,2.7,1.35,1.85,5,1D2U,2.0,False,0.021,3,False,right,-0.25,999,999,0,999,999,0,A,0.14
106,0.5,0.1,1,0.39167,0.34167,0.54167,106,2.93334,1.324,0.65833,1.15833,5,2D1U,2.0,False,0.029,10,False,right,0.08333,999,999,0,999,999,0,A,0.165
107,0.5,0.1,1,0.44167,0.35833,0.51667,107,3.01667,1.396,0.7,1.2,5,2D1U,2.0,False,0.017,10,False,right,-0.25,999,999,0,999,999,0,A,0.165
108,0.5,0.1,2,0.31667,0.44167,0.51667,108,1.82501,-0.9,-0.45,0.05,5,lapse_rate,1.0,True,0.017,0,False,left,0.08333,999,999,0,999,999,0,A,0.165
109,0.5,1.2,2,0.425,0.425,0.84167,109,4.075,2.772,1.38333,1.88333,5,1D2U,2.0,True,0.032,3,False,right,-0.25,999,999,0,999,999,0,A,0.14
110,0.5,1.2,2,0.38333,0.35833,0.69167,110,2.88333,0.9,0.45,0.95,5,lapse_rate,2.0,True,0.033,0,False,right,0.08333,999,999,0,999,999,0,A,0.14
111,0.5,1.2,1,0.2,0.375,0.86667,111,3.825,2.772,1.38333,1.88333,5,1D2U,1.0,True,0.021,3,False,left,-0.25,999,999,0,999,999,0,A,0.14
112,0.5,0.1,1,0.43333,0.28333,0.60833,112,3.05832,1.468,0.73333,1.23333,5,2D1U,2.0,False,0.018,10,False,right,0.08333,999,999,0,999,999,0,A,0.165
113,0.5,1.2,1,0.40833,0.35,0.64167,113,2.85,0.9,0.45,0.95,5,lapse_rate,1.0,True,0.02,0,False,left,-0.25,999,999,0,999,999,0,A,0.14
114,0.5,0.1,1,0.33333,0.41667,0.63333,114,3.76666,2.772,1.38333,1.88333,5,1D2U,1.0,True,0.023,3,False,left,0.08333,999,999,0,999,999,0,A,0.165
115,0.5,1.2,1,0.25833,0.4,0.49167,115,2.91667,1.54,0.76667,1.26667,5,2D1U,1.0,True,0.018,10,False,left,-0.25,999,999,0,999,999,0,A,0.14
116,0.5,1.2,2,0.38333,0.2,0.84167,116,3.775,2.7,1.35,1.85,5,1D2U,1.0,False,0.021,4,True,left,0.08333,999,999,0,999,999,0,A,0.14
117,0.5,0.1,1,0.375,0.36667,0.6,117,2.79167,0.9,0.45,0.95,5,lapse_rate,2.0,False,0.019,0,False,right,-0.25,999,999,0,999,999,0,A,0.165
118,0.5,0.1,1,0.4,0.26667,0.75,118,3.18334,1.54,0.76667,1.26667,5,2D1U,2.0,False,0.024,10,False,right,0.08333,999,999,0,999,999,0,A,0.165
119,0.5,0.1,2,0.39167,0.40833,0.81667,119,4.0,2.772,1.38333,1.88333,5,1D2U,1.0,False,0.02,5,True,left,-0.25,999,999,0,999,999,0,A,0.165
120,0.5,1.2,1,0.21667,0.35833,0.71667,120,3.1,1.612,0.80833,1.30833,5,2D1U,1.0,True,0.017,10,False,left,0.08333,999,999,0,999,999,0,A,0.14
121,0.5,0.1,1,0.35833,0.28333,0.85833,121,2.94999,0.9,0.45,0.95,5,lapse_rate,1.0,True,0.02,0,False,left,-0.25,999,999,0,999,999,0,A,0.165
122,0.5,1.2,1,0.36667,0.4,0.73333,122,3.925,2.844,1.425,1.925,5,1D2U,1.0,True,0.033,5,False,left,0.08333,999,999,0,999,999,0,A,0.14
123,0.5,0.1,1,0.38333,0.33333,0.88333,123,3.40832,1.612,0.80833,1.30833,5,2D1U,2.0,False,0.019,10,False,right,-0.25,999,999,0,999,999,0,A,0.165
124,0.5,0.1,2,0.375,0.35833,0.56667,124,2.75,0.9,0.45,0.95,5,lapse_rate,2.0,True,0.033,0,False,right,0.08333,999,999,0,999,999,0,A,0.165
125,0.5,0.1,2,0.24167,0.21667,0.71667,125,3.01668,1.684,0.84167,1.34167,5,2D1U,1.0,False,0.019,10,False,left,-0.25,999,999,0,999,999,0,A,0.165
126,0.5,1.2,1,0.4,0.23333,0.49167,126,2.575,0.9,0.45,0.95,5,lapse_rate,2.0,False,0.033,0,False,right,0.08333,999,999,0,999,999,0,A,0.14
127,0.5,1.2,2,0.2,0.20833,0.83333,127,3.66666,2.844,1.425,1.925,5,1D2U,1.0,False,0.023,5,False,left,-0.25,999,999,0,999,999,0,A,0.14
128,0.5,1.2,1,0.325,0.43333,0.80833,128,3.44166,1.756,0.875,1.375,5,2D1U,2.0,False,0.033,10,False,right,0.08333,999,999,0,999,999,0,A,0.14
129,0.5,0.1,1,0.225,0.275,0.75833,129,3.71666,2.916,1.45833,1.95833,5,1D2U,1.0,True,0.024,5,False,left,-0.25,999,999,0,999,999,0,A,0.165
130,0.5,0.1,2,0.23333,0.25833,0.60833,130,2.54999,0.9,0.45,0.95,5,lapse_rate,2.0,True,0.02,0,False,right,0.08333,999,999,0,999,999,0,A,0.165
131,0.5,0.1,2,0.35833,0.4,0.81667,131,3.49167,1.828,0.91667,1.41667,5,2D1U,1.0,False,0.02,10,False,left,-0.25,999,999,0,999,999,0,A,0.165
132,0.5,0.1,2,0.20833,0.43333,0.73333,132,2.82499,0.9,0.45,0.95,5,lapse_rate,2.0,True,0.02,0,False,right,0.08333,999,999,0,999,999,0,A,0.165
133,0.5,1.2,2,0.25833,0.25,0.85,133,3.81666,2.916,1.45833,1.95833,5,1D2U,2.0,True,0.02,5,False,right,-0.25,999,999,0,999,999,0,A,0.14
134,0.5,1.2,2,0.44167,0.4,0.64167,134,3.43334,1.9,0.95,1.45,5,2D1U,1.0,False,0.022,10,False,left,0.08333,999,999,0,999,999,0,A,0.14
135,0.5,1.2,2,0.43333,0.35,0.775,135,2.10833,-0.9,-0.45,0.05,5,lapse_rate,2.0,False,0.02,0,False,right,-0.25,999,999,0,999,999,0,A,0.14
136,0.5,0.1,1,0.38333,0.275,0.44167,136,3.55833,2.916,1.45833,1.95833,5,1D2U,1.0,True,0.021,5,False,left,0.08333,999,999,0,999,999,0,A,0.165
137,0.5,0.1,2,0.25833,0.38333,0.69167,137,2.78333,0.9,0.45,0.95,5,lapse_rate,1.0,False,0.021,0,False,left,-0.25,999,999,0,999,999,0,A,0.165
138,0.5,0.1,1,0.24167,0.275,0.675,138,3.175,1.972,0.98333,1.48333,5,2D1U,1.0,True,0.021,10,False,left,0.08333,999,999,0,999,999,0,A,0.165
139,0.5,1.2,1,0.44167,0.39167,0.7,139,3.95834,2.844,1.425,1.925,5,1D2U,1.0,True,0.02,6,True,left,-0.25,999,999,0,999,999,0,A,0.14
140,0.5,1.2,2,0.40833,0.225,0.73333,140,3.34999,1.972,0.98333,1.48333,5,2D1U,1.0,False,0.021,10,False,left,0.08333,999,999,0,999,999,0,A,0.14
141,0.5,0.1,1,0.24167,0.33333,0.68333,141,2.70833,0.9,0.45,0.95,5,lapse_rate,2.0,False,0.021,0,False,right,-0.25,999,999,0,999,999,0,A,0.165
142,0.5,0.1,2,0.40833,0.325,0.44167,142,3.6,2.844,1.425,1.925,5,1D2U,1.0,False,0.022,6,True,left,0.08333,999,999,0,999,999,0,A,0.165
143,0.5,0.1,1,0.2,0.35,0.85,143,1.95,-0.9,-0.45,0.05,5,lapse_rate,2.0,True,0.021,0,False,right,-0.25,999,999,0,999,999,0,A,0.165
144,0.5,0.1,2,0.25,0.20833,0.8,144,3.71666,2.916,1.45833,1.95833,5,1D2U,1.0,False,0.021,7,True,left,0.08333,999,999,0,999,999,0,A,0.165
145,0.5,1.2,1,0.40833,0.275,0.51667,145,3.225,2.044,1.025,1.525,5,2D1U,2.0,False,0.022,10,False,right,-0.25,999,999,0,999,999,0,A,0.14
146,0.5,1.2,2,0.275,0.325,0.775,146,2.825,0.9,0.45,0.95,5,lapse_rate,1.0,False,0.021,0,False,left,0.08333,999,999,0,999,999,0,A,0.14
147,0.5,1.2,1,0.38333,0.31667,0.825,147,3.58333,2.116,1.05833,1.55833,5,2D1U,1.0,True,0.021,10,False,left,-0.25,999,999,0,999,999,0,A,0.14
148,0.5,0.1,2,0.38333,0.44167,0.73333,148,4.05,2.988,1.49167,1.99167,5,1D2U,2.0,True,0.022,7,False,right,0.08333,999,999,0,999,999,0,A,0.165
149,0.5,0.1,2,0.26667,0.375,0.41667,149,3.55001,2.988,1.49167,1.99167,5,1D2U,2.0,True,0.022,7,False,right,-0.25,999,999,0,999,999,0,A,0.165
150,0.5,1.2,2,0.325,0.36667,0.73333,150,1.975,-0.9,-0.45,0.05,5,lapse_rate,2.0,False,0.019,0,False,right,0.08333,999,999,0,999,999,0,A,0.14
151,0.5,1.2,2,0.21667,0.45,0.725,151,3.45,2.116,1.05833,1.55833,5,2D1U,1.0,False,0.025,10,False,left,-0.25,999,999,0,999,999,0,A,0.14
152,0.5,1.2,2,0.29167,0.35833,0.6,152,3.74167,2.988,1.49167,1.99167,5,1D2U,2.0,True,0.022,7,False,right,0.08333,999,999,0,999,999,0,A,0.14
153,0.5,0.1,2,0.24167,0.275,0.48333,153,3.09167,2.188,1.09167,1.59167,5,2D1U,1.0,False,0.022,10,False,left,-0.25,999,999,0,999,999,0,A,0.165
154,0.5,0.1,2,0.21667,0.25,0.88333,154,2.8,0.9,0.45,0.95,5,lapse_rate,2.0,True,0.023,0,False,right,0.08333,999,999,0,999,999,0,A,0.165
155,0.5,0.1,1,0.36667,0.375,0.41667,155,1.70834,-0.9,-0.45,0.05,5,lapse_rate,1.0,False,0.023,0,False,left,-0.25,999,999,0,999,999,0,A,0.165
156,0.5,0.1,2,0.35,0.36667,0.51667,156,3.36667,2.26,1.13333,1.63333,5,2D1U,1.0,False,0.025,10,False,left,0.08333,999,999,0,999,999,0,A,0.165
157,0.5,1.2,1,0.26667,0.45,0.44167,157,3.61667,2.916,1.45833,1.95833,5,1D2U,1.0,True,0.023,8,True,left,-0.25,999,999,0,999,999,0,A,0.14
158,0.5,1.2,1,0.25833,0.4,0.425,158,3.54166,2.916,1.45833,1.95833,5,1D2U,2.0,False,0.022,8,True,right,0.08333,999,999,0,999,999,0,A,0.14
159,0.5,1.2,2,0.28333,0.375,0.41667,159,1.625,-0.9,-0.45,0.05,5,lapse_rate,2.0,False,0.025,0,False,right,-0.25,999,999,0,999,999,0,A,0.14
160,0.5,0.1,2,0.25833,0.35,0.64167,160,3.41667,2.332,1.16667,1.66667,5,2D1U,1.0,False,0.025,10,False,left,0.08333,999,999,0,999,999,0,A,0.165
161,0.5,0.1,2,0.35833,0.4,0.675,161,1.98333,-0.9,-0.45,0.05,5,lapse_rate,1.0,True,0.023,0,False,left,-0.25,999,999,0,999,999,0,A,0.165
162,0.5,0.1,1,0.35833,0.39167,0.525,162,3.475,2.404,1.2,1.7,5,2D1U,1.0,True,0.023,10,False,left,0.08333,999,999,0,999,999,0,A,0.165
163,0.5,1.2,1,0.26667,0.20833,0.74167,163,3.70834,2.988,1.49167,1.99167,5,1D2U,1.0,True,0.023,9,True,left,-0.25,999,999,0,999,999,0,A,0.14
164,0.5,1.2,2,0.41667,0.3,0.80833,164,2.075,-0.9,-0.45,0.05,5,lapse_rate,1.0,True,0.023,0,False,left,0.08333,999,999,0,999,999,0,A,0.14
165,0.5,1.2,2,0.21667,0.44167,0.6,165,3.45834,2.404,1.2,1.7,5,2D1U,2.0,True,0.023,10,False,right,-0.25,999,999,0,999,999,0,A,0.14
166,0.5,0.1,2,0.44167,0.21667,0.64167,166,3.79168,2.988,1.49167,1.99167,5,1D2U,2.0,True,0.024,9,True,right,0.08333,999,999,0,999,999,0,A,0.165
167,0.5,0.1,1,0.29167,0.38333,0.71667,167,3.88334,2.988,1.49167,1.99167,5,1D2U,2.0,False,0.02,9,True,right,-0.25,999,999,0,999,999,0,A,0.165
168,0.5,1.2,2,0.35,0.36667,0.58333,168,3.83333,3.06,1.53333,2.03333,5,1D2U,1.0,False,0.022,9,False,left,0.08333,999,999,0,999,999,0,A,0.14
169,0.5,1.2,1,0.35833,0.39167,0.66667,169,3.58334,2.332,1.16667,1.66667,5,2D1U,1.0,True,0.026,11,True,left,-0.25,999,999,0,999,999,0,A,0.14
170,0.5,0.1,2,0.3,0.21667,0.69167,170,3.77501,3.132,1.56667,2.06667,5,1D2U,2.0,True,0.024,9,False,right,0.08333,999,999,0,999,999,0,A,0.165
171,0.5,0.1,2,0.29167,0.375,0.6,171,3.43334,2.332,1.16667,1.66667,5,2D1U,1.0,False,0.024,11,True,left,-0.25,999,999,0,999,999,0,A,0.165
172,0.5,1.2,2,0.33333,0.325,0.84167,172,3.7,2.404,1.2,1.7,5,2D1U,1.0,False,0.024,12,True,left,0.08333,999,999,0,999,999,0,A,0.14
173,0.5,1.2,1,0.25,0.44167,0.41667,173,3.35001,2.476,1.24167,1.74167,5,2D1U,1.0,True,0.025,12,False,left,-0.25,999,999,0,999,999,0,A,0.14
174,0.5,0.1,2,0.31667,0.28333,0.53333,174,3.375,2.476,1.24167,1.74167,5,2D1U,2.0,True,0.038,12,False,right,0.08333,999,999,0,999,999,0,A,0.165
175,0.5,0.1,2,0.425,0.34167,0.85,175,4.18334,3.132,1.56667,2.06667,5,1D2U,1.0,False,0.025,9,False,left,-0.25,999,999,0,999,999,0,A,0.165
176,0.5,1.2,1,0.25,0.40833,0.76667,176,4.025,3.204,1.6,2.1,5,1D2U,1.0,True,0.026,9,False,left,0.08333,999,999,0,999,999,0,A,0.14
177,0.5,1.2,2,0.21667,0.38333,0.85,177,3.65,2.404,1.2,1.7,5,2D1U,1.0,False,0.022,13,True,left,-0.25,999,999,0,999,999,0,A,0.14
178,0.5,0.1,1,0.25833,0.36667,0.54167,178,3.40834,2.476,1.24167,1.74167,5,2D1U,1.0,True,0.025,14,True,left,0.08333,999,999,0,999,999,0,A,0.165
179,0.5,0.1,1,0.33333,0.25,0.55833,179,3.74166,3.204,1.6,2.1,5,1D2U,2.0,False,0.022,9,False,right,-0.25,999,999,0,999,999,0,A,0.165
180,0.5,1.2,1,0.36667,0.31667,0.66667,180,3.99168,3.276,1.64167,2.14167,5,1D2U,1.0,True,0.025,9,False,left,0.08333,999,999,0,999,999,0,A,0.14
181,0.5,1.2,1,0.45,0.38333,0.61667,181,3.69167,2.476,1.24167,1.74167,5,2D1U,2.0,False,0.028,14,True,right,-0.25,999,999,0,999,999,0,A,0.14
182,0.5,0.1,1,0.41667,0.41667,0.625,182,4.10001,3.276,1.64167,2.14167,5,1D2U,2.0,False,0.027,9,False,right,0.08333,999,999,0,999,999,0,A,0.165
183,0.5,0.1,1,0.41667,0.30833,0.65833,183,4.05833,3.348,1.675,2.175,5,1D2U,1.0,True,0.026,9,False,left,-0.25,999,999,0,999,999,0,A,0.165
184,0.5,1.2,2,0.39167,0.28333,0.48333,184,3.43333,2.548,1.275,1.775,5,2D1U,1.0,False,0.026,14,False,left,0.08333,999,999,0,999,999,0,A,0.14
185,0.5,1.2,1,0.38333,0.24167,0.56667,185,3.86667,3.348,1.675,2.175,5,1D2U,2.0,False,0.026,9,False,right,-0.25,999,999,0,999,999,0,A,0.14
186,0.5,0.1,2,0.39167,0.23333,0.49167,186,3.425,2.62,1.30833,1.80833,5,2D1U,1.0,False,0.026,14,False,left,0.08333,999,999,0,999,999,0,A,0.165
187,0.5,0.1,2,0.25833,0.3,0.525,187,3.43333,2.692,1.35,1.85,5,2D1U,2.0,True,0.025,14,False,right,-0.25,999,999,0,999,999,0,A,0.165
188,0.5,1.2,2,0.23333,0.35,0.775,188,4.06666,3.42,1.70833,2.20833,5,1D2U,2.0,True,0.026,9,False,right,0.08333,999,999,0,999,999,0,A,0.14
189,0.5,1.2,1,0.39167,0.425,0.7,189,3.86667,2.692,1.35,1.85,5,2D1U,1.0,True,0.026,14,False,left,-0.25,999,999,0,999,999,0,A,0.14
190,0.5,0.1,2,0.4,0.25,0.45,190,3.40833,2.62,1.30833,1.80833,5,2D1U,2.0,True,0.026,15,True,right,0.08333,999,999,0,999,999,0,A,0.165
191,0.5,0.1,1,0.21667,0.25,0.79167,191,3.56667,2.62,1.30833,1.80833,5,2D1U,1.0,True,0.026,15,True,left,-0.25,999,999,0,999,999,0,A,0.165
192,0.5,1.2,1,0.33333,0.24167,0.71667,192,3.56667,2.548,1.275,1.775,5,2D1U,2.0,False,0.024,15,False,right,0.08333,999,999,0,999,999,0,A,0.14
193,0.5,1.2,2,0.30833,0.38333,0.8,193,4.19999,3.42,1.70833,2.20833,5,1D2U,1.0,False,0.026,9,False,left,-0.25,999,999,0,999,999,0,A,0.14
194,0.5,0.1,2,0.325,0.4,0.45833,194,3.93333,3.492,1.75,2.25,5,1D2U,2.0,True,0.023,9,False,right,0.08333,999,999,0,999,999,0,A,0.165
195,0.5,0.1,1,0.31667,0.31667,0.50833,195,3.45,2.62,1.30833,1.80833,5,2D1U,1.0,True,0.024,16,True,left,-0.25,999,999,0,999,999,0,A,0.165
196,0.5,1.2,2,0.325,0.4,0.68333,196,3.71666,2.62,1.30833,1.80833,5,2D1U,1.0,False,0.03,16,True,left,0.08333,999,999,0,999,999,0,A,0.14
197,0.5,1.2,2,0.25,0.44167,0.73333,197,3.775,2.692,1.35,1.85,5,2D1U,1.0,False,0.027,16,False,left,-0.25,999,999,0,999,999,0,A,0.14
198,0.5,0.1,2,0.25,0.21667,0.74167,198,3.59167,2.764,1.38333,1.88333,5,2D1U,1.0,False,0.028,16,False,left,0.08333,999,999,0,999,999,0,A,0.165
199,0.5,0.1,1,0.39167,0.45,0.83333,199,4.425,3.492,1.75,2.25,5,1D2U,1.0,True,0.028,9,False,left,-0.25,999,999,0,999,999,0,A,0.165
200,0.5,1.2,2,0.325,0.31667,0.75,200,4.14167,3.492,1.75,2.25,5,1D2U,2.0,True,0.04,9,False,right,0.08333,999,999,0,999,999,0,A,0.14
201,0.5,1.2,1,0.2,0.375,0.45833,201,3.74166,3.42,1.70833,2.20833,5,1D2U,2.0,False,0.029,10,True,right,-0.25,999,999,0,999,999,0,A,0.14
202,0.5,0.1,1,0.2,0.36667,0.825,202,3.80834,2.836,1.41667,1.91667,5,2D1U,2.0,False,0.028,16,False,right,0.08333,999,999,0,999,999,0,A,0.165
203,0.5,0.1,2,0.35833,0.3,0.69167,203,4.1,3.492,1.75,2.25,5,1D2U,1.0,False,0.028,11,True,left,-0.25,999,999,0,999,999,0,A,0.165
204,0.5,1.2,2,0.20833,0.21667,0.85833,204,3.73333,2.908,1.45,1.95,5,2D1U,1.0,False,0.027,16,False,left,0.08333,999,999,0,999,999,0,A,0.14
205,0.5,1.2,2,0.44167,0.24167,0.75,205,3.92501,2.98,1.49167,1.99167,5,2D1U,1.0,False,0.028,16,False,left,-0.25,999,999,0,999,999,0,A,0.14
206,0.5,0.1,1,0.41667,0.34167,0.50833,206,3.79167,3.052,1.525,2.025,5,2D1U,1.0,True,0.029,16,False,left,0.08333,999,999,0,999,999,0,A,0.165
207,0.5,0.1,2,0.20833,0.34167,0.75833,207,3.83333,3.052,1.525,2.025,5,2D1U,1.0,False,0.028,16,False,left,-0.25,999,999,0,999,999,0,A,0.165
208,0.5,1.2,2,0.39167,0.24167,0.45833,208,3.875,3.564,1.78333,2.28333,5,1D2U,1.0,False,0.029,11,False,left,0.08333,999,999,0,999,999,0,A,0.14
209,0.5,1.2,1,0.25833,0.38333,0.40833,209,3.86666,3.636,1.81667,2.31667,5,1D2U,1.0,True,0.029,11,False,left,-0.25,999,999,0,999,999,0,A,0.14
210,0.5,0.1,1,0.43333,0.20833,0.54167,210,3.74166,3.124,1.55833,2.05833,5,2D1U,1.0,True,0.025,16,False,left,0.08333,999,999,0,999,999,0,A,0.165
211,0.5,0.1,1,0.39167,0.45,0.74167,211,4.40001,3.636,1.81667,2.31667,5,1D2U,2.0,False,0.029,11,False,right,-0.25,999,999,0,999,999,0,A,0.165
212,0.5,1.2,1,0.24167,0.39167,0.85833,212,4.34167,3.708,1.85,2.35,5,1D2U,2.0,False,0.03,11,False,right,0.08333,999,999,0,999,999,0,A,0.14
213,0.5,1.2,2,0.425,0.44167,0.89167,213,4.31667,3.124,1.55833,2.05833,5,2D1U,1.0,False,0.029,16,False,left,-0.25,999,999,0,999,999,0,A,0.14
214,0.5,0.1,1,0.33333,0.20833,0.525,214,3.66666,3.196,1.6,2.1,5,2D1U,1.0,True,0.029,16,False,left,0.08333,999,999,0,999,999,0,A,0.165
215,0.5,0.1,2,0.375,0.29167,0.51667,215,3.78334,3.196,1.6,2.1,5,2D1U,1.0,False,0.029,16,False,left,-0.25,999,999,0,999,999,0,A,0.165
216,0.5,1.2,2,0.325,0.3,0.9,216,4.41667,3.78,1.89167,2.39167,5,1D2U,1.0,False,0.029,11,False,left,0.08333,999,999,0,999,999,0,A,0.14
217,0.5,1.2,2,0.33333,0.34167,0.60833,217,3.91666,3.268,1.63333,2.13333,5,2D1U,2.0,True,0.032,16,False,right,-0.25,999,999,0,999,999,0,A,0.14
218,0.5,0.1,1,0.3,0.34167,0.5,218,4.06667,3.852,1.925,2.425,5,1D2U,1.0,True,0.031,11,False,left,0.08333,999,999,0,999,999,0,A,0.165
219,0.5,0.1,1,0.41667,0.41667,0.48333,219,3.95,3.268,1.63333,2.13333,5,2D1U,1.0,True,0.031,16,False,left,-0.25,999,999,0,999,999,0,A,0.165
220,0.5,1.2,2,0.4,0.225,0.61667,220,3.84167,3.196,1.6,2.1,5,2D1U,1.0,False,0.028,17,True,left,0.08333,999,999,0,999,999,0,A,0.14
221,0.5,1.2,1,0.30833,0.35,0.80833,221,4.39166,3.852,1.925,2.425,5,1D2U,1.0,True,0.03,11,False,left,-0.25,999,999,0,999,999,0,A,0.14
222,0.5,0.1,2,0.375,0.41667,0.64167,222,4.35834,3.852,1.925,2.425,5,1D2U,1.0,False,0.031,11,False,left,0.08333,999,999,0,999,999,0,A,0.165
223,0.5,0.1,2,0.29167,0.40833,0.78333,223,4.11666,3.268,1.63333,2.13333,5,2D1U,1.0,False,0.03,18,True,left,-0.25,999,999,0,999,999,0,A,0.165
224,0.5,1.2,1,0.4,0.34167,0.54167,224,4.24167,3.924,1.95833,2.45833,5,1D2U,1.0,True,0.031,11,False,left,0.08333,999,999,0,999,999,0,A,0.14
225,0.5,1.2,1,0.26667,0.38333,0.65833,225,3.975,3.34,1.66667,2.16667,5,2D1U,1.0,True,0.031,18,False,left,-0.25,999,999,0,999,999,0,A,0.14
226,0.5,0.1,2,0.43333,0.325,0.875,226,4.3,3.34,1.66667,2.16667,5,2D1U,1.0,False,0.028,18,False,left,0.08333,999,999,0,999,999,0,A,0.165
227,0.5,0.1,2,0.43333,0.21667,0.49167,227,4.1,3.924,1.95833,2.45833,5,1D2U,2.0,True,0.031,11,False,right,-0.25,999,999,0,999,999,0,A,0.165
228,0.5,1.2,1,0.25833,0.25,0.68333,228,4.14999,3.924,1.95833,2.45833,5,1D2U,2.0,False,0.028,11,False,right,0.08333,999,999,0,999,999,0,A,0.14
229,0.5,1.2,2,0.21667,0.45,0.59167,229,3.96667,3.412,1.70833,2.20833,5,2D1U,2.0,True,0.031,18,False,right,-0.25,999,999,0,999,999,0,A,0.14
230,0.5,0.1,2,0.36667,0.21667,0.43333,230,3.725,3.412,1.70833,2.20833,5,2D1U,2.0,True,0.031,18,False,right,0.08333,999,999,0,999,999,0,A,0.165
231,0.5,0.1,2,0.25833,0.44167,0.58333,231,3.95,3.34,1.66667,2.16667,5,2D1U,1.0,False,0.031,19,True,left,-0.25,999,999,0,999,999,0,A,0.165
232,0.5,1.2,1,0.25,0.31667,0.46667,232,4.03334,3.996,2.0,2.5,5,1D2U,2.0,False,0.031,11,False,right,0.08333,999,999,0,999,999,0,A,0.14
233,0.5,1.2,2,0.20833,0.275,0.55,233,3.74166,3.412,1.70833,2.20833,5,2D1U,1.0,False,0.044,20,True,left,-0.25,999,999,0,999,999,0,A,0.14
234,0.5,0.1,1,0.24167,0.35833,0.81667,234,4.15834,3.484,1.74167,2.24167,5,2D1U,2.0,False,0.032,20,False,right,0.08333,999,999,0,999,999,0,A,0.165
235,0.5,0.1,1,0.24167,0.35,0.51667,235,4.14167,4.068,2.03333,2.53333,5,1D2U,1.0,True,0.027,11,False,left,-0.25,999,999,0,999,999,0,A,0.165
236,0.5,1.2,1,0.34167,0.25,0.85,236,4.475,4.068,2.03333,2.53333,5,1D2U,2.0,False,0.032,11,False,right,0.08333,999,999,0,999,999,0,A,0.14
237,0.5,1.2,2,0.40833,0.31667,0.65,237,4.15,3.556,1.775,2.275,5,2D1U,2.0,True,0.032,20,False,right,-0.25,999,999,0,999,999,0,A,0.14
238,0.5,0.1,1,0.44167,0.39167,0.625,238,4.23334,3.556,1.775,2.275,5,2D1U,2.0,False,0.032,20,False,right,0.08333,999,999,0,999,999,0,A,0.165
239,0.5,0.1,2,0.4,0.36667,0.55833,239,4.14167,3.628,1.81667,2.31667,5,2D1U,1.0,False,0.032,20,False,left,-0.25,999,999,0,999,999,0,A,0.165
240,0.5,1.2,2,0.225,0.275,0.76667,240,4.11667,3.7,1.85,2.35,5,2D1U,1.0,False,0.031,20,False,left,0.08333,999,999,0,999,999,0,A,0.14
241,0.5,1.2,2,0.41667,0.41667,0.475,241,4.37501,4.14,2.06667,2.56667,5,1D2U,2.0,True,0.033,11,False,right,-0.25,999,999,0,999,999,0,A,0.14
242,0.5,0.1,2,0.325,0.39167,0.58333,242,4.36667,4.14,2.06667,2.56667,5,1D2U,1.0,False,0.032,11,False,left,0.08333,999,999,0,999,999,0,A,0.165
243,0.5,0.1,1,0.325,0.4,0.5,243,4.33333,4.212,2.10833,2.60833,5,1D2U,1.0,True,0.031,11,False,left,-0.25,999,999,0,999,999,0,A,0.165
244,0.5,1.2,1,0.35833,0.23333,0.51667,244,3.99166,3.772,1.88333,2.38333,5,2D1U,1.0,True,0.033,20,False,left,0.08333,999,999,0,999,999,0,A,0.14
245,0.5,1.2,1,0.25833,0.3,0.58333,245,4.24999,4.212,2.10833,2.60833,5,1D2U,1.0,True,0.033,11,False,left,-0.25,999,999,0,999,999,0,A,0.14
246,0.5,0.1,2,0.3,0.38333,0.81667,246,4.60833,4.212,2.10833,2.60833,5,1D2U,2.0,True,0.033,11,False,right,0.08333,999,999,0,999,999,0,A,0.165
247,0.5,0.1,1,0.20833,0.24167,0.81667,247,4.15,3.772,1.88333,2.38333,5,2D1U,1.0,True,0.033,20,False,left,-0.25,999,999,0,999,999,0,A,0.165
248,0.5,1.2,1,0.26667,0.4,0.54167,248,4.05834,3.7,1.85,2.35,5,2D1U,2.0,False,0.03,21,True,right,0.08333,999,999,0,999,999,0,A,0.14
249,0.5,1.2,1,0.26667,0.275,0.725,249,4.33334,4.14,2.06667,2.56667,5,1D2U,2.0,False,0.033,12,True,right,-0.25,999,999,0,999,999,0,A,0.14
250,0.5,0.1,1,0.36667,0.45,0.49167,250,4.19167,3.772,1.88333,2.38333,5,2D1U,1.0,True,0.033,22,True,left,0.08333,999,999,0,999,999,0,A,0.165
251,0.5,0.1,1,0.44167,0.275,0.48333,251,4.08333,3.772,1.88333,2.38333,5,2D1U,1.0,True,0.03,22,True,left,-0.25,999,999,0,999,999,0,A,0.165
252,0.5,1.2,2,0.40833,0.43333,0.69167,252,4.64166,4.212,2.10833,2.60833,5,1D2U,2.0,True,0.035,13,True,right,0.08333,999,999,0,999,999,0,A,0.14
253,0.5,1.2,1,0.275,0.44167,0.71667,253,4.28334,3.7,1.85,2.35,5,2D1U,2.0,False,0.034,23,True,right,-0.25,999,999,0,999,999,0,A,0.14
254,0.5,0.1,1,0.31667,0.24167,0.85833,254,4.3,3.772,1.88333,2.38333,5,2D1U,2.0,False,0.034,24,True,right,0.08333,999,999,0,999,999,0,A,0.165
255,0.5,0.1,2,0.40833,0.20833,0.85833,255,4.58332,4.212,2.10833,2.60833,5,1D2U,2.0,True,0.032,13,True,right,-0.25,999,999,0,999,999,0,A,0.165
256,0.5,1.2,2,0.30833,0.35,0.44167,256,4.025,3.844,1.925,2.425,5,2D1U,2.0,True,0.034,24,False,right,0.08333,999,999,0,999,999,0,A,0.14
257,0.5,1.2,1,0.39167,0.23333,0.68333,257,4.23333,3.844,1.925,2.425,5,2D1U,2.0,False,0.031,24,False,right,-0.25,999,999,0,999,999,0,A,0.14
258,0.5,0.1,2,0.24167,0.41667,0.875,258,4.49167,3.916,1.95833,2.45833,5,2D1U,1.0,False,0.035,24,False,left,0.08333,999,999,0,999,999,0,A,0.165
259,0.5,0.1,2,0.375,0.20833,0.61667,259,4.30833,4.212,2.10833,2.60833,5,1D2U,1.0,False,0.033,13,True,left,-0.25,999,999,0,999,999,0,A,0.165
260,0.5,1.2,2,0.325,0.36667,0.65,260,4.48334,4.284,2.14167,2.64167,5,1D2U,2.0,True,0.036,13,False,right,0.08333,999,999,0,999,999,0,A,0.14
261,0.5,1.2,2,0.34167,0.225,0.66667,261,4.37501,4.284,2.14167,2.64167,5,1D2U,1.0,False,0.032,13,False,left,-0.25,999,999,0,999,999,0,A,0.14
262,0.5,0.1,2,0.25,0.3,0.675,262,4.21667,3.988,1.99167,2.49167,5,2D1U,2.0,True,0.035,24,False,right,0.08333,999,999,0,999,999,0,A,0.165
263,0.5,0.1,1,0.35833,0.36667,0.66667,263,4.38334,3.988,1.99167,2.49167,5,2D1U,1.0,True,0.035,24,False,left,-0.25,999,999,0,999,999,0,A,0.165
264,0.5,1.2,1,0.28333,0.20833,0.71667,264,4.38333,4.356,2.175,2.675,5,1D2U,2.0,False,0.034,13,False,right,0.08333,999,999,0,999,999,0,A,0.14
265,0.5,1.2,1,0.4,0.375,0.775,265,4.76667,4.428,2.21667,2.71667,5,1D2U,2.0,False,0.034,13,False,right,-0.25,999,999,0,999,999,0,A,0.14
266,0.5,0.1,1,0.41667,0.25,0.575,266,4.49167,4.5,2.25,2.75,5,1D2U,2.0,False,0.034,13,False,right,0.08333,999,999,0,999,999,0,A,0.165
267,0.5,0.1,2,0.35,0.2,0.85,267,4.68333,4.572,2.28333,2.78333,5,1D2U,1.0,False,0.03,13,False,left,-0.25,999,999,0,999,999,0,A,0.165
268,0.5,1.2,2,0.35833,0.29167,0.58333,268,4.19166,3.916,1.95833,2.45833,5,2D1U,2.0,True,0.035,25,True,right,0.08333,999,999,0,999,999,0,A,0.14
269,0.5,1.2,1,0.225,0.31667,0.425,269,4.29167,4.644,2.325,2.825,5,1D2U,1.0,True,0.035,13,False,left,-0.25,999,999,0,999,999,0,A,0.14
270,0.5,0.1,2,0.31667,0.28333,0.55,270,4.10833,3.916,1.95833,2.45833,5,2D1U,2.0,True,0.032,25,True,right,0.08333,999,999,0,999,999,0,A,0.165
271,0.5,0.1,1,0.44167,0.31667,0.85,271,4.53334,3.844,1.925,2.425,5,2D1U,2.0,False,0.032,25,False,right,-0.25,999,999,0,999,999,0,A,0.165
272,0.5,1.2,2,0.36667,0.23333,0.525,272,4.45,4.644,2.325,2.825,5,1D2U,2.0,True,0.032,13,False,right,0.08333,999,999,0,999,999,0,A,0.14
273,0.5,1.2,2,0.30833,0.33333,0.66667,273,4.63333,4.644,2.325,2.825,5,1D2U,1.0,False,0.032,13,False,left,-0.25,999,999,0,999,999,0,A,0.14
274,0.5,0.1,1,0.33333,0.39167,0.50833,274,4.19166,3.916,1.95833,2.45833,5,2D1U,1.0,True,0.032,26,True,left,0.08333,999,999,0,999,999,0,A,0.165
275,0.5,0.1,1,0.35833,0.28333,0.85833,275,4.45832,3.916,1.95833,2.45833,5,2D1U,2.0,False,0.036,26,True,right,-0.25,999,999,0,999,999,0,A,0.165
276,0.5,1.2,2,0.21667,0.225,0.6,276,4.4,4.716,2.35833,2.85833,5,1D2U,2.0,True,0.036,13,False,right,0.08333,999,999,0,999,999,0,A,0.14
277,0.5,1.2,1,0.2,0.225,0.775,277,4.19167,3.988,1.99167,2.49167,5,2D1U,1.0,True,0.035,26,False,left,-0.25,999,999,0,999,999,0,A,0.14
278,0.5,0.1,1,0.23333,0.31667,0.71667,278,4.625,4.716,2.35833,2.85833,5,1D2U,1.0,True,0.039,13,False,left,0.08333,999,999,0,999,999,0,A,0.165
279,0.5,0.1,1,0.39167,0.40833,0.48333,279,4.64166,4.716,2.35833,2.85833,5,1D2U,1.0,True,0.033,13,False,left,-0.25,999,999,0,999,999,0,A,0.165
280,0.5,1.2,1,0.35,0.425,0.85,280,4.61667,3.988,1.99167,2.49167,5,2D1U,2.0,False,0.036,26,False,right,0.08333,999,999,0,999,999,0,A,0.14
281,0.5,1.2,1,0.45,0.21667,0.51667,281,4.50834,4.644,2.325,2.825,5,1D2U,1.0,True,0.036,14,True,left,-0.25,999,999,0,999,999,0,A,0.14
282,0.5,0.1,2,0.375,0.30833,0.86667,282,4.875,4.644,2.325,2.825,5,1D2U,1.0,False,0.033,14,True,left,0.08333,999,999,0,999,999,0,A,0.165
283,0.5,0.1,2,0.26667,0.275,0.48333,283,4.05833,4.06,2.03333,2.53333,5,2D1U,2.0,True,0.039,26,False,right,-0.25,999,999,0,999,999,0,A,0.165
284,0.5,1.2,2,0.34167,0.33333,0.40833,284,4.11666,4.06,2.03333,2.53333,5,2D1U,2.0,True,0.032,26,False,right,0.08333,999,999,0,999,999,0,A,0.14
285,0.5,1.2,2,0.275,0.20833,0.69167,285,4.16667,3.988,1.99167,2.49167,5,2D1U,2.0,True,0.038,27,True,right,-0.25,999,999,0,999,999,0,A,0.14
286,0.5,0.1,1,0.34167,0.425,0.61667,286,4.74167,4.716,2.35833,2.85833,5,1D2U,1.0,True,0.035,15,True,left,0.08333,999,999,0,999,999,0,A,0.165
287,0.5,0.1,1,0.225,0.44167,0.60833,287,4.26667,3.988,1.99167,2.49167,5,2D1U,2.0,False,0.038,27,True,right,-0.25,999,999,0,999,999,0,A,0.165
288,0.5,1.2,1,0.45,0.36667,0.46667,288,4.31667,4.06,2.03333,2.53333,5,2D1U,1.0,True,0.033,28,True,left,0.08333,999,999,0,999,999,0,A,0.14
289,0.5,1.2,1,0.275,0.20833,0.48333,289,4.32499,4.716,2.35833,2.85833,5,1D2U,1.0,True,0.035,15,True,left,-0.25,999,999,0,999,999,0,A,0.14
290,0.5,0.1,2,0.36667,0.35,0.86667,290,4.61667,4.06,2.03333,2.53333,5,2D1U,1.0,False,0.041,28,True,left,0.08333,999,999,0,999,999,0,A,0.165
291,0.5,0.1,1,0.41667,0.29167,0.85,291,4.62501,4.132,2.06667,2.56667,5,2D1U,1.0,True,0.034,28,False,left,-0.25,999,999,0,999,999,0,A,0.165
292,0.5,1.2,2,0.40833,0.41667,0.60833,292,4.79166,4.716,2.35833,2.85833,5,1D2U,2.0,True,0.045,15,True,right,0.08333,999,999,0,999,999,0,A,0.14
293,0.5,1.2,1,0.25833,0.225,0.64167,293,4.45,4.644,2.325,2.825,5,1D2U,1.0,True,0.034,16,True,left,-0.25,999,999,0,999,999,0,A,0.14
294,0.5,0.1,2,0.24167,0.41667,0.68333,294,4.40834,4.132,2.06667,2.56667,5,2D1U,2.0,True,0.031,28,False,right,0.08333,999,999,0,999,999,0,A,0.165
295,0.5,0.1,2,0.3,0.36667,0.79167,295,4.78334,4.644,2.325,2.825,5,1D2U,1.0,False,0.031,16,True,left,-0.25,999,999,0,999,999,0,A,0.165
296,0.5,1.2,2,0.31667,0.33333,0.76667,296,4.45,4.06,2.03333,2.53333,5,2D1U,2.0,True,0.035,29,True,right,0.08333,999,999,0,999,999,0,A,0.14
297,0.5,1.2,2,0.225,0.425,0.49167,297,4.175,4.06,2.03333,2.53333,5,2D1U,1.0,False,0.033,29,True,left,-0.25,999,999,0,999,999,0,A,0.14
298,0.5,0.1,1,0.425,0.29167,0.875,298,4.95,4.716,2.35833,2.85833,5,1D2U,1.0,True,0.036,17,True,left,0.08333,999,999,0,999,999,0,A,0.165
299,0.5,0.1,2,0.45,0.275,0.88333,299,4.675,4.132,2.06667,2.56667,5,2D1U,1.0,False,0.035,30,True,left,-0.25,999,999,0,999,999,0,A,0.165
300,0.5,1.2,1,0.24167,0.35,0.7,300,4.65,4.716,2.35833,2.85833,5,1D2U,1.0,True,0.035,17,True,left,0.08333,999,999,0,999,999,0,A,0.14
301,0.5,1.2,1,0.31667,0.44167,0.79167,301,4.65001,4.204,2.1,2.6,5,2D1U,1.0,True,0.038,30,False,left,-0.25,999,999,0,999,999,0,A,0.14
302,0.5,0.1,1,0.30833,0.38333,0.5,302,4.29166,4.204,2.1,2.6,5,2D1U,2.0,False,0.035,30,False,right,0.08333,999,999,0,999,999,0,A,0.165
303,0.5,0.1,2,0.24167,0.35,0.55833,303,4.50833,4.716,2.35833,2.85833,5,1D2U,2.0,True,0.035,17,True,right,-0.25,999,999,0,999,999,0,A,0.165
304,0.5,1.2,2,0.2,0.40833,0.64167,304,4.575,4.644,2.325,2.825,5,1D2U,1.0,False,0.039,18,True,left,0.08333,999,999,0,999,999,0,A,0.14
305,0.5,1.2,2,0.3,0.39167,0.65,305,4.7,4.716,2.35833,2.85833,5,1D2U,1.0,False,0.037,19,True,left,-0.25,999,999,0,999,999,0,A,0.14
306,0.5,0.1,2,0.24167,0.39167,0.43333,306,4.45834,4.788,2.39167,2.89167,5,1D2U,1.0,False,0.035,19,False,left,0.08333,999,999,0,999,999,0,A,0.165
307,0.5,0.1,2,0.225,0.3,0.60833,307,4.275,4.276,2.14167,2.64167,5,2D1U,2.0,True,0.037,30,False,right,-0.25,999,999,0,999,999,0,A,0.165
308,0.5,1.2,2,0.41667,0.26667,0.79167,308,4.61668,4.276,2.14167,2.64167,5,2D1U,1.0,False,0.049,30,False,left,0.08333,999,999,0,999,999,0,A,0.14
309,0.5,1.2,1,0.35,0.375,0.65,309,4.80833,4.86,2.43333,2.93333,5,1D2U,2.0,False,0.04,19,False,right,-0.25,999,999,0,999,999,0,A,0.14
310,0.5,0.1,2,0.35,0.28333,0.75833,310,4.85833,4.932,2.46667,2.96667,5,1D2U,1.0,False,0.036,19,False,left,0.08333,999,999,0,999,999,0,A,0.165
311,0.5,0.1,2,0.43333,0.36667,0.75,311,4.725,4.348,2.175,2.675,5,2D1U,1.0,False,0.036,30,False,left,-0.25,999,999,0,999,999,0,A,0.165
312,0.5,1.2,2,0.25833,0.44167,0.525,312,4.43333,4.42,2.20833,2.70833,5,2D1U,2.0,True,0.041,30,False,right,0.08333,999,999,0,999,999,0,A,0.14
313,0.5,1.2,1,0.2,0.41667,0.74167,313,4.85834,5.004,2.5,3.0,5,1D2U,2.0,False,0.037,19,False,right,-0.25,999,999,0,999,999,0,A,0.14
314,0.5,0.1,2,0.33333,0.30833,0.83333,314,4.68332,4.42,2.20833,2.70833,5,2D1U,1.0,False,0.033,30,False,left,0.08333,999,999,0,999,999,0,A,0.165
315,0.5,0.1,2,0.375,0.325,0.54167,315,4.78334,5.076,2.54167,3.04167,5,1D2U,1.0,False,0.038,19,False,left,-0.25,999,999,0,999,999,0,A,0.165
316,0.5,1.2,1,0.30833,0.35833,0.775,316,4.69166,4.492,2.25,2.75,5,2D1U,2.0,False,0.035,30,False,right,0.08333,999,999,0,999,999,0,A,0.14
317,0.5,1.2,2,0.35833,0.25,0.79167,317,4.68333,4.564,2.28333,2.78333,5,2D1U,1.0,False,0.037,30,False,left,-0.25,999,999,0,999,999,0,A,0.14
318,0.5,0.1,2,0.25833,0.275,0.80833,318,4.65833,4.636,2.31667,2.81667,5,2D1U,2.0,True,0.048,30,False,right,0.08333,999,999,0,999,999,0,A,0.165
319,0.5,0.1,1,0.23333,0.39167,0.58333,319,4.78333,5.148,2.575,3.075,5,1D2U,1.0,True,0.033,19,False,left,-0.25,999,999,0,999,999,0,A,0.165
320,0.5,1.2,2,0.39167,0.36667,0.48333,320,4.55834,4.636,2.31667,2.81667,5,2D1U,1.0,False,0.038,30,False,left,0.08333,999,999,0,999,999,0,A,0.14
321,0.5,1.2,2,0.375,0.30833,0.56667,321,4.825,5.148,2.575,3.075,5,1D2U,2.0,True,0.038,19,False,right,-0.25,999,999,0,999,999,0,A,0.14
322,0.5,0.1,1,0.225,0.35,0.76667,322,4.91667,5.148,2.575,3.075,5,1D2U,1.0,True,0.037,19,False,left,0.08333,999,999,0,999,999,0,A,0.165
323,0.5,0.1,2,0.25,0.39167,0.58333,323,4.575,4.708,2.35,2.85,5,2D1U,1.0,False,0.038,30,False,left,-0.25,999,999,0,999,999,0,A,0.165
324,0.5,1.2,1,0.375,0.38333,0.55,324,4.85,5.076,2.54167,3.04167,5,1D2U,2.0,False,0.041,20,True,right,0.08333,999,999,0,999,999,0,A,0.14
325,0.5,1.2,1,0.25,0.24167,0.43333,325,4.5,5.148,2.575,3.075,5,1D2U,2.0,False,0.039,21,True,right,-0.25,999,999,0,999,999,0,A,0.14
326,0.5,0.1,2,0.36667,0.43333,0.69167,326,4.88334,4.78,2.39167,2.89167,5,2D1U,2.0,True,0.049,30,False,right,0.08333,999,999,0,999,999,0,A,0.165
327,0.5,0.1,2,0.30833,0.20833,0.83333,327,4.95832,5.22,2.60833,3.10833,5,1D2U,2.0,True,0.043,21,False,right,-0.25,999,999,0,999,999,0,A,0.165
328,0.5,1.2,1,0.24167,0.34167,0.65,328,4.62501,4.78,2.39167,2.89167,5,2D1U,1.0,True,0.042,30,False,left,0.08333,999,999,0,999,999,0,A,0.14
329,0.5,1.2,1,0.2,0.35,0.425,329,4.58333,5.22,2.60833,3.10833,5,1D2U,1.0,True,0.038,21,False,left,-0.25,999,999,0,999,999,0,A,0.14
330,0.5,0.1,2,0.30833,0.43333,0.66667,330,4.75833,4.708,2.35,2.85,5,2D1U,2.0,True,0.037,31,True,right,0.08333,999,999,0,999,999,0,A,0.165
331,0.5,0.1,1,0.25833,0.23333,0.59167,331,4.69166,5.22,2.60833,3.10833,5,1D2U,2.0,False,0.038,21,False,right,-0.25,999,999,0,999,999,0,A,0.165
332,0.5,1.2,1,0.38333,0.21667,0.75,332,4.7,4.708,2.35,2.85,5,2D1U,2.0,False,0.038,31,True,right,0.08333,999,999,0,999,999,0,A,0.14
333,0.5,1.2,1,0.2,0.39167,0.85833,333,5.1,5.292,2.65,3.15,5,1D2U,2.0,False,0.04,21,False,right,-0.25,999,999,0,999,999,0,A,0.14
334,0.5,0.1,1,0.30833,0.45,0.8,334,5.24166,5.364,2.68333,3.18333,5,1D2U,1.0,True,0.039,21,False,left,0.08333,999,999,0,999,999,0,A,0.165
335,0.5,0.1,2,0.35833,0.375,0.625,335,5.04166,5.364,2.68333,3.18333,5,1D2U,2.0,True,0.039,21,False,right,-0.25,999,999,0,999,999,0,A,0.165
336,0.5,1.2,1,0.26667,0.34167,0.73333,336,4.73334,4.78,2.39167,2.89167,5,2D1U,2.0,False,0.039,32,True,right,0.08333,999,999,0,999,999,0,A,0.14
337,0.5,1.2,1,0.25,0.40833,0.625,337,4.96666,5.364,2.68333,3.18333,5,1D2U,1.0,True,0.039,21,False,left,-0.25,999,999,0,999,999,0,A,0.14
338,0.5,0.1,2,0.425,0.325,0.875,338,5.275,5.292,2.65,3.15,5,1D2U,2.0,True,0.039,22,True,right,0.08333,999,999,0,999,999,0,A,0.165
339,0.5,0.1,2,0.29167,0.26667,0.425,339,4.40834,4.852,2.425,2.925,5,2D1U,2.0,True,0.038,32,False,right,-0.25,999,999,0,999,999,0,A,0.165
340,0.5,1.2,1,0.35833,0.26667,0.40833,340,4.45833,4.852,2.425,2.925,5,2D1U,1.0,True,0.039,32,False,left,0.08333,999,999,0,999,999,0,A,0.14
341,0.5,1.2,2,0.24167,0.29167,0.54167,341,4.72501,5.292,2.65,3.15,5,1D2U,2.0,True,0.039,22,True,right,-0.25,999,999,0,999,999,0,A,0.14
342,0.5,0.1,1,0.45,0.4,0.59167,342,5.09167,5.292,2.65,3.15,5,1D2U,2.0,False,0.039,22,True,right,0.08333,999,999,0,999,999,0,A,0.165
343,0.5,0.1,1,0.39167,0.35833,0.525,343,4.66667,4.78,2.39167,2.89167,5,2D1U,2.0,False,0.039,33,True,right,-0.25,999,999,0,999,999,0,A,0.165
344,0.5,1.2,1,0.39167,0.20833,0.775,344,5.05833,5.364,2.68333,3.18333,5,1D2U,2.0,False,0.039,23,True,right,0.08333,999,999,0,999,999,0,A,0.14
345,0.5,1.2,1,0.41667,0.30833,0.71667,345,4.86667,4.852,2.425,2.925,5,2D1U,1.0,True,0.039,34,True,left,-0.25,999,999,0,999,999,0,A,0.14
346,0.5,0.1,2,0.425,0.39167,0.83333,346,5.36667,5.436,2.71667,3.21667,5,1D2U,1.0,False,0.039,23,False,left,0.08333,999,999,0,999,999,0,A,0.165
347,0.5,0.1,2,0.23333,0.39167,0.45,347,4.825,5.508,2.75,3.25,5,1D2U,1.0,False,0.04,23,False,left,-0.25,999,999,0,999,999,0,A,0.165
348,0.5,1.2,1,0.33333,0.25,0.45833,348,4.46666,4.852,2.425,2.925,5,2D1U,2.0,False,0.045,34,True,right,0.08333,999,999,0,999,999,0,A,0.14
349,0.5,1.2,2,0.425,0.225,0.65833,349,5.1,5.58,2.79167,3.29167,5,1D2U,2.0,True,0.04,23,False,right,-0.25,999,999,0,999,999,0,A,0.14
350,0.5,0.1,2,0.26667,0.275,0.41667,350,4.41667,4.924,2.45833,2.95833,5,2D1U,1.0,False,0.04,34,False,left,0.08333,999,999,0,999,999,0,A,0.165
351,0.5,0.1,2,0.35,0.44167,0.69167,351,5.27501,5.58,2.79167,3.29167,5,1D2U,1.0,False,0.04,23,False,left,-0.25,999,999,0,999,999,0,A,0.165
352,0.5,1.2,2,0.39167,0.29167,0.84167,352,5.02501,4.996,2.5,3.0,5,2D1U,1.0,False,0.039,34,False,left,0.08333,999,999,0,999,999,0,A,0.14
353,0.5,1.2,2,0.375,0.375,0.7,353,4.98333,5.068,2.53333,3.03333,5,2D1U,2.0,True,0.04,34,False,right,-0.25,999,999,0,999,999,0,A,0.14
354,0.5,0.1,2,0.39167,0.30833,0.48333,354,5.00833,5.652,2.825,3.325,5,1D2U,1.0,False,0.039,23,False,left,0.08333,999,999,0,999,999,0,A,0.165
355,0.5,0.1,2,0.29167,0.35,0.425,355,4.925,5.724,2.85833,3.35833,5,1D2U,1.0,False,0.04,23,False,left,-0.25,999,999,0,999,999,0,A,0.165
356,0.5,1.2,1,0.43333,0.41667,0.55,356,5.3,5.796,2.9,3.4,5,1D2U,2.0,False,0.04,23,False,right,0.08333,999,999,0,999,999,0,A,0.14
357,0.5,1.2,1,0.21667,0.21667,0.41667,357,4.38334,5.068,2.53333,3.03333,5,2D1U,2.0,False,0.041,34,False,right,-0.25,999,999,0,999,999,0,A,0.14
358,0.5,0.1,1,0.3,0.35,0.65,358,5.23333,5.868,2.93333,3.43333,5,1D2U,1.0,True,0.04,23,False,left,0.08333,999,999,0,999,999,0,A,0.165
359,0.5,0.1,2,0.39167,0.28333,0.75833,359,5.0,5.14,2.56667,3.06667,5,2D1U,1.0,False,0.041,34,False,left,-0.25,999,999,0,999,999,0,A,0.165
360,0.5,1.2,1,0.20833,0.25833,0.48333,360,4.55832,5.212,2.60833,3.10833,5,2D1U,1.0,True,0.038,34,False,left,0.08333,999,999,0,999,999,0,A,0.14
361,0.5,1.2,1,0.38333,0.20833,0.81667,361,5.34166,5.868,2.93333,3.43333,5,1D2U,1.0,True,0.085,23,False,left,-0.25,999,999,0,999,999,0,A,0.14
362,0.5,0.1,2,0.325,0.225,0.85,362,5.00833,5.212,2.60833,3.10833,5,2D1U,2.0,True,0.041,34,False,right,0.08333,999,999,0,999,999,0,A,0.165
363,0.5,0.1,2,0.41667,0.21667,0.65,363,4.85001,5.14,2.56667,3.06667,5,2D1U,1.0,False,0.04,35,True,left,-0.25,999,999,0,999,999,0,A,0.165
364,0.5,1.2,1,0.23333,0.29167,0.70833,364,5.16666,5.868,2.93333,3.43333,5,1D2U,1.0,True,0.042,23,False,left,0.08333,999,999,0,999,999,0,A,0.14
365,0.5,1.2,2,0.325,0.30833,0.86667,365,5.10833,5.212,2.60833,3.10833,5,2D1U,2.0,True,0.041,36,True,right,-0.25,999,999,0,999,999,0,A,0.14
366,0.5,0.1,2,0.24167,0.45,0.88333,366,5.475,5.796,2.9,3.4,5,1D2U,2.0,True,0.05,24,True,right,0.08333,999,999,0,999,999,0,A,0.165
367,0.5,0.1,2,0.35,0.30833,0.49167,367,4.75833,5.212,2.60833,3.10833,5,2D1U,2.0,True,0.047,36,True,right,-0.25,999,999,0,999,999,0,A,0.165
368,0.5,1.2,2,0.2,0.375,0.61667,368,4.75834,5.14,2.56667,3.06667,5,2D1U,2.0,True,0.048,37,True,right,0.08333,999,999,0,999,999,0,A,0.14
369,0.5,1.2,2,0.425,0.31667,0.70833,369,5.01667,5.14,2.56667,3.06667,5,2D1U,2.0,True,0.049,37,True,right,-0.25,999,999,0,999,999,0,A,0.14
370,0.5,0.1,1,0.23333,0.45,0.56667,370,5.15,5.796,2.9,3.4,5,1D2U,1.0,True,0.048,24,True,left,0.08333,999,999,0,999,999,0,A,0.165
371,0.5,0.1,1,0.20833,0.29167,0.59167,371,4.625,5.068,2.53333,3.03333,5,2D1U,1.0,True,0.043,37,False,left,-0.25,999,999,0,999,999,0,A,0.165
372,0.5,1.2,2,0.275,0.25,0.50833,372,4.93333,5.796,2.9,3.4,5,1D2U,1.0,False,0.042,24,True,left,0.08333,999,999,0,999,999,0,A,0.14
373,0.5,1.2,1,0.26667,0.38333,0.45,373,5.03333,5.868,2.93333,3.43333,5,1D2U,2.0,False,0.042,25,True,right,-0.25,999,999,0,999,999,0,A,0.14
374,0.5,0.1,1,0.40833,0.23333,0.525,374,5.13333,5.94,2.96667,3.46667,5,1D2U,1.0,True,0.043,25,False,left,0.08333,999,999,0,999,999,0,A,0.165
375,0.5,0.1,2,0.275,0.375,0.51667,375,4.7,5.068,2.53333,3.03333,5,2D1U,2.0,True,0.042,37,False,right,-0.25,999,999,0,999,999,0,A,0.165
376,0.5,1.2,2,0.36667,0.30833,0.51667,376,5.15834,5.94,2.96667,3.46667,5,1D2U,2.0,True,0.043,25,False,right,0.08333,999,999,0,999,999,0,A,0.14
377,0.5,1.2,1,0.33333,0.24167,0.54167,377,5.08334,5.94,2.96667,3.46667,5,1D2U,1.0,True,0.043,25,False,left,-0.25,999,999,0,999,999,0,A,0.14
378,0.5,0.1,2,0.325,0.25833,0.65,378,5.16666,5.868,2.93333,3.43333,5,1D2U,1.0,False,0.042,26,True,left,0.08333,999,999,0,999,999,0,A,0.165
379,0.5,0.1,2,0.33333,0.3,0.425,379,4.55833,4.996,2.5,3.0,5,2D1U,2.0,True,0.043,37,False,right,-0.25,999,999,0,999,999,0,A,0.165
380,0.5,1.2,2,0.35,0.29167,0.55833,380,4.7,4.996,2.5,3.0,5,2D1U,2.0,True,0.043,37,False,right,0.08333,999,999,0,999,999,0,A,0.14
381,0.5,1.2,2,0.34167,0.43333,0.78333,381,5.525,5.94,2.96667,3.46667,5,1D2U,1.0,False,0.043,27,True,left,-0.25,999,999,0,999,999,0,A,0.14
382,0.5,0.1,2,0.35833,0.35,0.50833,382,4.67499,4.924,2.45833,2.95833,5,2D1U,1.0,False,0.043,37,False,left,0.08333,999,999,0,999,999,0,A,0.165
383,0.5,0.1,2,0.33333,0.29167,0.55,383,5.18333,6.012,3.00833,3.50833,5,1D2U,2.0,True,0.042,27,False,right,-0.25,999,999,0,999,999,0,A,0.165
384,0.5,1.2,1,0.25,0.425,0.4,384,4.575,4.996,2.5,3.0,5,2D1U,2.0,False,0.042,38,True,right,0.08333,999,999,0,999,999,0,A,0.14
385,0.5,1.2,2,0.26667,0.225,0.78333,385,5.28333,6.012,3.00833,3.50833,5,1D2U,2.0,True,0.052,27,False,right,-0.25,999,999,0,999,999,0,A,0.14
386,0.5,0.1,2,0.24167,0.26667,0.7,386,5.21667,6.012,3.00833,3.50833,5,1D2U,1.0,False,0.045,27,False,left,0.08333,999,999,0,999,999,0,A,0.165
387,0.5,0.1,2,0.35,0.35,0.88333,387,5.625,6.084,3.04167,3.54167,5,1D2U,1.0,False,0.044,27,False,left,-0.25,999,999,0,999,999,0,A,0.165
388,0.5,1.2,2,0.31667,0.28333,0.65,388,4.78333,5.068,2.53333,3.03333,5,2D1U,2.0,True,0.04,38,False,right,0.08333,999,999,0,999,999,0,A,0.14
389,0.5,1.2,1,0.23333,0.43333,0.825,389,5.02499,5.068,2.53333,3.03333,5,2D1U,2.0,False,0.049,38,False,right,-0.25,999,999,0,999,999,0,A,0.14
390,0.5,0.1,1,0.26667,0.375,0.625,390,5.34167,6.156,3.075,3.575,5,1D2U,1.0,True,0.051,27,False,left,0.08333,999,999,0,999,999,0,A,0.165
391,0.5,0.1,2,0.24167,0.39167,0.425,391,5.13334,6.156,3.075,3.575,5,1D2U,1.0,False,0.044,27,False,left,-0.25,999,999,0,999,999,0,A,0.165
392,0.5,1.2,2,0.34167,0.36667,0.64167,392,4.91668,5.14,2.56667,3.06667,5,2D1U,1.0,False,0.052,38,False,left,0.08333,999,999,0,999,999,0,A,0.14
393,0.5,1.2,1,0.25,0.30833,0.60833,393,5.28333,6.228,3.11667,3.61667,5,1D2U,1.0,True,0.044,27,False,left,-0.25,999,999,0,999,999,0,A,0.14
394,0.5,0.1,1,0.425,0.20833,0.75833,394,4.99999,5.212,2.60833,3.10833,5,2D1U,2.0,False,0.045,38,False,right,0.08333,999,999,0,999,999,0,A,0.165
395,0.5,0.1,1,0.275,0.43333,0.725,395,5.075,5.284,2.64167,3.14167,5,2D1U,2.0,False,0.044,38,False,right,-0.25,999,999,0,999,999,0,A,0.165
396,0.5,1.2,2,0.24167,0.33333,0.59167,396,5.28334,6.228,3.11667,3.61667,5,1D2U,2.0,True,0.045,27,False,right,0.08333,999,999,0,999,999,0,A,0.14
397,0.5,1.2,1,0.425,0.43333,0.86667,397,5.84167,6.228,3.11667,3.61667,5,1D2U,2.0,False,0.044,27,False,right,-0.25,999,999,0,999,999,0,A,0.14
398,0.5,0.1,1,0.325,0.29167,0.41667,398,4.70834,5.356,2.675,3.175,5,2D1U,1.0,True,0.048,38,False,left,0.08333,999,999,0,999,999,0,A,0.165
399,0.5,0.1,1,0.3,0.225,0.75,399,5.425,6.3,3.15,3.65,5,1D2U,2.0,False,0.045,27,False,right,-0.25,999,999,0,999,999,0,A,0.165
400,0.5,1.2,2,0.34167,0.2,0.8,400,5.525,6.372,3.18333,3.68333,5,1D2U,2.0,True,0.044,27,False,right,0.08333,999,999,0,999,999,0,A,0.14
401,0.5,1.2,1,0.38333,0.225,0.6,401,4.88333,5.356,2.675,3.175,5,2D1U,2.0,False,0.044,38,False,right,-0.25,999,999,0,999,999,0,A,0.14
402,0.5,0.1,2,0.26667,0.43333,0.70833,402,5.125,5.428,2.71667,3.21667,5,2D1U,1.0,False,0.045,38,False,left,0.08333,999,999,0,999,999,0,A,0.165
403,0.5,0.1,1,0.3,0.43333,0.68333,403,5.59999,6.372,3.18333,3.68333,5,1D2U,2.0,False,0.045,27,False,right,-0.25,999,999,0,999,999,0,A,0.165
404,0.5,1.2,1,0.375,0.3,0.55,404,4.975,5.5,2.75,3.25,5,2D1U,1.0,True,0.046,38,False,left,0.08333,999,999,0,999,999,0,A,0.14
405,0.5,1.2,1,0.35833,0.20833,0.475,405,4.79166,5.5,2.75,3.25,5,2D1U,2.0,False,0.046,38,False,right,-0.25,999,999,0,999,999,0,A,0.14
406,0.5,0.1,1,0.28333,0.275,0.88333,406,5.66666,6.444,3.225,3.725,5,1D2U,1.0,True,0.046,27,False,left,0.08333,999,999,0,999,999,0,A,0.165
407,0.5,0.1,1,0.3,0.4,0.74167,407,5.66667,6.444,3.225,3.725,5,1D2U,1.0,True,0.047,27,False,left,-0.25,999,999,0,999,999,0,A,0.165
408,0.5,1.2,2,0.36667,0.31667,0.475,408,4.94167,5.572,2.78333,3.28333,5,2D1U,1.0,False,0.046,38,False,left,0.08333,999,999,0,999,999,0,A,0.14
409,0.5,1.2,2,0.4,0.38333,0.85833,409,5.46666,5.644,2.825,3.325,5,2D1U,2.0,True,0.046,38,False,right,-0.25,999,999,0,999,999,0,A,0.14
410,0.5,0.1,1,0.36667,0.35,0.59167,410,5.13334,5.644,2.825,3.325,5,2D1U,2.0,False,0.046,38,False,right,0.08333,999,999,0,999,999,0,A,0.165
411,0.5,0.1,2,0.25,0.20833,0.825,411,5.50833,6.444,3.225,3.725,5,1D2U,1.0,False,0.047,27,False,left,-0.25,999,999,0,999,999,0,A,0.165
412,0.5,1.2,2,0.23333,0.21667,0.81667,412,5.125,5.716,2.85833,3.35833,5,2D1U,2.0,True,0.045,38,False,right,0.08333,999,999,0,999,999,0,A,0.14
413,0.5,1.2,2,0.4,0.39167,0.46667,413,5.51667,6.516,3.25833,3.75833,5,1D2U,1.0,False,0.047,27,False,left,-0.25,999,999,0,999,999,0,A,0.14
414,0.5,0.1,1,0.275,0.225,0.6,414,5.39167,6.588,3.29167,3.79167,5,1D2U,1.0,True,0.049,27,False,left,0.08333,999,999,0,999,999,0,A,0.165
415,0.5,0.1,2,0.40833,0.31667,0.49167,415,5.075,5.716,2.85833,3.35833,5,2D1U,2.0,True,0.047,38,False,right,-0.25,999,999,0,999,999,0,A,0.165
416,0.5,1.2,2,0.3,0.30833,0.725,416,5.625,6.588,3.29167,3.79167,5,1D2U,2.0,True,0.047,27,False,right,0.08333,999,999,0,999,999,0,A,0.14
417,0.5,1.2,1,0.26667,0.44167,0.40833,417,4.94167,5.644,2.825,3.325,5,2D1U,1.0,True,0.047,39,True,left,-0.25,999,999,0,999,999,0,A,0.14
418,0.5,0.1,2,0.275,0.41667,0.59167,418,5.57501,6.588,3.29167,3.79167,5,1D2U,2.0,True,0.048,27,False,right,0.08333,999,999,0,999,999,0,A,0.165
419,0.5,0.1,1,0.35,0.2,0.71667,419,5.525,6.516,3.25833,3.75833,5,1D2U,2.0,False,0.047,28,True,right,-0.25,999,999,0,999,999,0,A,0.165
420,0.5,1.2,1,0.44167,0.35833,0.575,420,5.2,5.644,2.825,3.325,5,2D1U,1.0,True,0.044,39,True,left,0.08333,999,999,0,999,999,0,A,0.14
421,0.5,1.2,1,0.33333,0.28333,0.775,421,5.17499,5.572,2.78333,3.28333,5,2D1U,1.0,True,0.047,39,False,left,-0.25,999,999,0,999,999,0,A,0.14
422,0.5,0.1,2,0.21667,0.31667,0.63333,422,5.45834,6.588,3.29167,3.79167,5,1D2U,1.0,False,0.047,29,True,left,0.08333,999,999,0,999,999,0,A,0.165
423,0.5,0.1,2,0.44167,0.375,0.85833,423,5.45833,5.572,2.78333,3.28333,5,2D1U,2.0,True,0.047,39,False,right,-0.25,999,999,0,999,999,0,A,0.165
424,0.5,1.2,2,0.31667,0.23333,0.44167,424,4.74167,5.5,2.75,3.25,5,2D1U,2.0,True,0.047,39,False,right,0.08333,999,999,0,999,999,0,A,0.14
425,0.5,1.2,2,0.44167,0.25833,0.85,425,5.88333,6.66,3.33333,3.83333,5,1D2U,2.0,True,0.048,29,False,right,-0.25,999,999,0,999,999,0,A,0.14
426,0.5,0.1,2,0.35,0.43333,0.75,426,5.86666,6.66,3.33333,3.83333,5,1D2U,1.0,False,0.048,29,False,left,0.08333,999,999,0,999,999,0,A,0.165
427,0.5,0.1,2,0.39167,0.34167,0.64167,427,5.12501,5.5,2.75,3.25,5,2D1U,2.0,True,0.047,39,False,right,-0.25,999,999,0,999,999,0,A,0.165
428,0.5,1.2,1,0.36667,0.29167,0.60833,428,4.98334,5.428,2.71667,3.21667,5,2D1U,2.0,False,0.045,39,False,right,0.08333,999,999,0,999,999,0,A,0.14
429,0.5,1.2,1,0.275,0.25,0.875,429,5.76667,6.732,3.36667,3.86667,5,1D2U,2.0,False,0.048,29,False,right,-0.25,999,999,0,999,999,0,A,0.14
430,0.5,0.1,2,0.29167,0.25,0.71667,430,5.00834,5.5,2.75,3.25,5,2D1U,1.0,False,0.048,40,True,left,0.08333,999,999,0,999,999,0,A,0.165
431,0.5,0.1,1,0.425,0.325,0.83333,431,5.36666,5.572,2.78333,3.28333,5,2D1U,2.0,False,0.049,40,False,right,-0.25,999,999,0,999,999,0,A,0.165
432,0.5,1.2,1,0.45,0.43333,0.89167,432,6.175,6.804,3.4,3.9,5,1D2U,1.0,True,0.05,29,False,left,0.08333,999,999,0,999,999,0,A,0.14
433,0.5,1.2,1,0.36667,0.24167,0.66667,433,5.10001,5.644,2.825,3.325,5,2D1U,1.0,True,0.048,40,False,left,-0.25,999,999,0,999,999,0,A,0.14
434,0.5,0.1,2,0.33333,0.41667,0.54167,434,5.11667,5.644,2.825,3.325,5,2D1U,2.0,True,0.051,40,False,right,0.08333,999,999,0,999,999,0,A,0.165
435,0.5,0.1,1,0.44167,0.325,0.59167,435,5.14167,5.572,2.78333,3.28333,5,2D1U,1.0,True,0.048,41,True,left,-0.25,999,999,0,999,999,0,A,0.165
436,0.5,1.2,2,0.4,0.33333,0.6,436,5.73333,6.804,3.4,3.9,5,1D2U,1.0,False,0.048,29,False,left,0.08333,999,999,0,999,999,0,A,0.14
437,0.5,1.2,2,0.34167,0.425,0.46667,437,5.01667,5.572,2.78333,3.28333,5,2D1U,1.0,False,0.048,41,True,left,-0.25,999,999,0,999,999,0,A,0.14
438,0.5,0.1,1,0.40833,0.44167,0.53333,438,5.825,6.876,3.44167,3.94167,5,1D2U,1.0,True,0.05,29,False,left,0.08333,999,999,0,999,999,0,A,0.165
439,0.5,0.1,1,0.35,0.40833,0.46667,439,5.66667,6.876,3.44167,3.94167,5,1D2U,1.0,True,0.052,29,False,left,-0.25,999,999,0,999,999,0,A,0.165
440,0.5,1.2,2,0.24167,0.36667,0.725,440,5.15834,5.644,2.825,3.325,5,2D1U,1.0,False,0.049,42,True,left,0.08333,999,999,0,999,999,0,A,0.14
441,0.5,1.2,1,0.4,0.3,0.54167,441,5.1,5.716,2.85833,3.35833,5,2D1U,1.0,True,0.052,42,False,left,-0.25,999,999,0,999,999,0,A,0.14
442,0.5,0.1,2,0.35,0.25,0.83333,442,5.875,6.876,3.44167,3.94167,5,1D2U,2.0,True,0.049,29,False,right,0.08333,999,999,0,999,999,0,A,0.165
443,0.5,0.1,2,0.45,0.20833,0.83333,443,5.34999,5.716,2.85833,3.35833,5,2D1U,1.0,False,0.049,42,False,left,-0.25,999,999,0,999,999,0,A,0.165
444,0.5,1.2,1,0.36667,0.35,0.89167,444,5.50001,5.788,2.89167,3.39167,5,2D1U,1.0,True,0.046,42,False,left,0.08333,999,999,0,999,999,0,A,0.14
445,0.5,1.2,1,0.425,0.36667,0.45,445,5.64167,6.804,3.4,3.9,5,1D2U,2.0,False,0.05,30,True,right,-0.25,999,999,0,999,999,0,A,0.14
446,0.5,0.1,1,0.325,0.45,0.63333,446,5.3,5.788,2.89167,3.39167,5,2D1U,1.0,True,0.055,42,False,left,0.08333,999,999,0,999,999,0,A,0.165
447,0.5,0.1,2,0.33333,0.31667,0.9,447,5.99167,6.876,3.44167,3.94167,5,1D2U,1.0,False,0.05,31,True,left,-0.25,999,999,0,999,999,0,A,0.165
448,0.5,1.2,1,0.43333,0.25833,0.85833,448,6.02499,6.948,3.475,3.975,5,1D2U,1.0,True,0.05,31,False,left,0.08333,999,999,0,999,999,0,A,0.14
449,0.5,1.2,1,0.21667,0.29167,0.49167,449,5.47501,6.948,3.475,3.975,5,1D2U,2.0,False,0.05,31,False,right,-0.25,999,999,0,999,999,0,A,0.14
450,0.5,0.1,2,0.325,0.21667,0.79167,450,5.84167,7.02,3.50833,4.00833,5,1D2U,2.0,True,0.052,31,False,right,0.08333,999,999,0,999,999,0,A,0.165
451,0.5,0.1,1,0.2,0.425,0.69167,451,5.175,5.716,2.85833,3.35833,5,2D1U,1.0,True,0.049,43,True,left,-0.25,999,999,0,999,999,0,A,0.165
452,0.5,1.2,1,0.30833,0.225,0.73333,452,5.12499,5.716,2.85833,3.35833,5,2D1U,2.0,False,0.048,43,True,right,0.08333,999,999,0,999,999,0,A,0.14
453,0.5,1.2,2,0.21667,0.2,0.725,453,5.65,7.02,3.50833,4.00833,5,1D2U,2.0,True,0.05,31,False,right,-0.25,999,999,0,999,999,0,A,0.14
454,0.5,0.1,2,0.21667,0.26667,0.60833,454,5.6,7.02,3.50833,4.00833,5,1D2U,2.0,True,0.052,31,False,right,0.08333,999,999,0,999,999,0,A,0.165
455,0.5,0.1,2,0.35833,0.28333,0.44167,455,5.55833,6.948,3.475,3.975,5,1D2U,1.0,False,0.05,32,True,left,-0.25,999,999,0,999,999,0,A,0.165
456,0.5,1.2,2,0.31667,0.28333,0.775,456,5.26667,5.788,2.89167,3.39167,5,2D1U,2.0,True,0.05,44,True,right,0.08333,999,999,0,999,999,0,A,0.14
457,0.5,1.2,2,0.375,0.28333,0.66667,457,5.83333,7.02,3.50833,4.00833,5,1D2U,2.0,True,0.05,33,True,right,-0.25,999,999,0,999,999,0,A,0.14
458,0.5,0.1,2,0.21667,0.38333,0.46667,458,5.575,7.02,3.50833,4.00833,5,1D2U,1.0,False,0.05,33,True,left,0.08333,999,999,0,999,999,0,A,0.165
459,0.5,0.1,1,0.30833,0.35833,0.74167,459,5.95833,7.092,3.55,4.05,5,1D2U,1.0,True,0.05,33,False,left,-0.25,999,999,0,999,999,0,A,0.165
460,0.5,1.2,1,0.225,0.39167,0.53333,460,5.04167,5.788,2.89167,3.39167,5,2D1U,1.0,True,0.049,44,True,left,0.08333,999,999,0,999,999,0,A,0.14
461,0.5,1.2,1,0.26667,0.40833,0.55833,461,5.09166,5.716,2.85833,3.35833,5,2D1U,2.0,False,0.056,45,True,right,-0.25,999,999,0,999,999,0,A,0.14
462,0.5,0.1,2,0.23333,0.26667,0.73333,462,5.78333,7.092,3.55,4.05,5,1D2U,1.0,False,0.048,33,False,left,0.08333,999,999,0,999,999,0,A,0.165
463,0.5,0.1,2,0.375,0.43333,0.65,463,5.35,5.788,2.89167,3.39167,5,2D1U,2.0,True,0.047,46,True,right,-0.25,999,999,0,999,999,0,A,0.165
464,0.5,1.2,2,0.4,0.30833,0.83333,464,5.43333,5.788,2.89167,3.39167,5,2D1U,1.0,False,0.057,46,True,left,0.08333,999,999,0,999,999,0,A,0.14
465,0.5,1.2,1,0.44167,0.21667,0.40833,465,5.65,7.164,3.58333,4.08333,5,1D2U,2.0,False,0.048,33,False,right,-0.25,999,999,0,999,999,0,A,0.14
466,0.5,0.1,1,0.425,0.25,0.55,466,5.84167,7.236,3.61667,4.11667,5,1D2U,1.0,True,0.049,33,False,left,0.08333,999,999,0,999,999,0,A,0.165
467,0.5,0.1,1,0.30833,0.34167,0.71667,467,5.3,5.86,2.93333,3.43333,5,2D1U,1.0,True,0.052,46,False,left,-0.25,999,999,0,999,999,0,A,0.165
468,0.5,1.2,2,0.3,0.35,0.64167,468,5.90834,7.236,3.61667,4.11667,5,1D2U,2.0,True,0.057,33,False,right,0.08333,999,999,0,999,999,0,A,0.14
469,0.5,1.2,2,0.35,0.3,0.41667,469,5.68334,7.236,3.61667,4.11667,5,1D2U,2.0,True,0.052,33,False,right,-0.25,999,999,0,999,999,0,A,0.14
470,0.5,0.1,2,0.225,0.24167,0.51667,470,5.56667,7.164,3.58333,4.08333,5,1D2U,2.0,True,0.052,34,True,right,0.08333,999,999,0,999,999,0,A,0.165
471,0.5,0.1,2,0.38333,0.29167,0.78333,471,5.39166,5.86,2.93333,3.43333,5,2D1U,2.0,True,0.053,46,False,right,-0.25,999,999,0,999,999,0,A,0.165
472,0.5,1.2,1,0.26667,0.36667,0.71667,472,5.93334,7.164,3.58333,4.08333,5,1D2U,1.0,True,0.052,34,True,left,0.08333,999,999,0,999,999,0,A,0.14
473,0.5,1.2,1,0.25,0.38333,0.45833,473,5.67499,7.164,3.58333,4.08333,5,1D2U,1.0,True,0.059,34,True,left,-0.25,999,999,0,999,999,0,A,0.14
474,0.5,0.1,2,0.26667,0.23333,0.61667,474,5.00834,5.788,2.89167,3.39167,5,2D1U,2.0,True,0.054,47,True,right,0.08333,999,999,0,999,999,0,A,0.165
475,0.5,0.1,2,0.26667,0.39167,0.70833,475,5.91667,7.092,3.55,4.05,5,1D2U,1.0,False,0.052,34,False,left,-0.25,999,999,0,999,999,0,A,0.165
476,0.5,1.2,2,0.2,0.425,0.70833,476,5.225,5.788,2.89167,3.39167,5,2D1U,1.0,False,0.048,47,True,left,0.08333,999,999,0,999,999,0,A,0.14
477,0.5,1.2,2,0.40833,0.35,0.675,477,6.01666,7.164,3.58333,4.08333,5,1D2U,1.0,False,0.052,35,True,left,-0.25,999,999,0,999,999,0,A,0.14
478,0.5,0.1,1,0.3,0.33333,0.65833,478,5.22499,5.86,2.93333,3.43333,5,2D1U,2.0,False,0.053,48,True,right,0.08333,999,999,0,999,999,0,A,0.165
479,0.5,0.1,1,0.36667,0.21667,0.875,479,6.07501,7.236,3.61667,4.11667,5,1D2U,2.0,False,0.058,35,False,right,-0.25,999,999,0,999,999,0,A,0.165
480,0.5,1.2,1,0.225,0.21667,0.45,480,5.54167,7.308,3.65,4.15,5,1D2U,1.0,True,0.053,35,False,left,0.08333,999,999,0,999,999,0,A,0.14
481,0.5,1.2,1,0.39167,0.36667,0.825,481,5.55001,5.932,2.96667,3.46667,5,2D1U,2.0,False,0.049,48,False,right,-0.25,999,999,0,999,999,0,A,0.14
482,0.5,0.1,2,0.25833,0.28333,0.725,482,5.26666,6.004,3.0,3.5,5,2D1U,2.0,True,0.057,48,False,right,0.08333,999,999,0,999,999,0,A,0.165
483,0.5,0.1,1,0.275,0.31667,0.75833,483,6.0,7.308,3.65,4.15,5,1D2U,2.0,False,0.057,35,False,right,-0.25,999,999,0,999,999,0,A,0.165
484,0.5,1.2,1,0.25833,0.28333,0.71667,484,5.25833,6.004,3.0,3.5,5,2D1U,2.0,False,0.05,48,False,right,0.08333,999,999,0,999,999,0,A,0.14
485,0.5,1.2,2,0.20833,0.325,0.775,485,5.35,6.076,3.04167,3.54167,5,2D1U,1.0,False,0.06,48,False,left,-0.25,999,999,0,999,999,0,A,0.14
486,0.5,0.1,2,0.20833,0.39167,0.69167,486,5.98334,7.38,3.69167,4.19167,5,1D2U,2.0,True,0.051,35,False,right,0.08333,999,999,0,999,999,0,A,0.165
487,0.5,0.1,1,0.375,0.25833,0.83333,487,6.15833,7.38,3.69167,4.19167,5,1D2U,1.0,True,0.049,35,False,left,-0.25,999,999,0,999,999,0,A,0.165
488,0.5,1.2,1,0.35,0.3,0.64167,488,5.98334,7.38,3.69167,4.19167,5,1D2U,1.0,True,0.058,35,False,left,0.08333,999,999,0,999,999,0,A,0.14
489,0.5,1.2,2,0.3,0.31667,0.56667,489,5.83334,7.308,3.65,4.15,5,1D2U,2.0,True,0.051,36,True,right,-0.25,999,999,0,999,999,0,A,0.14
490,0.5,0.1,2,0.39167,0.35,0.4,490,5.21667,6.148,3.075,3.575,5,2D1U,2.0,True,0.05,48,False,right,0.08333,999,999,0,999,999,0,A,0.165
491,0.5,0.1,1,0.35,0.28333,0.85,491,5.55833,6.148,3.075,3.575,5,2D1U,2.0,False,0.058,48,False,right,-0.25,999,999,0,999,999,0,A,0.165
492,0.5,1.2,1,0.24167,0.25833,0.60833,492,5.75833,7.308,3.65,4.15,5,1D2U,1.0,True,0.052,36,True,left,0.08333,999,999,0,999,999,0,A,0.14
493,0.5,1.2,2,0.40833,0.36667,0.74167,493,6.16667,7.308,3.65,4.15,5,1D2U,1.0,False,0.053,36,True,left,-0.25,999,999,0,999,999,0,A,0.14
494,0.5,0.1,1,0.44167,0.26667,0.84167,494,6.24168,7.38,3.69167,4.19167,5,1D2U,2.0,False,0.049,37,True,right,0.08333,999,999,0,999,999,0,A,0.165
495,0.5,0.1,1,0.275,0.33333,0.675,495,6.00833,7.452,3.725,4.225,5,1D2U,2.0,False,0.054,37,False,right,-0.25,999,999,0,999,999,0,A,0.165
496,0.5,1.2,1,0.325,0.38333,0.44167,496,5.25833,6.22,3.10833,3.60833,5,2D1U,1.0,True,0.054,48,False,left,0.08333,999,999,0,999,999,0,A,0.14
497,0.5,1.2,1,0.25833,0.35833,0.875,497,5.59999,6.22,3.10833,3.60833,5,2D1U,1.0,True,0.05,48,False,left,-0.25,999,999,0,999,999,0,A,0.14
498,0.5,0.1,2,0.39167,0.425,0.66667,498,6.24167,7.524,3.75833,4.25833,5,1D2U,2.0,True,0.05,37,False,right,0.08333,999,999,0,999,999,0,A,0.165
499,0.5,0.1,1,0.31667,0.39167,0.65,499,6.11667,7.524,3.75833,4.25833,5,1D2U,1.0,True,0.054,37,False,left,-0.25,999,999,0,999,999,0,A,0.165
500,0.5,1.2,2,0.2,0.43333,0.45,500,5.84166,7.524,3.75833,4.25833,5,1D2U,1.0,False,0.058,37,False,left,0.08333,999,999,0,999,999,0,A,0.14
501,0.5,1.2,1,0.3,0.33333,0.49167,501,5.925,7.596,3.8,4.3,5,1D2U,2.0,False,0.06,37,False,right,-0.25,999,999,0,999,999,0,A,0.14
502,0.5,0.1,2,0.275,0.43333,0.475,502,5.25833,6.148,3.075,3.575,5,2D1U,2.0,True,0.057,49,True,right,0.08333,999,999,0,999,999,0,A,0.165
503,0.5,0.1,1,0.39167,0.31667,0.675,503,6.21667,7.668,3.83333,4.33333,5,1D2U,2.0,False,0.055,37,False,right,-0.25,999,999,0,999,999,0,A,0.165
504,0.5,1.2,1,0.25,0.39167,0.40833,504,5.125,6.148,3.075,3.575,5,2D1U,1.0,True,0.053,49,True,left,0.08333,999,999,0,999,999,0,A,0.14
505,0.5,1.2,1,0.38333,0.43333,0.46667,505,6.15,7.74,3.86667,4.36667,5,1D2U,1.0,True,0.052,37,False,left,-0.25,999,999,0,999,999,0,A,0.14
506,0.5,0.1,2,0.38333,0.425,0.625,506,5.475,6.076,3.04167,3.54167,5,2D1U,1.0,False,0.049,49,False,left,0.08333,999,999,0,999,999,0,A,0.165
507,0.5,0.1,2,0.36667,0.33333,0.41667,507,5.98334,7.74,3.86667,4.36667,5,1D2U,2.0,True,0.052,37,False,right,-0.25,999,999,0,999,999,0,A,0.165
508,0.5,1.2,1,0.4,0.44167,0.625,508,5.54167,6.148,3.075,3.575,5,2D1U,1.0,True,0.051,50,True,left,0.08333,999,999,0,999,999,0,A,0.14
509,0.5,1.2,2,0.40833,0.31667,0.625,509,6.21667,7.74,3.86667,4.36667,5,1D2U,2.0,True,0.057,37,False,right,-0.25,999,999,0,999,999,0,A,0.14
510,0.5,0.1,1,0.44167,0.35833,0.475,510,5.35,6.148,3.075,3.575,5,2D1U,1.0,True,0.054,50,True,left,0.08333,999,999,0,999,999,0,A,0.165
511,0.5,0.1,2,0.39167,0.21667,0.68333,511,6.125,7.668,3.83333,4.33333,5,1D2U,2.0,True,0.067,38,True,right,-0.25,999,999,0,999,999,0,A,0.165
512,0.5,1.2,2,0.24167,0.325,0.6,512,6.0,7.668,3.83333,4.33333,5,1D2U,2.0,True,0.057,38,True,right,0.08333,999,999,0,999,999,0,A,0.14
513,0.5,1.2,1,0.225,0.34167,0.85,513,6.25,7.668,3.83333,4.33333,5,1D2U,1.0,True,0.052,38,True,left,-0.25,999,999,0,999,999,0,A,0.14
514,0.5,0.1,2,0.43333,0.225,0.5,514,5.2,6.076,3.04167,3.54167,5,2D1U,1.0,False,0.058,51,True,left,0.08333,999,999,0,999,999,0,A,0.165
515,0.5,0.1,1,0.4,0.24167,0.89167,515,5.60834,6.148,3.075,3.575,5,2D1U,1.0,True,0.058,52,True,left,-0.25,999,999,0,999,999,0,A,0.165
516,0.5,1.2,1,0.40833,0.375,0.50833,516,6.09166,7.596,3.8,4.3,5,1D2U,1.0,True,0.057,38,False,left,0.08333,999,999,0,999,999,0,A,0.14
517,0.5,1.2,2,0.44167,0.3,0.675,517,5.49167,6.148,3.075,3.575,5,2D1U,2.0,True,0.053,52,True,right,-0.25,999,999,0,999,999,0,A,0.14
518,0.5,0.1,1,0.375,0.28333,0.61667,518,6.075,7.596,3.8,4.3,5,1D2U,1.0,True,0.06,38,False,left,0.08333,999,999,0,999,999,0,A,0.165
519,0.5,0.1,2,0.39167,0.34167,0.61667,519,5.39168,6.076,3.04167,3.54167,5,2D1U,1.0,False,0.063,53,True,left,-0.25,999,999,0,999,999,0,A,0.165
520,0.5,1.2,1,0.26667,0.33333,0.89167,520,6.29167,7.596,3.8,4.3,5,1D2U,1.0,True,0.053,38,False,left,0.08333,999,999,0,999,999,0,A,0.14
521,0.5,1.2,1,0.4,0.36667,0.51667,521,5.35834,6.148,3.075,3.575,5,2D1U,1.0,True,0.055,54,True,left,-0.25,999,999,0,999,999,0,A,0.14
522,0.5,0.1,1,0.40833,0.24167,0.46667,522,5.19167,6.148,3.075,3.575,5,2D1U,1.0,True,0.064,54,True,left,0.08333,999,999,0,999,999,0,A,0.165
523,0.5,0.1,1,0.425,0.23333,0.73333,523,6.14999,7.524,3.75833,4.25833,5,1D2U,2.0,False,0.063,38,False,right,-0.25,999,999,0,999,999,0,A,0.165
524,0.5,1.2,1,0.30833,0.30833,0.79167,524,5.45,6.076,3.04167,3.54167,5,2D1U,2.0,False,0.053,55,True,right,0.08333,999,999,0,999,999,0,A,0.14
525,0.5,1.2,2,0.23333,0.33333,0.625,525,5.99166,7.596,3.8,4.3,5,1D2U,1.0,False,0.062,39,True,left,-0.25,999,999,0,999,999,0,A,0.14
526,0.5,0.1,2,0.28333,0.375,0.65833,526,6.14999,7.668,3.83333,4.33333,5,1D2U,2.0,True,0.057,39,False,right,0.08333,999,999,0,999,999,0,A,0.165
527,0.5,0.1,2,0.36667,0.375,0.575,527,6.15,7.668,3.83333,4.33333,5,1D2U,1.0,False,0.06,39,False,left,-0.25,999,999,0,999,999,0,A,0.165
528,0.5,1.2,2,0.33333,0.25,0.50833,528,5.16666,6.148,3.075,3.575,5,2D1U,2.0,True,0.062,56,True,right,0.08333,999,999,0,999,999,0,A,0.14
529,0.5,1.2,2,0.29167,0.4,0.64167,529,5.40834,6.148,3.075,3.575,5,2D1U,2.0,True,0.069,56,True,right,-0.25,999,999,0,999,999,0,A,0.14
530,0.5,0.1,2,0.36667,0.23333,0.73333,530,6.2,7.74,3.86667,4.36667,5,1D2U,1.0,False,0.057,39,False,left,0.08333,999,999,0,999,999,0,A,0.165
531,0.5,0.1,2,0.30833,0.34167,0.48333,531,6.04166,7.812,3.90833,4.40833,5,1D2U,1.0,False,0.054,39,False,left,-0.25,999,999,0,999,999,0,A,0.165
532,0.5,1.2,2,0.29167,0.34167,0.875,532,5.55001,6.076,3.04167,3.54167,5,2D1U,1.0,False,0.054,57,True,left,0.08333,999,999,0,999,999,0,A,0.14
533,0.5,1.2,1,0.31667,0.38333,0.7,533,6.34167,7.884,3.94167,4.44167,5,1D2U,2.0,False,0.058,39,False,right,-0.25,999,999,0,999,999,0,A,0.14
534,0.5,0.1,1,0.24167,0.25833,0.76667,534,5.34167,6.148,3.075,3.575,5,2D1U,1.0,True,0.054,58,True,left,0.08333,999,999,0,999,999,0,A,0.165
535,0.5,0.1,2,0.36667,0.43333,0.65,535,6.425,7.956,3.975,4.475,5,1D2U,2.0,True,0.055,39,False,right,-0.25,999,999,0,999,999,0,A,0.165
536,0.5,1.2,1,0.4,0.36667,0.65,536,6.39167,7.956,3.975,4.475,5,1D2U,1.0,True,0.059,39,False,left,0.08333,999,999,0,999,999,0,A,0.14
537,0.5,1.2,1,0.29167,0.24167,0.725,537,6.23334,7.956,3.975,4.475,5,1D2U,1.0,True,0.066,39,False,left,-0.25,999,999,0,999,999,0,A,0.14
538,0.5,0.1,1,0.26667,0.36667,0.55833,538,5.26667,6.148,3.075,3.575,5,2D1U,1.0,True,0.054,58,True,left,0.08333,999,999,0,999,999,0,A,0.165
539,0.5,0.1,2,0.38333,0.35,0.83333,539,6.50833,7.884,3.94167,4.44167,5,1D2U,2.0,True,0.067,40,True,right,-0.25,999,999,0,999,999,0,A,0.165
540,0.5,1.2,2,0.33333,0.40833,0.78333,540,5.56666,6.076,3.04167,3.54167,5,2D1U,1.0,False,0.055,59,True,left,0.08333,999,999,0,999,999,0,A,0.14
541,0.5,1.2,2,0.31667,0.20833,0.58333,541,5.18333,6.148,3.075,3.575,5,2D1U,2.0,True,0.063,60,True,right,-0.25,999,999,0,999,999,0,A,0.14
542,0.5,0.1,1,0.225,0.39167,0.86667,542,5.55834,6.148,3.075,3.575,5,2D1U,2.0,False,0.054,60,True,right,0.08333,999,999,0,999,999,0,A,0.165
543,0.5,0.1,1,0.35833,0.275,0.70833,543,6.28333,7.884,3.94167,4.44167,5,1D2U,2.0,False,0.059,40,True,right,-0.25,999,999,0,999,999,0,A,0.165
544,0.5,1.2,1,0.24167,0.41667,0.51667,544,5.28334,6.22,3.10833,3.60833,5,2D1U,2.0,False,0.061,60,False,right,0.08333,999,999,0,999,999,0,A,0.14
545,0.5,1.2,1,0.24167,0.4,0.675,545,6.29167,7.956,3.975,4.475,5,1D2U,2.0,False,0.055,41,True,right,-0.25,999,999,0,999,999,0,A,0.14
546,0.5,0.1,1,0.24167,0.24167,0.70833,546,5.34167,6.292,3.15,3.65,5,2D1U,1.0,True,0.06,60,False,left,0.08333,999,999,0,999,999,0,A,0.165
547,0.5,0.1,2,0.225,0.225,0.575,547,5.175,6.292,3.15,3.65,5,2D1U,1.0,False,0.066,60,False,left,-0.25,999,999,0,999,999,0,A,0.165
548,0.5,1.2,2,0.35833,0.31667,0.64167,548,5.5,6.364,3.18333,3.68333,5,2D1U,1.0,False,0.058,60,False,left,0.08333,999,999,0,999,999,0,A,0.14
549,0.5,1.2,2,0.28333,0.40833,0.84167,549,5.75,6.436,3.21667,3.71667,5,2D1U,2.0,True,0.056,60,False,right,-0.25,999,999,0,999,999,0,A,0.14
550,0.5,0.1,2,0.43333,0.275,0.84167,550,6.56667,8.028,4.01667,4.51667,5,1D2U,2.0,True,0.057,41,False,right,0.08333,999,999,0,999,999,0,A,0.165
551,0.5,0.1,2,0.43333,0.41667,0.45833,551,5.525,6.436,3.21667,3.71667,5,2D1U,2.0,True,0.058,60,False,right,-0.25,999,999,0,999,999,0,A,0.165
552,0.5,1.2,1,0.43333,0.30833,0.76667,552,5.69166,6.364,3.18333,3.68333,5,2D1U,1.0,True,0.055,61,True,left,0.08333,999,999,0,999,999,0,A,0.14
553,0.5,1.2,1,0.35833,0.35,0.51667,553,6.24167,8.028,4.01667,4.51667,5,1D2U,2.0,False,0.056,41,False,right,-0.25,999,999,0,999,999,0,A,0.14
554,0.5,0.1,2,0.35,0.38333,0.625,554,6.40833,8.1,4.05,4.55,5,1D2U,2.0,True,0.056,41,False,right,0.08333,999,999,0,999,999,0,A,0.165
555,0.5,0.1,2,0.29167,0.39167,0.50833,555,6.24167,8.1,4.05,4.55,5,1D2U,2.0,True,0.062,41,False,right,-0.25,999,999,0,999,999,0,A,0.165
556,0.5,1.2,1,0.41667,0.29167,0.74167,556,5.63334,6.364,3.18333,3.68333,5,2D1U,1.0,True,0.061,61,True,left,0.08333,999,999,0,999,999,0,A,0.14
557,0.5,1.2,1,0.4,0.225,0.5,557,5.275,6.292,3.15,3.65,5,2D1U,1.0,True,0.063,61,False,left,-0.25,999,999,0,999,999,0,A,0.14
558,0.5,0.1,1,0.44167,0.39167,0.48333,558,5.46667,6.292,3.15,3.65,5,2D1U,1.0,True,0.056,61,False,left,0.08333,999,999,0,999,999,0,A,0.165
559,0.5,0.1,1,0.38333,0.35833,0.88333,559,6.67499,8.1,4.05,4.55,5,1D2U,1.0,True,0.061,41,False,left,-0.25,999,999,0,999,999,0,A,0.165
560,0.5,1.2,2,0.2,0.33333,0.75833,560,5.39999,6.22,3.10833,3.60833,5,2D1U,1.0,False,0.057,61,False,left,0.08333,999,999,0,999,999,0,A,0.14
561,0.5,1.2,2,0.30833,0.225,0.75833,561,6.30833,8.028,4.01667,4.51667,5,1D2U,2.0,True,0.057,42,True,right,-0.25,999,999,0,999,999,0,A,0.14
562,0.5,0.1,2,0.26667,0.375,0.725,562,6.38334,8.028,4.01667,4.51667,5,1D2U,1.0,False,0.058,42,True,left,0.08333,999,999,0,999,999,0,A,0.165
563,0.5,0.1,2,0.44167,0.39167,0.4,563,6.28334,8.1,4.05,4.55,5,1D2U,1.0,False,0.057,43,True,left,-0.25,999,999,0,999,999,0,A,0.165
564,0.5,1.2,2,0.30833,0.38333,0.775,564,5.61666,6.292,3.15,3.65,5,2D1U,2.0,True,0.06,62,True,right,0.08333,999,999,0,999,999,0,A,0.14
565,0.5,1.2,2,0.21667,0.30833,0.44167,565,6.05,8.172,4.08333,4.58333,5,1D2U,1.0,False,0.064,43,False,left,-0.25,999,999,0,999,999,0,A,0.14
566,0.5,0.1,2,0.35833,0.325,0.66667,566,6.475,8.244,4.125,4.625,5,1D2U,1.0,False,0.068,43,False,left,0.08333,999,999,0,999,999,0,A,0.165
567,0.5,0.1,1,0.3,0.33333,0.56667,567,5.35,6.292,3.15,3.65,5,2D1U,1.0,True,0.057,62,True,left,-0.25,999,999,0,999,999,0,A,0.165
568,0.5,1.2,1,0.375,0.33333,0.76667,568,6.63333,8.316,4.15833,4.65833,5,1D2U,1.0,True,0.058,43,False,left,0.08333,999,999,0,999,999,0,A,0.14
569,0.5,1.2,2,0.39167,0.34167,0.65,569,5.49167,6.22,3.10833,3.60833,5,2D1U,2.0,True,0.058,63,True,right,-0.25,999,999,0,999,999,0,A,0.14
570,0.5,0.1,1,0.21667,0.275,0.6,570,6.25,8.316,4.15833,4.65833,5,1D2U,1.0,True,0.059,43,False,left,0.08333,999,999,0,999,999,0,A,0.165
571,0.5,0.1,2,0.225,0.325,0.60833,571,5.26666,6.22,3.10833,3.60833,5,2D1U,2.0,True,0.058,63,True,right,-0.25,999,999,0,999,999,0,A,0.165
572,0.5,1.2,2,0.4,0.29167,0.89167,572,6.74167,8.316,4.15833,4.65833,5,1D2U,1.0,False,0.062,43,False,left,0.08333,999,999,0,999,999,0,A,0.14
573,0.5,1.2,2,0.33333,0.25,0.53333,573,5.19166,6.148,3.075,3.575,5,2D1U,2.0,True,0.057,63,False,right,-0.25,999,999,0,999,999,0,A,0.14
574,0.5,0.1,1,0.43333,0.4,0.49167,574,6.51667,8.388,4.19167,4.69167,5,1D2U,1.0,True,0.063,43,False,left,0.08333,999,999,0,999,999,0,A,0.165
575,0.5,0.1,1,0.35,0.23333,0.65833,575,6.43333,8.388,4.19167,4.69167,5,1D2U,1.0,True,0.064,43,False,left,-0.25,999,999,0,999,999,0,A,0.165
576,0.5,1.2,2,0.43333,0.23333,0.69167,576,5.43333,6.148,3.075,3.575,5,2D1U,1.0,False,0.055,63,False,left,0.08333,999,999,0,999,999,0,A,0.14
577,0.5,1.2,1,0.40833,0.25,0.48333,577,6.33333,8.388,4.19167,4.69167,5,1D2U,1.0,True,0.057,43,False,left,-0.25,999,999,0,999,999,0,A,0.14
578,0.5,0.1,2,0.24167,0.4,0.475,578,5.225,6.22,3.10833,3.60833,5,2D1U,1.0,False,0.059,64,True,left,0.08333,999,999,0,999,999,0,A,0.165
579,0.5,0.1,2,0.25,0.24167,0.65833,579,6.30833,8.316,4.15833,4.65833,5,1D2U,1.0,False,0.071,44,True,left,-0.25,999,999,0,999,999,0,A,0.165
580,0.5,1.2,2,0.25,0.35,0.69167,580,5.44167,6.292,3.15,3.65,5,2D1U,2.0,True,0.062,64,False,right,0.08333,999,999,0,999,999,0,A,0.14
581,0.5,1.2,2,0.40833,0.25,0.69167,581,6.54167,8.388,4.19167,4.69167,5,1D2U,1.0,False,0.076,45,True,left,-0.25,999,999,0,999,999,0,A,0.14
582,0.5,0.1,1,0.41667,0.30833,0.79167,582,6.75,8.46,4.23333,4.73333,5,1D2U,1.0,True,0.065,45,False,left,0.08333,999,999,0,999,999,0,A,0.165
583,0.5,0.1,2,0.41667,0.4,0.6,583,5.56667,6.292,3.15,3.65,5,2D1U,1.0,False,0.066,64,False,left,-0.25,999,999,0,999,999,0,A,0.165
584,0.5,1.2,1,0.24167,0.35,0.46667,584,6.29167,8.46,4.23333,4.73333,5,1D2U,1.0,True,0.067,45,False,left,0.08333,999,999,0,999,999,0,A,0.14
585,0.5,1.2,2,0.38333,0.35,0.49167,585,6.45833,8.46,4.23333,4.73333,5,1D2U,1.0,False,0.059,45,False,left,-0.25,999,999,0,999,999,0,A,0.14
586,0.5,0.1,1,0.36667,0.4,0.78333,586,5.73333,6.364,3.18333,3.68333,5,2D1U,1.0,True,0.06,64,False,left,0.08333,999,999,0,999,999,0,A,0.165
587,0.5,0.1,2,0.375,0.4,0.7,587,6.74167,8.532,4.26667,4.76667,5,1D2U,1.0,False,0.072,45,False,left,-0.25,999,999,0,999,999,0,A,0.165
588,0.5,1.2,1,0.35,0.39167,0.68333,588,6.725,8.604,4.3,4.8,5,1D2U,2.0,False,0.059,45,False,right,0.08333,999,999,0,999,999,0,A,0.14
589,0.5,1.2,2,0.40833,0.34167,0.675,589,5.60833,6.364,3.18333,3.68333,5,2D1U,1.0,False,0.061,64,False,left,-0.25,999,999,0,999,999,0,A,0.14
590,0.5,0.1,1,0.39167,0.45,0.45833,590,6.64167,8.676,4.34167,4.84167,5,1D2U,1.0,True,0.06,45,False,left,0.08333,999,999,0,999,999,0,A,0.165
591,0.5,0.1,1,0.25,0.325,0.4,591,5.19167,6.436,3.21667,3.71667,5,2D1U,2.0,False,0.06,64,False,right,-0.25,999,999,0,999,999,0,A,0.165
592,0.5,1.2,1,0.25833,0.24167,0.59167,592,5.34167,6.508,3.25,3.75,5,2D1U,1.0,True,0.067,64,False,left,0.08333,999,999,0,999,999,0,A,0.14
593,0.5,1.2,2,0.45,0.35833,0.75833,593,5.81666,6.508,3.25,3.75,5,2D1U,1.0,False,0.067,64,False,left,-0.25,999,999,0,999,999,0,A,0.14
594,0.5,0.1,2,0.41667,0.44167,0.63333,594,6.83334,8.676,4.34167,4.84167,5,1D2U,1.0,False,0.065,45,False,left,0.08333,999,999,0,999,999,0,A,0.165
595,0.5,0.1,2,0.28333,0.45,0.425,595,5.45,6.58,3.29167,3.79167,5,2D1U,1.0,False,0.062,64,False,left,-0.25,999,999,0,999,999,0,A,0.165
596,0.5,1.2,2,0.38333,0.34167,0.60833,596,6.70833,8.748,4.375,4.875,5,1D2U,1.0,False,0.06,45,False,left,0.08333,999,999,0,999,999,0,A,0.14
597,0.5,1.2,2,0.43333,0.275,0.5,597,5.53333,6.652,3.325,3.825,5,2D1U,2.0,True,0.063,64,False,right,-0.25,999,999,0,999,999,0,A,0.14
598,0.5,0.1,2,0.24167,0.23333,0.48333,598,6.36666,8.82,4.40833,4.90833,5,1D2U,2.0,True,0.058,45,False,right,0.08333,999,999,0,999,999,0,A,0.165
599,0.5,0.1,1,0.375,0.34167,0.575,599,5.61667,6.652,3.325,3.825,5,2D1U,2.0,False,0.058,64,False,right,-0.25,999,999,0,999,999,0,A,0.165
600,0.5,1.2,1,0.35,0.31667,0.825,600,5.85,6.724,3.35833,3.85833,5,2D1U,2.0,False,0.064,64,False,right,0.08333,999,999,0,999,999,0,A,0.14
601,0.5,1.2,2,0.45,0.23333,0.59167,601,6.68333,8.82,4.40833,4.90833,5,1D2U,2.0,True,0.061,45,False,right,-0.25,999,999,0,999,999,0,A,0.14
602,0.5,0.1,2,0.2,0.34167,0.61667,602,6.56667,8.82,4.40833,4.90833,5,1D2U,2.0,True,0.061,45,False,right,0.08333,999,999,0,999,999,0,A,0.165
603,0.5,0.1,1,0.275,0.34167,0.6,603,5.61667,6.796,3.4,3.9,5,2D1U,1.0,True,0.06,64,False,left,-0.25,999,999,0,999,999,0,A,0.165
604,0.5,1.2,1,0.41667,0.40833,0.45,604,5.675,6.796,3.4,3.9,5,2D1U,1.0,True,0.066,64,False,left,0.08333,999,999,0,999,999,0,A,0.14
605,0.5,1.2,1,0.2,0.44167,0.61667,605,5.61667,6.724,3.35833,3.85833,5,2D1U,2.0,False,0.063,65,True,right,-0.25,999,999,0,999,999,0,A,0.14
606,0.5,0.1,1,0.35833,0.275,0.60833,606,6.61666,8.748,4.375,4.875,5,1D2U,1.0,True,0.061,46,True,left,0.08333,999,999,0,999,999,0,A,0.165
607,0.5,0.1,2,0.325,0.325,0.75833,607,5.80833,6.796,3.4,3.9,5,2D1U,1.0,False,0.066,66,True,left,-0.25,999,999,0,999,999,0,A,0.165
608,0.5,1.2,1,0.31667,0.425,0.525,608,5.7,6.868,3.43333,3.93333,5,2D1U,1.0,True,0.061,66,False,left,0.08333,999,999,0,999,999,0,A,0.14
609,0.5,1.2,2,0.40833,0.26667,0.825,609,6.875,8.748,4.375,4.875,5,1D2U,2.0,True,0.065,46,True,right,-0.25,999,999,0,999,999,0,A,0.14
610,0.5,0.1,2,0.25,0.31667,0.425,610,5.425,6.868,3.43333,3.93333,5,2D1U,2.0,True,0.062,66,False,right,0.08333,999,999,0,999,999,0,A,0.165
611,0.5,0.1,2,0.40833,0.25,0.85,611,6.88333,8.748,4.375,4.875,5,1D2U,1.0,False,0.062,46,True,left,-0.25,999,999,0,999,999,0,A,0.165
612,0.5,1.2,1,0.31667,0.35833,0.74167,612,5.81667,6.796,3.4,3.9,5,2D1U,1.0,True,0.062,67,True,left,0.08333,999,999,0,999,999,0,A,0.14
613,0.5,1.2,2,0.21667,0.28333,0.45833,613,5.35833,6.796,3.4,3.9,5,2D1U,2.0,True,0.069,67,True,right,-0.25,999,999,0,999,999,0,A,0.14
614,0.5,0.1,1,0.20833,0.35,0.875,614,5.79166,6.724,3.35833,3.85833,5,2D1U,2.0,False,0.062,67,False,right,0.08333,999,999,0,999,999,0,A,0.165
615,0.5,0.1,1,0.40833,0.425,0.58333,615,5.81666,6.796,3.4,3.9,5,2D1U,1.0,True,0.064,68,True,left,-0.25,999,999,0,999,999,0,A,0.165
