,standardDur,audNoise,order,preDur,postDur,isiDur,trial_num,totalDur,delta_dur_percents,deltaDurS,testDurS,intensities,current_stair,responses,is_correct,response_rts,stair_num_reversal,stair_is_reversal,response_keys,conflictDur,recordedOnsetVisualTest,recordedOffsetVisualTest,recordedDurVisualTest,recordedOnsetVisualStandard,recordedOffsetVisualStandard,recordedDurVisualStandard,modalityCue,VisualPSE
0,0.5,0.1,1,0.325,0.20833,0.425,0,2.40833,0.9,0.45,0.95,5,lapse_rate,2.0,False,0.035,0,False,right,0.08333,999,999,0,999,999,0,A,0.165
1,0.5,1.2,2,0.325,0.44167,0.76667,1,2.08334,-0.9,-0.45,0.05,5,1D2U,1.0,True,0.016,0,False,left,-0.25,999,999,0,999,999,0,A,0.14
2,0.5,0.1,2,0.34167,0.35,0.475,2,2.61667,0.9,0.45,0.95,5,lapse_rate,1.0,False,0.016,0,False,left,0.08333,999,999,0,999,999,0,A,0.165
3,0.5,1.2,2,0.31667,0.35833,0.65833,3,1.88333,-0.9,-0.45,0.05,5,2D1U,1.0,True,0.016,0,False,left,-0.25,999,999,0,999,999,0,A,0.14
4,0.5,0.1,1,0.39167,0.34167,0.69167,4,1.97501,-0.9,-0.45,0.05,5,1D2U,2.0,True,0.017,0,False,right,0.08333,999,999,0,999,999,0,A,0.165
5,0.5,0.1,1,0.44167,0.44167,0.84167,5,2.37501,-0.7,-0.35,0.15,5,1D2U,2.0,True,0.016,0,False,right,-0.25,999,999,0,999,999,0,A,0.165
6,0.5,0.1,1,0.43333,0.38333,0.73333,6,2.09999,-0.9,-0.45,0.05,5,lapse_rate,1.0,False,0.016,0,False,left,0.08333,999,999,0,999,999,0,A,0.165
7,0.5,1.2,1,0.21667,0.31667,0.58333,7,1.76667,-0.7,-0.35,0.15,5,2D1U,1.0,False,0.016,0,False,left,-0.25,999,999,0,999,999,0,A,0.14
8,0.5,1.2,1,0.20833,0.38333,0.69167,8,1.93333,-0.7,-0.35,0.15,5,2D1U,2.0,True,0.016,0,False,right,0.08333,999,999,0,999,999,0,A,0.14
9,0.5,0.1,1,0.44167,0.325,0.75833,9,2.175,-0.7,-0.35,0.15,5,1D2U,1.0,False,0.016,0,False,left,-0.25,999,999,0,999,999,0,A,0.165
10,0.5,1.2,2,0.225,0.41667,0.78333,10,2.875,0.9,0.45,0.95,5,lapse_rate,1.0,False,0.017,0,False,left,0.08333,999,999,0,999,999,0,A,0.14
11,0.5,0.1,1,0.43333,0.35833,0.475,11,2.01666,-0.5,-0.25,0.25,5,2D1U,2.0,True,0.017,0,False,right,-0.25,999,999,0,999,999,0,A,0.165
12,0.5,1.2,1,0.375,0.33333,0.44167,12,1.74167,-0.82,-0.40833,0.09167,5,1D2U,1.0,False,0.016,1,True,left,0.08333,999,999,0,999,999,0,A,0.14
13,0.5,0.1,2,0.40833,0.33333,0.48333,13,2.67499,0.9,0.45,0.95,5,lapse_rate,1.0,False,0.016,0,False,left,-0.25,999,999,0,999,999,0,A,0.165
14,0.5,1.2,2,0.36667,0.375,0.75,14,2.34167,-0.3,-0.15,0.35,5,2D1U,1.0,True,0.016,0,False,left,0.08333,999,999,0,999,999,0,A,0.14
15,0.5,0.1,1,0.275,0.23333,0.70833,15,1.76666,-0.9,-0.45,0.05,5,1D2U,2.0,True,0.016,1,False,right,-0.25,999,999,0,999,999,0,A,0.165
16,0.5,1.2,1,0.26667,0.44167,0.79167,16,2.05001,-0.9,-0.45,0.05,5,lapse_rate,1.0,False,0.017,0,False,left,0.08333,999,999,0,999,999,0,A,0.14
17,0.5,0.1,1,0.425,0.23333,0.56667,17,1.775,-0.9,-0.45,0.05,5,1D2U,1.0,False,0.017,1,False,left,-0.25,999,999,0,999,999,0,A,0.165
18,0.5,1.2,1,0.41667,0.275,0.61667,18,2.75834,0.9,0.45,0.95,5,lapse_rate,1.0,True,0.017,0,False,left,0.08333,999,999,0,999,999,0,A,0.14
19,0.5,1.2,2,0.34167,0.39167,0.675,19,2.35834,-0.1,-0.05,0.45,5,2D1U,2.0,False,0.016,0,False,right,-0.25,999,999,0,999,999,0,A,0.14
20,0.5,1.2,2,0.325,0.38333,0.74167,20,2.4,-0.1,-0.05,0.45,5,2D1U,1.0,True,0.017,0,False,left,0.08333,999,999,0,999,999,0,A,0.14
21,0.5,0.1,2,0.31667,0.40833,0.79167,21,2.96667,0.9,0.45,0.95,5,lapse_rate,1.0,False,0.016,0,False,left,-0.25,999,999,0,999,999,0,A,0.165
22,0.5,0.1,2,0.24167,0.41667,0.64167,22,1.85001,-0.9,-0.45,0.05,5,1D2U,2.0,False,0.016,1,False,right,0.08333,999,999,0,999,999,0,A,0.165
23,0.5,0.1,1,0.23333,0.3,0.75833,23,2.34166,0.1,0.05,0.55,5,2D1U,2.0,False,0.017,0,False,right,-0.25,999,999,0,999,999,0,A,0.165
24,0.5,1.2,2,0.45,0.225,0.75833,24,2.88333,0.9,0.45,0.95,5,lapse_rate,2.0,True,0.016,0,False,right,0.08333,999,999,0,999,999,0,A,0.14
25,0.5,1.2,1,0.225,0.43333,0.54167,25,1.75,-0.9,-0.45,0.05,5,1D2U,1.0,False,0.017,1,False,left,-0.25,999,999,0,999,999,0,A,0.14
26,0.5,1.2,1,0.275,0.35833,0.85,26,2.03333,-0.9,-0.45,0.05,5,1D2U,2.0,True,0.017,1,False,right,0.08333,999,999,0,999,999,0,A,0.14
27,0.5,0.1,1,0.41667,0.35833,0.53333,27,2.45833,0.3,0.15,0.65,5,2D1U,1.0,True,0.017,0,False,left,-0.25,999,999,0,999,999,0,A,0.165
28,0.5,0.1,1,0.45,0.31667,0.675,28,1.99167,-0.9,-0.45,0.05,5,lapse_rate,1.0,False,0.017,0,False,left,0.08333,999,999,0,999,999,0,A,0.165
29,0.5,1.2,2,0.25,0.39167,0.775,29,2.86667,0.9,0.45,0.95,5,lapse_rate,1.0,False,0.017,0,False,left,-0.25,999,999,0,999,999,0,A,0.14
30,0.5,0.1,2,0.3,0.29167,0.66667,30,2.40834,0.3,0.15,0.65,5,2D1U,2.0,True,0.016,0,False,right,0.08333,999,999,0,999,999,0,A,0.165
31,0.5,1.2,2,0.275,0.40833,0.7,31,1.93333,-0.9,-0.45,0.05,5,1D2U,1.0,True,0.016,1,False,left,-0.25,999,999,0,999,999,0,A,0.14
32,0.5,1.2,1,0.25833,0.2,0.5,32,1.54166,-0.828,-0.41667,0.08333,5,1D2U,1.0,False,0.017,2,True,left,0.08333,999,999,0,999,999,0,A,0.14
33,0.5,0.1,2,0.34167,0.4,0.58333,33,2.41667,0.18,0.09167,0.59167,5,2D1U,2.0,True,0.017,1,True,right,-0.25,999,999,0,999,999,0,A,0.165
34,0.5,1.2,2,0.38333,0.4,0.55,34,1.88333,-0.9,-0.45,0.05,5,lapse_rate,1.0,True,0.016,0,False,left,0.08333,999,999,0,999,999,0,A,0.14
35,0.5,0.1,1,0.33333,0.28333,0.60833,35,1.77499,-0.9,-0.45,0.05,5,1D2U,2.0,True,0.016,3,True,right,-0.25,999,999,0,999,999,0,A,0.165
36,0.5,0.1,2,0.39167,0.43333,0.60833,36,1.98333,-0.9,-0.45,0.05,5,lapse_rate,1.0,True,0.016,0,False,left,0.08333,999,999,0,999,999,0,A,0.165
37,0.5,1.2,1,0.41667,0.26667,0.425,37,2.20001,0.18,0.09167,0.59167,5,2D1U,2.0,False,0.016,1,True,right,-0.25,999,999,0,999,999,0,A,0.14
38,0.5,1.2,1,0.30833,0.225,0.675,38,1.75833,-0.9,-0.45,0.05,5,1D2U,2.0,True,0.017,3,True,right,0.08333,999,999,0,999,999,0,A,0.14
39,0.5,0.1,1,0.3,0.375,0.63333,39,1.85833,-0.9,-0.45,0.05,5,lapse_rate,2.0,True,0.016,0,False,right,-0.25,999,999,0,999,999,0,A,0.165
40,0.5,0.1,1,0.38333,0.28333,0.675,40,2.46666,0.252,0.125,0.625,5,2D1U,2.0,False,0.016,2,True,right,0.08333,999,999,0,999,999,0,A,0.165
41,0.5,0.1,2,0.28333,0.28333,0.4,41,1.54999,-0.828,-0.41667,0.08333,5,1D2U,2.0,False,0.017,4,True,right,-0.25,999,999,0,999,999,0,A,0.165
42,0.5,1.2,1,0.26667,0.25,0.55,42,2.225,0.324,0.15833,0.65833,5,2D1U,1.0,True,0.016,2,False,left,0.08333,999,999,0,999,999,0,A,0.14
43,0.5,1.2,2,0.38333,0.39167,0.725,43,2.95,0.9,0.45,0.95,5,lapse_rate,1.0,False,0.016,0,False,left,-0.25,999,999,0,999,999,0,A,0.14
44,0.5,1.2,2,0.25833,0.38333,0.45,44,1.64166,-0.9,-0.45,0.05,5,1D2U,1.0,True,0.016,5,True,left,0.08333,999,999,0,999,999,0,A,0.14
45,0.5,0.1,2,0.3,0.3,0.65,45,2.7,0.9,0.45,0.95,5,lapse_rate,2.0,True,0.016,0,False,right,-0.25,999,999,0,999,999,0,A,0.165
46,0.5,0.1,1,0.33333,0.325,0.775,46,2.59166,0.324,0.15833,0.65833,5,2D1U,2.0,False,0.016,2,False,right,0.08333,999,999,0,999,999,0,A,0.165
47,0.5,0.1,2,0.34167,0.4,0.65,47,1.94167,-0.9,-0.45,0.05,5,1D2U,2.0,False,0.016,5,True,right,-0.25,999,999,0,999,999,0,A,0.165
48,0.5,1.2,2,0.39167,0.325,0.71667,48,2.88334,0.9,0.45,0.95,5,lapse_rate,1.0,False,0.016,0,False,left,0.08333,999,999,0,999,999,0,A,0.14
49,0.5,1.2,2,0.21667,0.41667,0.83333,49,2.66667,0.396,0.2,0.7,5,2D1U,1.0,False,0.017,2,False,left,-0.25,999,999,0,999,999,0,A,0.14
50,0.5,1.2,2,0.425,0.35,0.81667,50,2.14167,-0.9,-0.45,0.05,5,1D2U,1.0,True,0.017,5,False,left,0.08333,999,999,0,999,999,0,A,0.14
51,0.5,0.1,2,0.38333,0.325,0.58333,51,2.52499,0.468,0.23333,0.73333,5,2D1U,2.0,True,0.017,2,False,right,-0.25,999,999,0,999,999,0,A,0.165
52,0.5,1.2,1,0.25833,0.41667,0.75833,52,2.88333,0.9,0.45,0.95,5,lapse_rate,1.0,True,0.017,0,False,left,0.08333,999,999,0,999,999,0,A,0.14
53,0.5,0.1,2,0.30833,0.26667,0.64167,53,1.76667,-0.9,-0.45,0.05,5,1D2U,2.0,False,0.017,5,False,right,-0.25,999,999,0,999,999,0,A,0.165
54,0.5,1.2,2,0.34167,0.43333,0.66667,54,1.99167,-0.9,-0.45,0.05,5,lapse_rate,2.0,False,0.016,0,False,right,0.08333,999,999,0,999,999,0,A,0.14
55,0.5,1.2,1,0.36667,0.375,0.85833,55,2.83333,0.468,0.23333,0.73333,5,2D1U,1.0,True,0.017,2,False,left,-0.25,999,999,0,999,999,0,A,0.14
56,0.5,1.2,1,0.23333,0.20833,0.78333,56,2.42499,0.396,0.2,0.7,5,2D1U,2.0,False,0.017,3,True,right,0.08333,999,999,0,999,999,0,A,0.14
57,0.5,0.1,2,0.25833,0.25833,0.525,57,1.59166,-0.9,-0.45,0.05,5,1D2U,1.0,True,0.017,5,False,left,-0.25,999,999,0,999,999,0,A,0.165
58,0.5,1.2,2,0.38333,0.26667,0.575,58,1.775,-0.9,-0.45,0.05,5,lapse_rate,2.0,False,0.017,0,False,right,0.08333,999,999,0,999,999,0,A,0.14
59,0.5,0.1,1,0.44167,0.41667,0.79167,59,2.88334,0.468,0.23333,0.73333,5,2D1U,1.0,True,0.018,4,True,left,-0.25,999,999,0,999,999,0,A,0.165
60,0.5,1.2,2,0.225,0.41667,0.875,60,2.06667,-0.9,-0.45,0.05,5,lapse_rate,1.0,True,0.016,0,False,left,0.08333,999,999,0,999,999,0,A,0.14
61,0.5,1.2,1,0.325,0.25833,0.71667,61,1.85,-0.9,-0.45,0.05,5,1D2U,1.0,False,0.017,5,False,left,-0.25,999,999,0,999,999,0,A,0.14
62,0.5,1.2,1,0.43333,0.34167,0.79167,62,2.11667,-0.9,-0.45,0.05,5,1D2U,1.0,False,0.016,5,False,left,0.08333,999,999,0,999,999,0,A,0.14
63,0.5,1.2,2,0.28333,0.41667,0.65833,63,2.80833,0.9,0.45,0.95,5,lapse_rate,1.0,False,0.018,0,False,left,-0.25,999,999,0,999,999,0,A,0.14
64,0.5,0.1,1,0.325,0.40833,0.45833,64,2.42499,0.468,0.23333,0.73333,5,2D1U,1.0,True,0.016,4,True,left,0.08333,999,999,0,999,999,0,A,0.165
65,0.5,0.1,2,0.41667,0.23333,0.45,65,2.3,0.396,0.2,0.7,5,2D1U,1.0,False,0.019,5,True,left,-0.25,999,999,0,999,999,0,A,0.165
66,0.5,0.1,2,0.36667,0.25833,0.79167,66,2.86667,0.9,0.45,0.95,5,lapse_rate,1.0,False,0.017,0,False,left,0.08333,999,999,0,999,999,0,A,0.165
67,0.5,1.2,1,0.36667,0.325,0.8,67,2.04167,-0.9,-0.45,0.05,5,1D2U,1.0,False,0.018,5,False,left,-0.25,999,999,0,999,999,0,A,0.14
68,0.5,0.1,1,0.41667,0.275,0.625,68,2.76667,0.9,0.45,0.95,5,lapse_rate,2.0,False,0.016,0,False,right,0.08333,999,999,0,999,999,0,A,0.165
69,0.5,1.2,1,0.275,0.325,0.50833,69,2.34166,0.468,0.23333,0.73333,5,2D1U,2.0,False,0.017,6,True,right,-0.25,999,999,0,999,999,0,A,0.14
70,0.5,0.1,2,0.35833,0.39167,0.475,70,1.775,-0.9,-0.45,0.05,5,1D2U,1.0,True,0.017,5,False,left,0.08333,999,999,0,999,999,0,A,0.165
71,0.5,0.1,2,0.25833,0.21667,0.46667,71,1.49167,-0.9,-0.45,0.05,5,lapse_rate,1.0,True,0.018,0,False,left,-0.25,999,999,0,999,999,0,A,0.165
72,0.5,0.1,1,0.275,0.4,0.475,72,2.41667,0.54,0.26667,0.76667,5,2D1U,2.0,False,0.016,6,False,right,0.08333,999,999,0,999,999,0,A,0.165
73,0.5,1.2,1,0.4,0.225,0.78333,73,1.95833,-0.9,-0.45,0.05,5,1D2U,2.0,True,0.016,5,False,right,-0.25,999,999,0,999,999,0,A,0.14
74,0.5,1.2,2,0.23333,0.40833,0.46667,74,2.41666,0.612,0.30833,0.80833,5,2D1U,1.0,False,0.017,6,False,left,0.08333,999,999,0,999,999,0,A,0.14
75,0.5,0.1,1,0.40833,0.30833,0.68333,75,1.94999,-0.9,-0.45,0.05,5,lapse_rate,2.0,True,0.016,0,False,right,-0.25,999,999,0,999,999,0,A,0.165
76,0.5,0.1,1,0.20833,0.24167,0.85833,76,1.89166,-0.828,-0.41667,0.08333,5,1D2U,2.0,True,0.016,6,True,right,0.08333,999,999,0,999,999,0,A,0.165
77,0.5,0.1,1,0.20833,0.325,0.78333,77,2.76666,0.9,0.45,0.95,5,lapse_rate,1.0,True,0.016,0,False,left,-0.25,999,999,0,999,999,0,A,0.165
78,0.5,0.1,2,0.40833,0.325,0.85,78,2.925,0.684,0.34167,0.84167,5,2D1U,2.0,True,0.017,6,False,right,0.08333,999,999,0,999,999,0,A,0.165
79,0.5,1.2,1,0.33333,0.325,0.76667,79,2.00833,-0.828,-0.41667,0.08333,5,1D2U,2.0,True,0.016,6,True,right,-0.25,999,999,0,999,999,0,A,0.14
80,0.5,1.2,2,0.29167,0.4,0.78333,80,2.1,-0.756,-0.375,0.125,5,1D2U,1.0,True,0.016,6,False,left,0.08333,999,999,0,999,999,0,A,0.14
81,0.5,0.1,1,0.25,0.23333,0.49167,81,2.31667,0.684,0.34167,0.84167,5,2D1U,2.0,False,0.016,6,False,right,-0.25,999,999,0,999,999,0,A,0.165
82,0.5,0.1,1,0.26667,0.31667,0.8,82,1.93334,-0.9,-0.45,0.05,5,lapse_rate,1.0,False,0.016,0,False,left,0.08333,999,999,0,999,999,0,A,0.165
83,0.5,1.2,2,0.21667,0.3,0.79167,83,1.85834,-0.9,-0.45,0.05,5,lapse_rate,2.0,False,0.016,0,False,right,-0.25,999,999,0,999,999,0,A,0.14
84,0.5,0.1,1,0.33333,0.43333,0.45833,84,1.84999,-0.756,-0.375,0.125,5,1D2U,2.0,True,0.016,6,False,right,0.08333,999,999,0,999,999,0,A,0.165
85,0.5,1.2,2,0.31667,0.375,0.675,85,2.74167,0.756,0.375,0.875,5,2D1U,2.0,True,0.017,6,False,right,-0.25,999,999,0,999,999,0,A,0.14
86,0.5,1.2,1,0.24167,0.31667,0.76667,86,1.98334,-0.684,-0.34167,0.15833,5,1D2U,1.0,False,0.016,6,False,left,0.08333,999,999,0,999,999,0,A,0.14
87,0.5,0.1,1,0.24167,0.425,0.88333,87,2.925,0.756,0.375,0.875,5,2D1U,1.0,True,0.016,6,False,left,-0.25,999,999,0,999,999,0,A,0.165
88,0.5,1.2,2,0.225,0.30833,0.55,88,2.53333,0.9,0.45,0.95,5,lapse_rate,1.0,False,0.016,0,False,left,0.08333,999,999,0,999,999,0,A,0.14
89,0.5,0.1,1,0.24167,0.21667,0.75833,89,1.84167,-0.756,-0.375,0.125,5,1D2U,2.0,True,0.016,7,True,right,-0.25,999,999,0,999,999,0,A,0.165
90,0.5,0.1,2,0.4,0.20833,0.51667,90,1.675,-0.9,-0.45,0.05,5,lapse_rate,2.0,False,0.017,0,False,right,0.08333,999,999,0,999,999,0,A,0.165
91,0.5,1.2,2,0.2,0.26667,0.5,91,2.30834,0.684,0.34167,0.84167,5,2D1U,2.0,True,0.016,7,True,right,-0.25,999,999,0,999,999,0,A,0.14
92,0.5,1.2,2,0.26667,0.21667,0.575,92,2.40001,0.684,0.34167,0.84167,5,2D1U,2.0,True,0.016,7,True,right,0.08333,999,999,0,999,999,0,A,0.14
93,0.5,1.2,2,0.28333,0.275,0.40833,93,2.41666,0.9,0.45,0.95,5,lapse_rate,1.0,False,0.019,0,False,left,-0.25,999,999,0,999,999,0,A,0.14
94,0.5,0.1,1,0.30833,0.20833,0.59167,94,1.73333,-0.756,-0.375,0.125,5,1D2U,2.0,True,0.016,7,True,right,0.08333,999,999,0,999,999,0,A,0.165
95,0.5,0.1,2,0.2,0.44167,0.43333,95,1.625,-0.9,-0.45,0.05,5,lapse_rate,1.0,True,0.016,0,False,left,-0.25,999,999,0,999,999,0,A,0.165
96,0.5,0.1,2,0.34167,0.30833,0.80833,96,2.11666,-0.684,-0.34167,0.15833,5,1D2U,2.0,False,0.021,8,True,right,0.08333,999,999,0,999,999,0,A,0.165
97,0.5,1.2,2,0.4,0.34167,0.74167,97,2.79167,0.612,0.30833,0.80833,5,2D1U,1.0,False,0.016,7,False,left,-0.25,999,999,0,999,999,0,A,0.14
98,0.5,1.2,2,0.35833,0.20833,0.58333,98,2.49166,0.684,0.34167,0.84167,5,2D1U,2.0,True,0.019,8,True,right,0.08333,999,999,0,999,999,0,A,0.14
99,0.5,0.1,2,0.375,0.325,0.6,99,1.925,-0.756,-0.375,0.125,5,1D2U,1.0,True,0.016,9,True,left,-0.25,999,999,0,999,999,0,A,0.165
100,0.5,0.1,1,0.35833,0.28333,0.81667,100,2.90833,0.9,0.45,0.95,5,lapse_rate,1.0,True,0.016,0,False,left,0.08333,999,999,0,999,999,0,A,0.165
101,0.5,0.1,2,0.29167,0.33333,0.45833,101,1.70833,-0.756,-0.375,0.125,5,1D2U,2.0,False,0.016,9,True,right,-0.25,999,999,0,999,999,0,A,0.165
102,0.5,1.2,1,0.275,0.325,0.50833,102,2.45,0.684,0.34167,0.84167,5,2D1U,2.0,False,0.016,8,True,right,0.08333,999,999,0,999,999,0,A,0.14
103,0.5,1.2,2,0.26667,0.24167,0.75,103,1.80834,-0.9,-0.45,0.05,5,lapse_rate,2.0,False,0.033,0,False,right,-0.25,999,999,0,999,999,0,A,0.14
104,0.5,1.2,1,0.325,0.375,0.70833,104,2.78333,0.756,0.375,0.875,5,2D1U,2.0,False,0.017,8,False,right,0.08333,999,999,0,999,999,0,A,0.14
105,0.5,1.2,2,0.25833,0.275,0.53333,105,1.61666,-0.9,-0.45,0.05,5,lapse_rate,2.0,False,0.017,0,False,right,-0.25,999,999,0,999,999,0,A,0.14
106,0.5,0.1,2,0.375,0.36667,0.775,106,2.1,-0.828,-0.41667,0.08333,5,1D2U,1.0,True,0.017,9,False,left,0.08333,999,999,0,999,999,0,A,0.165
107,0.5,0.1,2,0.34167,0.40833,0.4,107,1.73333,-0.828,-0.41667,0.08333,5,1D2U,2.0,False,0.017,9,False,right,-0.25,999,999,0,999,999,0,A,0.165
108,0.5,0.1,2,0.30833,0.36667,0.40833,108,2.53333,0.9,0.45,0.95,5,lapse_rate,1.0,False,0.021,0,False,left,0.08333,999,999,0,999,999,0,A,0.165
109,0.5,1.2,1,0.29167,0.35,0.475,109,2.53334,0.828,0.41667,0.91667,5,2D1U,1.0,True,0.035,8,False,left,-0.25,999,999,0,999,999,0,A,0.14
110,0.5,1.2,1,0.45,0.375,0.49167,110,1.86667,-0.9,-0.45,0.05,5,1D2U,1.0,False,0.023,9,False,left,0.08333,999,999,0,999,999,0,A,0.14
111,0.5,0.1,1,0.225,0.28333,0.65,111,2.575,0.828,0.41667,0.91667,5,2D1U,1.0,True,0.032,8,False,left,-0.25,999,999,0,999,999,0,A,0.165
112,0.5,1.2,1,0.26667,0.34167,0.4,112,2.45834,0.9,0.45,0.95,5,lapse_rate,2.0,False,0.018,0,False,right,0.08333,999,999,0,999,999,0,A,0.14
113,0.5,0.1,2,0.26667,0.4,0.86667,113,2.98334,0.9,0.45,0.95,5,lapse_rate,2.0,True,0.018,0,False,right,-0.25,999,999,0,999,999,0,A,0.165
114,0.5,0.1,1,0.36667,0.25,0.40833,114,1.575,-0.9,-0.45,0.05,5,1D2U,2.0,True,0.018,9,False,right,0.08333,999,999,0,999,999,0,A,0.165
115,0.5,1.2,1,0.375,0.39167,0.55,115,2.69167,0.756,0.375,0.875,5,2D1U,1.0,True,0.018,9,True,left,-0.25,999,999,0,999,999,0,A,0.14
116,0.5,1.2,1,0.34167,0.36667,0.775,116,2.85834,0.756,0.375,0.875,5,2D1U,1.0,True,0.029,9,True,left,0.08333,999,999,0,999,999,0,A,0.14
117,0.5,1.2,1,0.35833,0.38333,0.575,117,2.76666,0.9,0.45,0.95,5,lapse_rate,1.0,True,0.032,0,False,left,-0.25,999,999,0,999,999,0,A,0.14
118,0.5,0.1,2,0.23333,0.38333,0.54167,118,1.70833,-0.9,-0.45,0.05,5,1D2U,2.0,False,0.021,9,False,right,0.08333,999,999,0,999,999,0,A,0.165
119,0.5,0.1,1,0.40833,0.29167,0.41667,119,2.45834,0.684,0.34167,0.84167,5,2D1U,1.0,True,0.018,9,False,left,-0.25,999,999,0,999,999,0,A,0.165
120,0.5,0.1,2,0.35,0.36667,0.63333,120,1.9,-0.9,-0.45,0.05,5,lapse_rate,2.0,False,0.019,0,False,right,0.08333,999,999,0,999,999,0,A,0.165
121,0.5,1.2,1,0.30833,0.26667,0.86667,121,1.99167,-0.9,-0.45,0.05,5,1D2U,1.0,False,0.032,9,False,left,-0.25,999,999,0,999,999,0,A,0.14
122,0.5,1.2,2,0.25,0.38333,0.825,122,2.8,0.684,0.34167,0.84167,5,2D1U,2.0,True,0.021,9,False,right,0.08333,999,999,0,999,999,0,A,0.14
123,0.5,0.1,2,0.38333,0.24167,0.625,123,1.8,-0.9,-0.45,0.05,5,1D2U,1.0,True,0.032,9,False,left,-0.25,999,999,0,999,999,0,A,0.165
124,0.5,1.2,2,0.23333,0.20833,0.75,124,1.74166,-0.9,-0.45,0.05,5,lapse_rate,2.0,False,0.025,0,False,right,0.08333,999,999,0,999,999,0,A,0.14
125,0.5,0.1,1,0.38333,0.30833,0.425,125,1.66666,-0.9,-0.45,0.05,5,lapse_rate,1.0,False,0.032,0,False,left,-0.25,999,999,0,999,999,0,A,0.165
126,0.5,0.1,1,0.26667,0.25,0.51667,126,1.58334,-0.9,-0.45,0.05,5,1D2U,1.0,False,0.019,9,False,left,0.08333,999,999,0,999,999,0,A,0.165
127,0.5,1.2,2,0.25833,0.44167,0.68333,127,2.69166,0.612,0.30833,0.80833,5,2D1U,1.0,False,0.026,9,False,left,-0.25,999,999,0,999,999,0,A,0.14
128,0.5,1.2,1,0.39167,0.39167,0.58333,128,1.91667,-0.9,-0.45,0.05,5,1D2U,1.0,False,0.028,9,False,left,0.08333,999,999,0,999,999,0,A,0.14
129,0.5,0.1,2,0.35,0.33333,0.63333,129,2.76666,0.9,0.45,0.95,5,lapse_rate,1.0,False,0.034,0,False,left,-0.25,999,999,0,999,999,0,A,0.165
130,0.5,0.1,2,0.4,0.31667,0.79167,130,2.85001,0.684,0.34167,0.84167,5,2D1U,1.0,False,0.02,10,True,left,0.08333,999,999,0,999,999,0,A,0.165
131,0.5,0.1,1,0.25833,0.30833,0.65,131,2.59166,0.756,0.375,0.875,5,2D1U,2.0,False,0.032,10,False,right,-0.25,999,999,0,999,999,0,A,0.165
132,0.5,1.2,2,0.375,0.31667,0.59167,132,1.83334,-0.9,-0.45,0.05,5,1D2U,1.0,True,0.025,9,False,left,0.08333,999,999,0,999,999,0,A,0.14
133,0.5,0.1,1,0.31667,0.31667,0.775,133,1.95834,-0.9,-0.45,0.05,5,lapse_rate,1.0,False,0.02,0,False,left,-0.25,999,999,0,999,999,0,A,0.165
134,0.5,1.2,2,0.26667,0.40833,0.7,134,1.925,-0.9,-0.45,0.05,5,1D2U,1.0,True,0.025,9,False,left,0.08333,999,999,0,999,999,0,A,0.14
135,0.5,1.2,2,0.425,0.25833,0.73333,135,1.96666,-0.9,-0.45,0.05,5,lapse_rate,2.0,False,0.033,0,False,right,-0.25,999,999,0,999,999,0,A,0.14
136,0.5,0.1,2,0.35833,0.39167,0.50833,136,2.675,0.828,0.41667,0.91667,5,2D1U,1.0,False,0.018,10,False,left,0.08333,999,999,0,999,999,0,A,0.165
137,0.5,1.2,1,0.29167,0.23333,0.58333,137,1.65833,-0.9,-0.45,0.05,5,lapse_rate,1.0,False,0.033,0,False,left,-0.25,999,999,0,999,999,0,A,0.14
138,0.5,0.1,1,0.225,0.225,0.66667,138,1.7,-0.828,-0.41667,0.08333,5,1D2U,2.0,True,0.026,10,True,right,0.08333,999,999,0,999,999,0,A,0.165
139,0.5,1.2,2,0.40833,0.45,0.55,139,2.85833,0.9,0.45,0.95,5,2D1U,1.0,False,0.026,10,False,left,-0.25,999,999,0,999,999,0,A,0.14
140,0.5,1.2,1,0.35,0.21667,0.43333,140,2.48333,0.972,0.48333,0.98333,5,2D1U,2.0,False,0.022,10,False,right,0.08333,999,999,0,999,999,0,A,0.14
141,0.5,0.1,1,0.275,0.225,0.55,141,1.63333,-0.828,-0.41667,0.08333,5,1D2U,2.0,True,0.021,10,True,right,-0.25,999,999,0,999,999,0,A,0.165
142,0.5,1.2,2,0.45,0.33333,0.575,142,1.90833,-0.9,-0.45,0.05,5,lapse_rate,2.0,False,0.033,0,False,right,0.08333,999,999,0,999,999,0,A,0.14
143,0.5,1.2,1,0.41667,0.44167,0.825,143,2.23334,-0.9,-0.45,0.05,5,lapse_rate,1.0,False,0.026,0,False,left,-0.25,999,999,0,999,999,0,A,0.14
144,0.5,0.1,2,0.25,0.3,0.475,144,2.475,0.9,0.45,0.95,5,2D1U,1.0,False,0.021,10,False,left,0.08333,999,999,0,999,999,0,A,0.165
145,0.5,1.2,2,0.35833,0.26667,0.61667,145,1.86667,-0.756,-0.375,0.125,5,1D2U,1.0,True,0.021,10,False,left,-0.25,999,999,0,999,999,0,A,0.14
146,0.5,1.2,1,0.25833,0.4,0.53333,146,2.67499,0.972,0.48333,0.98333,5,2D1U,1.0,True,0.032,10,False,left,0.08333,999,999,0,999,999,0,A,0.14
147,0.5,0.1,1,0.41667,0.35833,0.83333,147,2.23333,-0.756,-0.375,0.125,5,1D2U,1.0,False,0.025,10,False,left,-0.25,999,999,0,999,999,0,A,0.165
148,0.5,0.1,2,0.36667,0.425,0.66667,148,2.90834,0.9,0.45,0.95,5,lapse_rate,2.0,True,0.025,0,False,right,0.08333,999,999,0,999,999,0,A,0.165
149,0.5,0.1,2,0.30833,0.24167,0.68333,149,1.81666,-0.828,-0.41667,0.08333,5,1D2U,1.0,True,0.034,11,True,left,-0.25,999,999,0,999,999,0,A,0.165
150,0.5,1.2,1,0.26667,0.41667,0.85833,150,3.025,0.972,0.48333,0.98333,5,2D1U,2.0,False,0.019,10,False,right,0.08333,999,999,0,999,999,0,A,0.14
151,0.5,0.1,2,0.3,0.41667,0.68333,151,1.95,-0.9,-0.45,0.05,5,lapse_rate,1.0,True,0.022,0,False,left,-0.25,999,999,0,999,999,0,A,0.165
152,0.5,1.2,1,0.45,0.24167,0.66667,152,2.80834,0.9,0.45,0.95,5,2D1U,1.0,True,0.035,10,False,left,0.08333,999,999,0,999,999,0,A,0.14
153,0.5,0.1,2,0.44167,0.20833,0.61667,153,1.85,-0.828,-0.41667,0.08333,5,1D2U,2.0,False,0.034,11,True,right,-0.25,999,999,0,999,999,0,A,0.165
154,0.5,1.2,2,0.275,0.25,0.75,154,1.825,-0.9,-0.45,0.05,5,lapse_rate,2.0,False,0.034,0,False,right,0.08333,999,999,0,999,999,0,A,0.14
155,0.5,0.1,1,0.39167,0.325,0.775,155,2.04167,-0.9,-0.45,0.05,5,lapse_rate,2.0,True,0.03,0,False,right,-0.25,999,999,0,999,999,0,A,0.165
156,0.5,0.1,1,0.33333,0.24167,0.88333,156,2.90833,0.9,0.45,0.95,5,2D1U,2.0,False,0.027,10,False,right,0.08333,999,999,0,999,999,0,A,0.165
157,0.5,1.2,1,0.325,0.4,0.54167,157,1.81667,-0.9,-0.45,0.05,5,1D2U,1.0,False,0.032,11,False,left,-0.25,999,999,0,999,999,0,A,0.14
158,0.5,1.2,2,0.33333,0.2,0.55833,158,2.57499,0.972,0.48333,0.98333,5,2D1U,1.0,False,0.027,10,False,left,0.08333,999,999,0,999,999,0,A,0.14
159,0.5,0.1,2,0.26667,0.35,0.85833,159,2.025,-0.9,-0.45,0.05,5,1D2U,2.0,False,0.025,11,False,right,-0.25,999,999,0,999,999,0,A,0.165
160,0.5,1.2,1,0.35833,0.225,0.48333,160,2.51666,0.9,0.45,0.95,5,lapse_rate,1.0,True,0.023,0,False,left,0.08333,999,999,0,999,999,0,A,0.14
161,0.5,0.1,2,0.38333,0.28333,0.8,161,2.01666,-0.9,-0.45,0.05,5,1D2U,2.0,False,0.037,11,False,right,-0.25,999,999,0,999,999,0,A,0.165
162,0.5,0.1,1,0.25833,0.21667,0.79167,162,2.71667,0.9,0.45,0.95,5,lapse_rate,2.0,False,0.024,0,False,right,0.08333,999,999,0,999,999,0,A,0.165
163,0.5,1.2,2,0.31667,0.29167,0.71667,163,2.77501,0.9,0.45,0.95,5,2D1U,1.0,False,0.027,10,False,left,-0.25,999,999,0,999,999,0,A,0.14
164,0.5,1.2,2,0.44167,0.43333,0.7,164,3.05833,0.972,0.48333,0.98333,5,2D1U,1.0,False,0.024,10,False,left,0.08333,999,999,0,999,999,0,A,0.14
165,0.5,1.2,2,0.41667,0.425,0.525,165,2.81667,0.9,0.45,0.95,5,lapse_rate,2.0,True,0.024,0,False,right,-0.25,999,999,0,999,999,0,A,0.14
166,0.5,0.1,1,0.24167,0.30833,0.7,166,1.8,-0.9,-0.45,0.05,5,1D2U,2.0,True,0.037,11,False,right,0.08333,999,999,0,999,999,0,A,0.165
167,0.5,0.1,2,0.325,0.25,0.43333,167,1.55833,-0.9,-0.45,0.05,5,1D2U,2.0,False,0.023,11,False,right,-0.25,999,999,0,999,999,0,A,0.165
168,0.5,1.2,1,0.29167,0.34167,0.44167,168,2.52501,0.9,0.45,0.95,5,2D1U,1.0,True,0.024,10,False,left,0.08333,999,999,0,999,999,0,A,0.14
169,0.5,1.2,1,0.21667,0.375,0.475,169,2.51667,0.9,0.45,0.95,5,2D1U,2.0,False,0.024,10,False,right,-0.25,999,999,0,999,999,0,A,0.14
170,0.5,0.1,1,0.24167,0.40833,0.875,170,2.075,-0.9,-0.45,0.05,5,1D2U,2.0,True,0.04,11,False,right,0.08333,999,999,0,999,999,0,A,0.165
171,0.5,0.1,1,0.375,0.26667,0.6,171,1.79167,-0.9,-0.45,0.05,5,1D2U,1.0,False,0.02,11,False,left,-0.25,999,999,0,999,999,0,A,0.165
172,0.5,1.2,1,0.20833,0.425,0.53333,172,2.64999,0.972,0.48333,0.98333,5,2D1U,1.0,True,0.026,10,False,left,0.08333,999,999,0,999,999,0,A,0.14
173,0.5,1.2,2,0.30833,0.25,0.60833,173,2.64999,0.972,0.48333,0.98333,5,2D1U,2.0,True,0.025,10,False,right,-0.25,999,999,0,999,999,0,A,0.14
174,0.5,0.1,1,0.29167,0.40833,0.725,174,1.975,-0.9,-0.45,0.05,5,1D2U,1.0,False,0.024,11,False,left,0.08333,999,999,0,999,999,0,A,0.165
175,0.5,0.1,2,0.375,0.275,0.45833,175,1.65833,-0.9,-0.45,0.05,5,1D2U,2.0,False,0.025,11,False,right,-0.25,999,999,0,999,999,0,A,0.165
176,0.5,1.2,2,0.44167,0.25,0.675,176,2.81667,0.9,0.45,0.95,5,2D1U,2.0,True,0.024,11,True,right,0.08333,999,999,0,999,999,0,A,0.14
177,0.5,1.2,1,0.325,0.26667,0.46667,177,2.50834,0.9,0.45,0.95,5,2D1U,2.0,False,0.025,11,True,right,-0.25,999,999,0,999,999,0,A,0.14
178,0.5,0.1,2,0.36667,0.2,0.525,178,1.64167,-0.9,-0.45,0.05,5,1D2U,1.0,True,0.025,11,False,left,0.08333,999,999,0,999,999,0,A,0.165
179,0.5,0.1,1,0.41667,0.41667,0.86667,179,2.25001,-0.9,-0.45,0.05,5,1D2U,1.0,False,0.025,11,False,left,-0.25,999,999,0,999,999,0,A,0.165
180,0.5,1.2,1,0.36667,0.35,0.59167,180,2.79167,0.972,0.48333,0.98333,5,2D1U,1.0,True,0.038,12,True,left,0.08333,999,999,0,999,999,0,A,0.14
181,0.5,1.2,1,0.275,0.25833,0.525,181,2.54166,0.972,0.48333,0.98333,5,2D1U,1.0,True,0.022,12,True,left,-0.25,999,999,0,999,999,0,A,0.14
182,0.5,0.1,2,0.35833,0.40833,0.40833,182,2.62499,0.9,0.45,0.95,5,2D1U,2.0,True,0.041,13,True,right,0.08333,999,999,0,999,999,0,A,0.165
183,0.5,0.1,1,0.24167,0.28333,0.88333,183,2.85833,0.9,0.45,0.95,5,2D1U,1.0,True,0.026,13,True,left,-0.25,999,999,0,999,999,0,A,0.165
184,0.5,1.2,2,0.44167,0.375,0.86667,184,2.23334,-0.9,-0.45,0.05,5,1D2U,2.0,False,0.026,11,False,right,0.08333,999,999,0,999,999,0,A,0.14
185,0.5,1.2,2,0.4,0.24167,0.675,185,1.86667,-0.9,-0.45,0.05,5,1D2U,2.0,False,0.025,11,False,right,-0.25,999,999,0,999,999,0,A,0.14
186,0.5,0.1,2,0.35833,0.25,0.58333,186,2.60833,0.828,0.41667,0.91667,5,2D1U,2.0,True,0.026,13,False,right,0.08333,999,999,0,999,999,0,A,0.165
187,0.5,0.1,1,0.38333,0.34167,0.4,187,1.675,-0.9,-0.45,0.05,5,1D2U,1.0,False,0.028,11,False,left,-0.25,999,999,0,999,999,0,A,0.165
188,0.5,1.2,2,0.35,0.225,0.75,188,1.875,-0.9,-0.45,0.05,5,1D2U,2.0,False,0.028,11,False,right,0.08333,999,999,0,999,999,0,A,0.14
189,0.5,1.2,2,0.35,0.39167,0.85833,189,3.01667,0.828,0.41667,0.91667,5,2D1U,1.0,False,0.027,13,False,left,-0.25,999,999,0,999,999,0,A,0.14
190,0.5,0.1,2,0.40833,0.35,0.875,190,2.18333,-0.9,-0.45,0.05,5,1D2U,2.0,False,0.027,11,False,right,0.08333,999,999,0,999,999,0,A,0.165
191,0.5,0.1,2,0.25833,0.325,0.6,191,2.63333,0.9,0.45,0.95,5,2D1U,2.0,True,0.027,14,True,right,-0.25,999,999,0,999,999,0,A,0.165
192,0.5,1.2,1,0.25833,0.24167,0.825,192,1.875,-0.9,-0.45,0.05,5,1D2U,2.0,True,0.022,11,False,right,0.08333,999,999,0,999,999,0,A,0.14
193,0.5,1.2,2,0.34167,0.33333,0.7,193,1.925,-0.9,-0.45,0.05,5,1D2U,2.0,False,0.027,11,False,right,-0.25,999,999,0,999,999,0,A,0.14
194,0.5,0.1,1,0.25833,0.30833,0.425,194,2.44166,0.9,0.45,0.95,5,2D1U,1.0,True,0.027,14,True,left,0.08333,999,999,0,999,999,0,A,0.165
195,0.5,0.1,2,0.25,0.38333,0.64167,195,1.825,-0.9,-0.45,0.05,5,1D2U,1.0,True,0.04,11,False,left,-0.25,999,999,0,999,999,0,A,0.165
196,0.5,1.2,2,0.39167,0.225,0.48333,196,1.65,-0.9,-0.45,0.05,5,1D2U,1.0,True,0.027,11,False,left,0.08333,999,999,0,999,999,0,A,0.14
197,0.5,1.2,2,0.375,0.31667,0.55833,197,1.83333,-0.828,-0.41667,0.08333,5,1D2U,2.0,False,0.027,12,True,right,-0.25,999,999,0,999,999,0,A,0.14
198,0.5,0.1,2,0.425,0.28333,0.81667,198,2.075,-0.9,-0.45,0.05,5,1D2U,1.0,True,0.028,13,True,left,0.08333,999,999,0,999,999,0,A,0.165
199,0.5,0.1,2,0.39167,0.31667,0.59167,199,2.71668,0.828,0.41667,0.91667,5,2D1U,1.0,False,0.027,15,True,left,-0.25,999,999,0,999,999,0,A,0.165
200,0.5,1.2,1,0.425,0.35,0.85,200,2.175,-0.9,-0.45,0.05,5,1D2U,2.0,True,0.025,13,True,right,0.08333,999,999,0,999,999,0,A,0.14
201,0.5,1.2,1,0.275,0.41667,0.50833,201,1.78333,-0.828,-0.41667,0.08333,5,1D2U,1.0,False,0.027,14,True,left,-0.25,999,999,0,999,999,0,A,0.14
202,0.5,0.1,1,0.40833,0.38333,0.51667,202,2.75833,0.9,0.45,0.95,5,2D1U,2.0,False,0.027,16,True,right,0.08333,999,999,0,999,999,0,A,0.165
203,0.5,0.1,1,0.33333,0.24167,0.40833,203,1.53333,-0.9,-0.45,0.05,5,1D2U,2.0,True,0.028,15,True,right,-0.25,999,999,0,999,999,0,A,0.165
204,0.5,1.2,2,0.24167,0.25833,0.45833,204,2.44166,0.972,0.48333,0.98333,5,2D1U,1.0,False,0.028,16,False,left,0.08333,999,999,0,999,999,0,A,0.14
205,0.5,1.2,1,0.31667,0.34167,0.79167,205,2.00001,-0.9,-0.45,0.05,5,1D2U,2.0,True,0.028,15,True,right,-0.25,999,999,0,999,999,0,A,0.14
206,0.5,0.1,2,0.20833,0.28333,0.85833,206,1.93332,-0.828,-0.41667,0.08333,5,1D2U,2.0,False,0.028,16,True,right,0.08333,999,999,0,999,999,0,A,0.165
207,0.5,0.1,2,0.20833,0.36667,0.73333,207,1.85833,-0.9,-0.45,0.05,5,1D2U,1.0,True,0.028,17,True,left,-0.25,999,999,0,999,999,0,A,0.165
208,0.5,1.2,2,0.44167,0.29167,0.61667,208,2.80001,0.9,0.45,0.95,5,2D1U,1.0,False,0.03,16,False,left,0.08333,999,999,0,999,999,0,A,0.14
209,0.5,1.2,1,0.21667,0.38333,0.89167,209,2.975,0.972,0.48333,0.98333,5,2D1U,1.0,True,0.029,16,False,left,-0.25,999,999,0,999,999,0,A,0.14
210,0.5,0.1,2,0.225,0.4,0.55,210,1.725,-0.9,-0.45,0.05,5,1D2U,1.0,True,0.025,17,True,left,0.08333,999,999,0,999,999,0,A,0.165
211,0.5,0.1,2,0.40833,0.275,0.6,211,2.76666,0.972,0.48333,0.98333,5,2D1U,2.0,True,0.03,16,False,right,-0.25,999,999,0,999,999,0,A,0.165
212,0.5,1.2,2,0.35833,0.40833,0.55833,212,2.77499,0.9,0.45,0.95,5,2D1U,1.0,False,0.029,17,True,left,0.08333,999,999,0,999,999,0,A,0.14
213,0.5,1.2,2,0.41667,0.25833,0.80833,213,2.96666,0.972,0.48333,0.98333,5,2D1U,2.0,True,0.029,18,True,right,-0.25,999,999,0,999,999,0,A,0.14
214,0.5,0.1,1,0.33333,0.25833,0.55833,214,1.73332,-0.828,-0.41667,0.08333,5,1D2U,2.0,True,0.029,18,True,right,0.08333,999,999,0,999,999,0,A,0.165
215,0.5,0.1,1,0.25,0.44167,0.84167,215,2.11667,-0.828,-0.41667,0.08333,5,1D2U,2.0,True,0.031,18,True,right,-0.25,999,999,0,999,999,0,A,0.165
216,0.5,1.2,2,0.35,0.24167,0.83333,216,2.90833,0.972,0.48333,0.98333,5,2D1U,1.0,False,0.029,18,True,left,0.08333,999,999,0,999,999,0,A,0.14
217,0.5,1.2,1,0.23333,0.38333,0.84167,217,2.90833,0.9,0.45,0.95,5,2D1U,1.0,True,0.045,18,False,left,-0.25,999,999,0,999,999,0,A,0.14
218,0.5,0.1,2,0.24167,0.34167,0.775,218,2.80834,0.9,0.45,0.95,5,2D1U,2.0,True,0.031,18,False,right,0.08333,999,999,0,999,999,0,A,0.165
219,0.5,0.1,1,0.44167,0.3,0.425,219,2.58334,0.828,0.41667,0.91667,5,2D1U,1.0,True,0.03,19,True,left,-0.25,999,999,0,999,999,0,A,0.165
220,0.5,1.2,1,0.31667,0.275,0.66667,220,1.88334,-0.756,-0.375,0.125,5,1D2U,1.0,False,0.03,18,False,left,0.08333,999,999,0,999,999,0,A,0.14
221,0.5,1.2,2,0.40833,0.34167,0.9,221,3.06667,0.828,0.41667,0.91667,5,2D1U,1.0,False,0.03,19,True,left,-0.25,999,999,0,999,999,0,A,0.14
222,0.5,0.1,1,0.23333,0.35,0.575,222,1.74166,-0.828,-0.41667,0.08333,5,1D2U,1.0,False,0.03,19,True,left,0.08333,999,999,0,999,999,0,A,0.165
223,0.5,0.1,2,0.29167,0.45,0.825,223,2.11667,-0.9,-0.45,0.05,5,1D2U,1.0,True,0.029,19,False,left,-0.25,999,999,0,999,999,0,A,0.165
224,0.5,1.2,1,0.325,0.20833,0.70833,224,2.69166,0.9,0.45,0.95,5,2D1U,2.0,False,0.03,20,True,right,0.08333,999,999,0,999,999,0,A,0.14
225,0.5,1.2,2,0.43333,0.25,0.525,225,2.69166,0.972,0.48333,0.98333,5,2D1U,1.0,False,0.03,20,False,left,-0.25,999,999,0,999,999,0,A,0.14
226,0.5,0.1,1,0.35833,0.40833,0.44167,226,1.75833,-0.9,-0.45,0.05,5,1D2U,2.0,True,0.029,19,False,right,0.08333,999,999,0,999,999,0,A,0.165
227,0.5,0.1,2,0.40833,0.20833,0.7,227,1.89999,-0.828,-0.41667,0.08333,5,1D2U,2.0,False,0.031,20,True,right,-0.25,999,999,0,999,999,0,A,0.165
228,0.5,1.2,2,0.23333,0.38333,0.51667,228,2.58333,0.9,0.45,0.95,5,2D1U,2.0,True,0.031,20,False,right,0.08333,999,999,0,999,999,0,A,0.14
229,0.5,1.2,1,0.34167,0.40833,0.875,229,3.075,0.9,0.45,0.95,5,2D1U,2.0,False,0.03,20,False,right,-0.25,999,999,0,999,999,0,A,0.14
230,0.5,0.1,2,0.44167,0.2,0.70833,230,2.83333,0.972,0.48333,0.98333,5,2D1U,1.0,False,0.032,20,False,left,0.08333,999,999,0,999,999,0,A,0.165
231,0.5,0.1,2,0.35833,0.38333,0.65,231,2.84166,0.9,0.45,0.95,5,2D1U,2.0,True,0.032,20,False,right,-0.25,999,999,0,999,999,0,A,0.165
232,0.5,1.2,1,0.28333,0.35,0.74167,232,1.925,-0.9,-0.45,0.05,5,1D2U,1.0,False,0.031,21,True,left,0.08333,999,999,0,999,999,0,A,0.14
233,0.5,1.2,2,0.4,0.29167,0.53333,233,2.675,0.9,0.45,0.95,5,2D1U,2.0,True,0.026,20,False,right,-0.25,999,999,0,999,999,0,A,0.14
234,0.5,0.1,1,0.375,0.31667,0.63333,234,2.74167,0.828,0.41667,0.91667,5,2D1U,1.0,True,0.028,21,True,left,0.08333,999,999,0,999,999,0,A,0.165
235,0.5,0.1,2,0.425,0.24167,0.65,235,1.86667,-0.9,-0.45,0.05,5,1D2U,2.0,False,0.031,21,False,right,-0.25,999,999,0,999,999,0,A,0.165
236,0.5,1.2,1,0.4,0.30833,0.58333,236,1.84166,-0.9,-0.45,0.05,5,1D2U,1.0,False,0.03,21,False,left,0.08333,999,999,0,999,999,0,A,0.14
237,0.5,1.2,1,0.41667,0.40833,0.88333,237,3.125,0.828,0.41667,0.91667,5,2D1U,1.0,True,0.032,21,True,left,-0.25,999,999,0,999,999,0,A,0.14
238,0.5,0.1,1,0.41667,0.41667,0.63333,238,2.84167,0.756,0.375,0.875,5,2D1U,2.0,False,0.031,21,False,right,0.08333,999,999,0,999,999,0,A,0.165
239,0.5,0.1,2,0.24167,0.34167,0.40833,239,1.54167,-0.9,-0.45,0.05,5,1D2U,2.0,False,0.033,21,False,right,-0.25,999,999,0,999,999,0,A,0.165
240,0.5,1.2,1,0.3,0.21667,0.675,240,1.74167,-0.9,-0.45,0.05,5,1D2U,2.0,True,0.028,21,False,right,0.08333,999,999,0,999,999,0,A,0.14
241,0.5,1.2,1,0.43333,0.34167,0.63333,241,2.825,0.828,0.41667,0.91667,5,2D1U,1.0,True,0.032,22,True,left,-0.25,999,999,0,999,999,0,A,0.14
242,0.5,0.1,2,0.275,0.33333,0.66667,242,1.825,-0.9,-0.45,0.05,5,1D2U,1.0,True,0.032,21,False,left,0.08333,999,999,0,999,999,0,A,0.165
243,0.5,0.1,2,0.225,0.28333,0.71667,243,2.64167,0.828,0.41667,0.91667,5,2D1U,1.0,False,0.032,22,True,left,-0.25,999,999,0,999,999,0,A,0.165
244,0.5,1.2,2,0.38333,0.4,0.55833,244,2.79166,0.9,0.45,0.95,5,2D1U,1.0,False,0.032,22,False,left,0.08333,999,999,0,999,999,0,A,0.14
245,0.5,1.2,2,0.38333,0.23333,0.84167,245,2.94166,0.972,0.48333,0.98333,5,2D1U,1.0,False,0.032,22,False,left,-0.25,999,999,0,999,999,0,A,0.14
246,0.5,0.1,2,0.43333,0.44167,0.60833,246,2.06666,-0.828,-0.41667,0.08333,5,1D2U,1.0,True,0.029,22,True,left,0.08333,999,999,0,999,999,0,A,0.165
247,0.5,0.1,1,0.36667,0.33333,0.86667,247,2.15,-0.828,-0.41667,0.08333,5,1D2U,1.0,False,0.032,22,True,left,-0.25,999,999,0,999,999,0,A,0.165
248,0.5,1.2,2,0.35833,0.21667,0.75833,248,1.88333,-0.9,-0.45,0.05,5,1D2U,2.0,False,0.036,23,True,right,0.08333,999,999,0,999,999,0,A,0.14
249,0.5,1.2,1,0.31667,0.3,0.79167,249,1.95834,-0.9,-0.45,0.05,5,1D2U,2.0,True,0.034,23,False,right,-0.25,999,999,0,999,999,0,A,0.14
250,0.5,0.1,1,0.25833,0.41667,0.85833,250,2.98333,0.9,0.45,0.95,5,2D1U,2.0,False,0.028,22,False,right,0.08333,999,999,0,999,999,0,A,0.165
251,0.5,0.1,2,0.23333,0.24167,0.60833,251,1.63333,-0.9,-0.45,0.05,5,1D2U,1.0,True,0.033,23,False,left,-0.25,999,999,0,999,999,0,A,0.165
252,0.5,1.2,2,0.30833,0.34167,0.69167,252,2.825,0.972,0.48333,0.98333,5,2D1U,1.0,False,0.034,22,False,left,0.08333,999,999,0,999,999,0,A,0.14
253,0.5,1.2,1,0.225,0.43333,0.75833,253,2.86666,0.9,0.45,0.95,5,2D1U,1.0,True,0.034,22,False,left,-0.25,999,999,0,999,999,0,A,0.14
254,0.5,0.1,2,0.33333,0.325,0.475,254,1.71666,-0.828,-0.41667,0.08333,5,1D2U,1.0,True,0.033,24,True,left,0.08333,999,999,0,999,999,0,A,0.165
255,0.5,0.1,2,0.425,0.38333,0.78333,255,3.04166,0.9,0.45,0.95,5,2D1U,2.0,True,0.034,22,False,right,-0.25,999,999,0,999,999,0,A,0.165
256,0.5,1.2,2,0.30833,0.325,0.74167,256,1.95833,-0.828,-0.41667,0.08333,5,1D2U,1.0,True,0.032,24,True,left,0.08333,999,999,0,999,999,0,A,0.14
257,0.5,1.2,2,0.33333,0.25833,0.81667,257,2.825,0.828,0.41667,0.91667,5,2D1U,2.0,True,0.034,23,True,right,-0.25,999,999,0,999,999,0,A,0.14
258,0.5,0.1,2,0.31667,0.325,0.75,258,2.80834,0.828,0.41667,0.91667,5,2D1U,1.0,False,0.034,23,True,left,0.08333,999,999,0,999,999,0,A,0.165
259,0.5,0.1,2,0.44167,0.33333,0.76667,259,2.16667,-0.756,-0.375,0.125,5,1D2U,1.0,True,0.032,24,False,left,-0.25,999,999,0,999,999,0,A,0.165
260,0.5,1.2,1,0.31667,0.275,0.58333,260,1.8,-0.756,-0.375,0.125,5,1D2U,1.0,False,0.031,24,False,left,0.08333,999,999,0,999,999,0,A,0.14
261,0.5,1.2,2,0.41667,0.41667,0.81667,261,2.23334,-0.828,-0.41667,0.08333,5,1D2U,2.0,False,0.032,25,True,right,-0.25,999,999,0,999,999,0,A,0.14
262,0.5,0.1,2,0.25833,0.28333,0.525,262,2.51666,0.9,0.45,0.95,5,2D1U,1.0,False,0.034,24,True,left,0.08333,999,999,0,999,999,0,A,0.165
263,0.5,0.1,2,0.225,0.39167,0.875,263,2.04167,-0.9,-0.45,0.05,5,1D2U,2.0,False,0.035,25,False,right,-0.25,999,999,0,999,999,0,A,0.165
264,0.5,1.2,1,0.375,0.225,0.75,264,2.83333,0.972,0.48333,0.98333,5,2D1U,1.0,True,0.028,24,False,left,0.08333,999,999,0,999,999,0,A,0.14
265,0.5,1.2,1,0.23333,0.425,0.71667,265,1.925,-0.9,-0.45,0.05,5,1D2U,1.0,False,0.035,25,False,left,-0.25,999,999,0,999,999,0,A,0.14
266,0.5,0.1,2,0.28333,0.45,0.475,266,2.69166,0.972,0.48333,0.98333,5,2D1U,2.0,True,0.032,24,False,right,0.08333,999,999,0,999,999,0,A,0.165
267,0.5,0.1,1,0.39167,0.35833,0.78333,267,2.08333,-0.9,-0.45,0.05,5,1D2U,2.0,True,0.036,25,False,right,-0.25,999,999,0,999,999,0,A,0.165
268,0.5,1.2,1,0.275,0.28333,0.49167,268,2.5,0.9,0.45,0.95,5,2D1U,1.0,True,0.036,25,True,left,0.08333,999,999,0,999,999,0,A,0.14
269,0.5,1.2,1,0.31667,0.35,0.81667,269,2.93334,0.9,0.45,0.95,5,2D1U,2.0,False,0.035,25,True,right,-0.25,999,999,0,999,999,0,A,0.14
270,0.5,0.1,1,0.21667,0.25,0.64167,270,2.59167,0.972,0.48333,0.98333,5,2D1U,1.0,True,0.043,26,True,left,0.08333,999,999,0,999,999,0,A,0.165
271,0.5,0.1,1,0.4,0.41667,0.475,271,1.84167,-0.9,-0.45,0.05,5,1D2U,1.0,False,0.036,25,False,left,-0.25,999,999,0,999,999,0,A,0.165
272,0.5,1.2,1,0.25833,0.44167,0.65833,272,2.84166,0.972,0.48333,0.98333,5,2D1U,2.0,False,0.03,26,True,right,0.08333,999,999,0,999,999,0,A,0.14
273,0.5,1.2,2,0.35,0.4,0.5,273,1.8,-0.9,-0.45,0.05,5,1D2U,1.0,True,0.036,25,False,left,-0.25,999,999,0,999,999,0,A,0.14
274,0.5,0.1,1,0.31667,0.36667,0.59167,274,1.82501,-0.9,-0.45,0.05,5,1D2U,2.0,True,0.033,25,False,right,0.08333,999,999,0,999,999,0,A,0.165
275,0.5,0.1,1,0.3,0.35833,0.425,275,2.53333,0.9,0.45,0.95,5,2D1U,2.0,False,0.044,26,False,right,-0.25,999,999,0,999,999,0,A,0.165
276,0.5,1.2,2,0.28333,0.34167,0.475,276,1.68333,-0.828,-0.41667,0.08333,5,1D2U,2.0,False,0.036,26,True,right,0.08333,999,999,0,999,999,0,A,0.14
277,0.5,1.2,2,0.25833,0.275,0.85833,277,1.94166,-0.9,-0.45,0.05,5,1D2U,1.0,True,0.029,27,True,left,-0.25,999,999,0,999,999,0,A,0.14
278,0.5,0.1,1,0.25833,0.38333,0.76667,278,1.95833,-0.9,-0.45,0.05,5,1D2U,2.0,True,0.03,27,True,right,0.08333,999,999,0,999,999,0,A,0.165
279,0.5,0.1,1,0.43333,0.375,0.68333,279,2.07499,-0.828,-0.41667,0.08333,5,1D2U,2.0,True,0.048,28,True,right,-0.25,999,999,0,999,999,0,A,0.165
280,0.5,1.2,2,0.28333,0.425,0.89167,280,3.08333,0.972,0.48333,0.98333,5,2D1U,1.0,False,0.033,26,False,left,0.08333,999,999,0,999,999,0,A,0.14
281,0.5,1.2,2,0.29167,0.325,0.50833,281,2.575,0.9,0.45,0.95,5,2D1U,1.0,False,0.031,26,False,left,-0.25,999,999,0,999,999,0,A,0.14
282,0.5,0.1,2,0.40833,0.3,0.75,282,2.94166,0.972,0.48333,0.98333,5,2D1U,2.0,True,0.033,26,False,right,0.08333,999,999,0,999,999,0,A,0.165
283,0.5,0.1,1,0.36667,0.325,0.59167,283,1.86667,-0.828,-0.41667,0.08333,5,1D2U,2.0,True,0.038,28,True,right,-0.25,999,999,0,999,999,0,A,0.165
284,0.5,1.2,1,0.29167,0.25833,0.725,284,2.75833,0.972,0.48333,0.98333,5,2D1U,1.0,True,0.041,26,False,left,0.08333,999,999,0,999,999,0,A,0.14
285,0.5,1.2,2,0.31667,0.43333,0.44167,285,1.81667,-0.756,-0.375,0.125,5,1D2U,2.0,False,0.037,28,False,right,-0.25,999,999,0,999,999,0,A,0.14
286,0.5,0.1,2,0.25833,0.20833,0.60833,286,1.65832,-0.828,-0.41667,0.08333,5,1D2U,1.0,True,0.034,29,True,left,0.08333,999,999,0,999,999,0,A,0.165
287,0.5,0.1,1,0.425,0.44167,0.69167,287,3.00834,0.9,0.45,0.95,5,2D1U,1.0,True,0.031,27,True,left,-0.25,999,999,0,999,999,0,A,0.165
288,0.5,1.2,1,0.20833,0.39167,0.6,288,2.65,0.9,0.45,0.95,5,2D1U,2.0,False,0.038,27,True,right,0.08333,999,999,0,999,999,0,A,0.14
289,0.5,1.2,1,0.29167,0.28333,0.83333,289,1.99166,-0.828,-0.41667,0.08333,5,1D2U,1.0,False,0.034,29,True,left,-0.25,999,999,0,999,999,0,A,0.14
290,0.5,0.1,1,0.28333,0.43333,0.89167,290,3.09166,0.972,0.48333,0.98333,5,2D1U,1.0,True,0.034,28,True,left,0.08333,999,999,0,999,999,0,A,0.165
291,0.5,0.1,1,0.24167,0.36667,0.51667,291,1.67501,-0.9,-0.45,0.05,5,1D2U,1.0,False,0.034,29,False,left,-0.25,999,999,0,999,999,0,A,0.165
292,0.5,1.2,2,0.44167,0.2,0.44167,292,2.56667,0.972,0.48333,0.98333,5,2D1U,1.0,False,0.038,28,True,left,0.08333,999,999,0,999,999,0,A,0.14
293,0.5,1.2,2,0.325,0.25,0.43333,293,1.55833,-0.9,-0.45,0.05,5,1D2U,2.0,False,0.034,29,False,right,-0.25,999,999,0,999,999,0,A,0.14
294,0.5,0.1,1,0.225,0.34167,0.75833,294,1.875,-0.9,-0.45,0.05,5,1D2U,2.0,True,0.045,29,False,right,0.08333,999,999,0,999,999,0,A,0.165
295,0.5,0.1,2,0.35,0.24167,0.8,295,2.84167,0.9,0.45,0.95,5,2D1U,1.0,False,0.031,28,False,left,-0.25,999,999,0,999,999,0,A,0.165
296,0.5,1.2,2,0.40833,0.36667,0.66667,296,2.925,0.972,0.48333,0.98333,5,2D1U,1.0,False,0.043,28,False,left,0.08333,999,999,0,999,999,0,A,0.14
297,0.5,1.2,2,0.275,0.325,0.64167,297,2.69167,0.9,0.45,0.95,5,2D1U,1.0,False,0.031,28,False,left,-0.25,999,999,0,999,999,0,A,0.14
298,0.5,0.1,1,0.36667,0.33333,0.51667,298,1.76667,-0.9,-0.45,0.05,5,1D2U,2.0,True,0.039,29,False,right,0.08333,999,999,0,999,999,0,A,0.165
299,0.5,0.1,1,0.31667,0.26667,0.5,299,1.66667,-0.828,-0.41667,0.08333,5,1D2U,1.0,False,0.04,30,True,left,-0.25,999,999,0,999,999,0,A,0.165
300,0.5,1.2,1,0.425,0.41667,0.8,300,2.19167,-0.9,-0.45,0.05,5,1D2U,2.0,True,0.031,31,True,right,0.08333,999,999,0,999,999,0,A,0.14
301,0.5,1.2,1,0.275,0.29167,0.53333,301,2.58333,0.972,0.48333,0.98333,5,2D1U,1.0,True,0.038,28,False,left,-0.25,999,999,0,999,999,0,A,0.14
302,0.5,0.1,2,0.26667,0.28333,0.75833,302,1.85833,-0.9,-0.45,0.05,5,1D2U,2.0,False,0.036,31,True,right,0.08333,999,999,0,999,999,0,A,0.165
303,0.5,0.1,1,0.26667,0.39167,0.525,303,2.66667,0.972,0.48333,0.98333,5,2D1U,2.0,False,0.036,28,False,right,-0.25,999,999,0,999,999,0,A,0.165
304,0.5,1.2,2,0.25833,0.225,0.73333,304,1.76666,-0.9,-0.45,0.05,5,1D2U,1.0,True,0.034,31,False,left,0.08333,999,999,0,999,999,0,A,0.14
305,0.5,1.2,1,0.36667,0.23333,0.45833,305,1.60833,-0.9,-0.45,0.05,5,1D2U,1.0,False,0.034,31,False,left,-0.25,999,999,0,999,999,0,A,0.14
306,0.5,0.1,2,0.38333,0.45,0.89167,306,3.175,0.9,0.45,0.95,5,2D1U,1.0,False,0.036,28,False,left,0.08333,999,999,0,999,999,0,A,0.165
307,0.5,0.1,1,0.375,0.33333,0.56667,307,1.825,-0.9,-0.45,0.05,5,1D2U,2.0,True,0.036,31,False,right,-0.25,999,999,0,999,999,0,A,0.165
308,0.5,1.2,2,0.43333,0.38333,0.71667,308,2.08333,-0.9,-0.45,0.05,5,1D2U,2.0,False,0.037,31,False,right,0.08333,999,999,0,999,999,0,A,0.14
309,0.5,1.2,1,0.30833,0.45,0.81667,309,3.05833,0.972,0.48333,0.98333,5,2D1U,1.0,True,0.04,28,False,left,-0.25,999,999,0,999,999,0,A,0.14
310,0.5,0.1,2,0.425,0.24167,0.775,310,1.99167,-0.9,-0.45,0.05,5,1D2U,2.0,False,0.037,31,False,right,0.08333,999,999,0,999,999,0,A,0.165
311,0.5,0.1,2,0.29167,0.28333,0.60833,311,1.73333,-0.9,-0.45,0.05,5,1D2U,1.0,True,0.036,31,False,left,-0.25,999,999,0,999,999,0,A,0.165
312,0.5,1.2,1,0.31667,0.28333,0.75833,312,2.84166,0.972,0.48333,0.98333,5,2D1U,2.0,False,0.038,28,False,right,0.08333,999,999,0,999,999,0,A,0.14
313,0.5,1.2,2,0.36667,0.25,0.5,313,1.66667,-0.9,-0.45,0.05,5,1D2U,1.0,True,0.036,31,False,left,-0.25,999,999,0,999,999,0,A,0.14
314,0.5,0.1,2,0.24167,0.44167,0.53333,314,1.8,-0.828,-0.41667,0.08333,5,1D2U,1.0,True,0.036,32,True,left,0.08333,999,999,0,999,999,0,A,0.165
315,0.5,0.1,1,0.29167,0.375,0.60833,315,2.725,0.9,0.45,0.95,5,2D1U,2.0,False,0.037,28,False,right,-0.25,999,999,0,999,999,0,A,0.165
316,0.5,1.2,1,0.39167,0.30833,0.85833,316,3.04166,0.972,0.48333,0.98333,5,2D1U,2.0,False,0.041,28,False,right,0.08333,999,999,0,999,999,0,A,0.14
317,0.5,1.2,2,0.4,0.24167,0.60833,317,2.7,0.9,0.45,0.95,5,2D1U,2.0,True,0.032,28,False,right,-0.25,999,999,0,999,999,0,A,0.14
318,0.5,0.1,1,0.35833,0.30833,0.45,318,1.69999,-0.828,-0.41667,0.08333,5,1D2U,1.0,False,0.035,32,True,left,0.08333,999,999,0,999,999,0,A,0.165
319,0.5,0.1,1,0.375,0.325,0.51667,319,2.66667,0.9,0.45,0.95,5,2D1U,1.0,True,0.038,28,False,left,-0.25,999,999,0,999,999,0,A,0.165
320,0.5,1.2,2,0.25,0.21667,0.55833,320,2.44167,0.828,0.41667,0.91667,5,2D1U,2.0,True,0.038,29,True,right,0.08333,999,999,0,999,999,0,A,0.14
321,0.5,1.2,1,0.20833,0.35,0.49167,321,2.46667,0.828,0.41667,0.91667,5,2D1U,1.0,True,0.035,29,True,left,-0.25,999,999,0,999,999,0,A,0.14
322,0.5,0.1,2,0.425,0.35,0.81667,322,2.14167,-0.9,-0.45,0.05,5,1D2U,2.0,False,0.043,33,True,right,0.08333,999,999,0,999,999,0,A,0.165
323,0.5,0.1,1,0.34167,0.325,0.43333,323,1.65,-0.9,-0.45,0.05,5,1D2U,1.0,False,0.037,33,False,left,-0.25,999,999,0,999,999,0,A,0.165
324,0.5,1.2,2,0.275,0.31667,0.65,324,2.61667,0.756,0.375,0.875,5,2D1U,1.0,False,0.042,29,False,left,0.08333,999,999,0,999,999,0,A,0.14
325,0.5,1.2,2,0.29167,0.26667,0.78333,325,1.89167,-0.9,-0.45,0.05,5,1D2U,2.0,False,0.039,33,False,right,-0.25,999,999,0,999,999,0,A,0.14
326,0.5,0.1,1,0.325,0.39167,0.65,326,1.91667,-0.9,-0.45,0.05,5,1D2U,2.0,True,0.038,33,False,right,0.08333,999,999,0,999,999,0,A,0.165
327,0.5,0.1,2,0.3,0.2,0.475,327,1.525,-0.9,-0.45,0.05,5,1D2U,2.0,False,0.047,33,False,right,-0.25,999,999,0,999,999,0,A,0.165
328,0.5,1.2,1,0.33333,0.41667,0.64167,328,2.80834,0.828,0.41667,0.91667,5,2D1U,1.0,True,0.038,30,True,left,0.08333,999,999,0,999,999,0,A,0.14
329,0.5,1.2,2,0.31667,0.31667,0.625,329,1.80834,-0.9,-0.45,0.05,5,1D2U,2.0,False,0.035,33,False,right,-0.25,999,999,0,999,999,0,A,0.14
330,0.5,0.1,1,0.4,0.40833,0.475,330,2.7,0.828,0.41667,0.91667,5,2D1U,2.0,False,0.034,30,True,right,0.08333,999,999,0,999,999,0,A,0.165
331,0.5,0.1,1,0.20833,0.25833,0.65833,331,2.57499,0.9,0.45,0.95,5,2D1U,2.0,False,0.036,30,False,right,-0.25,999,999,0,999,999,0,A,0.165
332,0.5,1.2,2,0.33333,0.31667,0.55833,332,1.75833,-0.9,-0.45,0.05,5,1D2U,1.0,True,0.04,33,False,left,0.08333,999,999,0,999,999,0,A,0.14
333,0.5,1.2,2,0.21667,0.38333,0.5,333,1.65,-0.9,-0.45,0.05,5,1D2U,1.0,True,0.038,33,False,left,-0.25,999,999,0,999,999,0,A,0.14
334,0.5,0.1,1,0.25833,0.41667,0.55,334,2.70833,0.972,0.48333,0.98333,5,2D1U,2.0,False,0.038,30,False,right,0.08333,999,999,0,999,999,0,A,0.165
335,0.5,0.1,2,0.41667,0.43333,0.80833,335,3.10833,0.9,0.45,0.95,5,2D1U,1.0,False,0.039,30,False,left,-0.25,999,999,0,999,999,0,A,0.165
336,0.5,1.2,2,0.36667,0.35,0.71667,336,2.91667,0.972,0.48333,0.98333,5,2D1U,1.0,False,0.037,30,False,left,0.08333,999,999,0,999,999,0,A,0.14
337,0.5,1.2,2,0.29167,0.28333,0.46667,337,1.625,-0.828,-0.41667,0.08333,5,1D2U,2.0,False,0.038,34,True,right,-0.25,999,999,0,999,999,0,A,0.14
338,0.5,0.1,1,0.275,0.31667,0.45833,338,1.6,-0.9,-0.45,0.05,5,1D2U,1.0,False,0.04,35,True,left,0.08333,999,999,0,999,999,0,A,0.165
339,0.5,0.1,2,0.25833,0.28333,0.58333,339,1.67499,-0.9,-0.45,0.05,5,1D2U,1.0,True,0.041,35,False,left,-0.25,999,999,0,999,999,0,A,0.165
340,0.5,1.2,2,0.24167,0.325,0.50833,340,2.525,0.9,0.45,0.95,5,2D1U,2.0,True,0.043,30,False,right,0.08333,999,999,0,999,999,0,A,0.14
341,0.5,1.2,1,0.31667,0.325,0.78333,341,2.875,0.9,0.45,0.95,5,2D1U,1.0,True,0.054,30,False,left,-0.25,999,999,0,999,999,0,A,0.14
342,0.5,0.1,1,0.30833,0.41667,0.74167,342,2.01667,-0.9,-0.45,0.05,5,1D2U,1.0,False,0.04,35,False,left,0.08333,999,999,0,999,999,0,A,0.165
343,0.5,0.1,2,0.31667,0.25833,0.80833,343,1.93333,-0.9,-0.45,0.05,5,1D2U,2.0,False,0.039,35,False,right,-0.25,999,999,0,999,999,0,A,0.165
344,0.5,1.2,1,0.25,0.23333,0.45,344,2.35,0.828,0.41667,0.91667,5,2D1U,1.0,True,0.043,31,True,left,0.08333,999,999,0,999,999,0,A,0.14
345,0.5,1.2,2,0.38333,0.21667,0.48333,345,1.63333,-0.9,-0.45,0.05,5,1D2U,1.0,True,0.04,35,False,left,-0.25,999,999,0,999,999,0,A,0.14
346,0.5,0.1,1,0.41667,0.28333,0.58333,346,2.7,0.828,0.41667,0.91667,5,2D1U,2.0,False,0.04,31,True,right,0.08333,999,999,0,999,999,0,A,0.165
347,0.5,0.1,1,0.28333,0.43333,0.65833,347,1.92499,-0.9,-0.45,0.05,5,1D2U,2.0,True,0.041,35,False,right,-0.25,999,999,0,999,999,0,A,0.165
348,0.5,1.2,2,0.35833,0.29167,0.48333,348,1.71666,-0.828,-0.41667,0.08333,5,1D2U,1.0,True,0.04,36,True,left,0.08333,999,999,0,999,999,0,A,0.14
349,0.5,1.2,1,0.39167,0.35,0.41667,349,2.60834,0.9,0.45,0.95,5,2D1U,2.0,False,0.037,32,True,right,-0.25,999,999,0,999,999,0,A,0.14
350,0.5,0.1,2,0.31667,0.39167,0.45,350,2.64167,0.972,0.48333,0.98333,5,2D1U,2.0,True,0.042,32,False,right,0.08333,999,999,0,999,999,0,A,0.165
351,0.5,0.1,1,0.28333,0.225,0.43333,351,1.52499,-0.828,-0.41667,0.08333,5,1D2U,1.0,False,0.04,36,True,left,-0.25,999,999,0,999,999,0,A,0.165
352,0.5,1.2,1,0.3,0.31667,0.89167,352,2.05834,-0.9,-0.45,0.05,5,1D2U,2.0,True,0.04,37,True,right,0.08333,999,999,0,999,999,0,A,0.14
353,0.5,1.2,2,0.31667,0.29167,0.89167,353,2.98334,0.972,0.48333,0.98333,5,2D1U,2.0,True,0.04,32,False,right,-0.25,999,999,0,999,999,0,A,0.14
354,0.5,0.1,1,0.34167,0.25,0.75,354,2.79167,0.9,0.45,0.95,5,2D1U,1.0,True,0.04,33,True,left,0.08333,999,999,0,999,999,0,A,0.165
355,0.5,0.1,2,0.21667,0.275,0.64167,355,1.68334,-0.9,-0.45,0.05,5,1D2U,1.0,True,0.04,37,True,left,-0.25,999,999,0,999,999,0,A,0.165
356,0.5,1.2,2,0.34167,0.3,0.68333,356,2.775,0.9,0.45,0.95,5,2D1U,1.0,False,0.046,33,True,left,0.08333,999,999,0,999,999,0,A,0.14
357,0.5,1.2,1,0.36667,0.30833,0.48333,357,1.74166,-0.828,-0.41667,0.08333,5,1D2U,2.0,True,0.043,38,True,right,-0.25,999,999,0,999,999,0,A,0.14
358,0.5,0.1,1,0.39167,0.325,0.64167,358,2.84167,0.972,0.48333,0.98333,5,2D1U,1.0,True,0.041,34,True,left,0.08333,999,999,0,999,999,0,A,0.165
359,0.5,0.1,2,0.28333,0.375,0.49167,359,1.73333,-0.828,-0.41667,0.08333,5,1D2U,1.0,True,0.041,38,True,left,-0.25,999,999,0,999,999,0,A,0.165
360,0.5,1.2,1,0.25,0.33333,0.7,360,1.90833,-0.756,-0.375,0.125,5,1D2U,1.0,False,0.041,38,False,left,0.08333,999,999,0,999,999,0,A,0.14
361,0.5,1.2,1,0.23333,0.25833,0.69167,361,2.66666,0.972,0.48333,0.98333,5,2D1U,1.0,True,0.041,34,True,left,-0.25,999,999,0,999,999,0,A,0.14
362,0.5,0.1,2,0.39167,0.35,0.41667,362,1.74167,-0.828,-0.41667,0.08333,5,1D2U,2.0,False,0.041,39,True,right,0.08333,999,999,0,999,999,0,A,0.165
363,0.5,0.1,1,0.33333,0.31667,0.83333,363,2.93333,0.9,0.45,0.95,5,2D1U,1.0,True,0.043,35,True,left,-0.25,999,999,0,999,999,0,A,0.165
364,0.5,1.2,2,0.31667,0.25,0.80833,364,2.825,0.9,0.45,0.95,5,2D1U,2.0,True,0.043,35,True,right,0.08333,999,999,0,999,999,0,A,0.14
365,0.5,1.2,1,0.33333,0.35833,0.70833,365,1.94999,-0.9,-0.45,0.05,5,1D2U,2.0,True,0.042,39,False,right,-0.25,999,999,0,999,999,0,A,0.14
366,0.5,0.1,2,0.21667,0.375,0.43333,366,2.44167,0.828,0.41667,0.91667,5,2D1U,1.0,False,0.044,35,False,left,0.08333,999,999,0,999,999,0,A,0.165
367,0.5,0.1,1,0.25,0.40833,0.575,367,1.78333,-0.9,-0.45,0.05,5,1D2U,1.0,False,0.042,39,False,left,-0.25,999,999,0,999,999,0,A,0.165
368,0.5,1.2,2,0.41667,0.21667,0.68333,368,2.76667,0.9,0.45,0.95,5,2D1U,2.0,True,0.043,36,True,right,0.08333,999,999,0,999,999,0,A,0.14
369,0.5,1.2,2,0.275,0.44167,0.79167,369,2.05834,-0.9,-0.45,0.05,5,1D2U,1.0,True,0.042,39,False,left,-0.25,999,999,0,999,999,0,A,0.14
370,0.5,0.1,2,0.36667,0.20833,0.44167,370,1.56667,-0.9,-0.45,0.05,5,1D2U,1.0,True,0.042,39,False,left,0.08333,999,999,0,999,999,0,A,0.165
371,0.5,0.1,1,0.45,0.30833,0.48333,371,2.69166,0.9,0.45,0.95,5,2D1U,1.0,True,0.047,36,True,left,-0.25,999,999,0,999,999,0,A,0.165
372,0.5,1.2,2,0.425,0.425,0.65833,372,2.925,0.828,0.41667,0.91667,5,2D1U,1.0,False,0.043,37,True,left,0.08333,999,999,0,999,999,0,A,0.14
373,0.5,1.2,1,0.28333,0.34167,0.50833,373,1.71666,-0.828,-0.41667,0.08333,5,1D2U,1.0,False,0.042,40,True,left,-0.25,999,999,0,999,999,0,A,0.14
374,0.5,0.1,2,0.44167,0.35,0.56667,374,2.80834,0.9,0.45,0.95,5,2D1U,2.0,True,0.042,38,True,right,0.08333,999,999,0,999,999,0,A,0.165
375,0.5,0.1,1,0.41667,0.3,0.76667,375,2.03334,-0.9,-0.45,0.05,5,1D2U,2.0,True,0.042,41,True,right,-0.25,999,999,0,999,999,0,A,0.165
376,0.5,1.2,1,0.30833,0.25,0.65833,376,2.66666,0.9,0.45,0.95,5,2D1U,2.0,False,0.05,38,True,right,0.08333,999,999,0,999,999,0,A,0.14
377,0.5,1.2,1,0.35833,0.40833,0.45,377,1.76666,-0.9,-0.45,0.05,5,1D2U,1.0,False,0.042,41,True,left,-0.25,999,999,0,999,999,0,A,0.14
378,0.5,0.1,1,0.31667,0.225,0.66667,378,1.75834,-0.9,-0.45,0.05,5,1D2U,1.0,False,0.049,41,False,left,0.08333,999,999,0,999,999,0,A,0.165
379,0.5,0.1,2,0.21667,0.31667,0.69167,379,2.70834,0.972,0.48333,0.98333,5,2D1U,1.0,False,0.041,38,False,left,-0.25,999,999,0,999,999,0,A,0.165
380,0.5,1.2,2,0.35,0.34167,0.63333,380,2.775,0.9,0.45,0.95,5,2D1U,1.0,False,0.045,38,False,left,0.08333,999,999,0,999,999,0,A,0.14
381,0.5,1.2,1,0.28333,0.23333,0.64167,381,2.64166,0.972,0.48333,0.98333,5,2D1U,1.0,True,0.044,38,False,left,-0.25,999,999,0,999,999,0,A,0.14
382,0.5,0.1,2,0.40833,0.34167,0.775,382,2.075,-0.9,-0.45,0.05,5,1D2U,2.0,False,0.043,41,False,right,0.08333,999,999,0,999,999,0,A,0.165
383,0.5,0.1,2,0.38333,0.25833,0.525,383,2.64999,0.972,0.48333,0.98333,5,2D1U,2.0,True,0.043,38,False,right,-0.25,999,999,0,999,999,0,A,0.165
384,0.5,1.2,1,0.43333,0.24167,0.69167,384,1.91667,-0.9,-0.45,0.05,5,1D2U,1.0,False,0.044,41,False,left,0.08333,999,999,0,999,999,0,A,0.14
385,0.5,1.2,1,0.29167,0.33333,0.44167,385,2.51667,0.9,0.45,0.95,5,2D1U,1.0,True,0.044,39,True,left,-0.25,999,999,0,999,999,0,A,0.14
386,0.5,0.1,2,0.35833,0.34167,0.83333,386,2.98333,0.9,0.45,0.95,5,2D1U,2.0,True,0.047,39,True,right,0.08333,999,999,0,999,999,0,A,0.165
387,0.5,0.1,2,0.25,0.35,0.40833,387,1.55833,-0.9,-0.45,0.05,5,1D2U,1.0,True,0.044,41,False,left,-0.25,999,999,0,999,999,0,A,0.165
388,0.5,1.2,2,0.225,0.43333,0.65,388,1.85833,-0.9,-0.45,0.05,5,1D2U,2.0,False,0.042,41,False,right,0.08333,999,999,0,999,999,0,A,0.14
389,0.5,1.2,2,0.26667,0.25833,0.8,389,2.74167,0.828,0.41667,0.91667,5,2D1U,1.0,False,0.044,39,False,left,-0.25,999,999,0,999,999,0,A,0.14
390,0.5,0.1,1,0.35,0.38333,0.85,390,2.13333,-0.9,-0.45,0.05,5,1D2U,1.0,False,0.041,41,False,left,0.08333,999,999,0,999,999,0,A,0.165
391,0.5,0.1,1,0.275,0.25833,0.6,391,1.68333,-0.9,-0.45,0.05,5,1D2U,2.0,True,0.044,41,False,right,-0.25,999,999,0,999,999,0,A,0.165
392,0.5,1.2,1,0.25,0.28333,0.63333,392,1.71666,-0.9,-0.45,0.05,5,1D2U,2.0,True,0.044,41,False,right,0.08333,999,999,0,999,999,0,A,0.14
393,0.5,1.2,1,0.30833,0.38333,0.74167,393,2.01666,-0.828,-0.41667,0.08333,5,1D2U,1.0,False,0.051,42,True,left,-0.25,999,999,0,999,999,0,A,0.14
394,0.5,0.1,2,0.28333,0.4,0.53333,394,2.66666,0.9,0.45,0.95,5,2D1U,2.0,True,0.046,40,True,right,0.08333,999,999,0,999,999,0,A,0.165
395,0.5,0.1,1,0.275,0.44167,0.76667,395,2.03334,-0.9,-0.45,0.05,5,1D2U,1.0,False,0.045,43,True,left,-0.25,999,999,0,999,999,0,A,0.165
396,0.5,1.2,1,0.25833,0.35,0.425,396,2.48333,0.9,0.45,0.95,5,2D1U,1.0,True,0.045,40,True,left,0.08333,999,999,0,999,999,0,A,0.14
397,0.5,1.2,1,0.425,0.45,0.46667,397,2.75834,0.828,0.41667,0.91667,5,2D1U,2.0,False,0.046,41,True,right,-0.25,999,999,0,999,999,0,A,0.14
398,0.5,0.1,2,0.25833,0.36667,0.825,398,2.0,-0.9,-0.45,0.05,5,1D2U,2.0,False,0.045,43,False,right,0.08333,999,999,0,999,999,0,A,0.165
399,0.5,0.1,2,0.20833,0.28333,0.46667,399,2.40833,0.9,0.45,0.95,5,2D1U,2.0,True,0.046,42,True,right,-0.25,999,999,0,999,999,0,A,0.165
400,0.5,1.2,1,0.31667,0.28333,0.56667,400,1.71667,-0.9,-0.45,0.05,5,1D2U,2.0,True,0.045,43,False,right,0.08333,999,999,0,999,999,0,A,0.14
401,0.5,1.2,2,0.3,0.375,0.75,401,1.975,-0.9,-0.45,0.05,5,1D2U,2.0,False,0.045,43,False,right,-0.25,999,999,0,999,999,0,A,0.14
402,0.5,0.1,1,0.38333,0.29167,0.6,402,1.825,-0.9,-0.45,0.05,5,1D2U,1.0,False,0.045,43,False,left,0.08333,999,999,0,999,999,0,A,0.165
403,0.5,0.1,2,0.3,0.41667,0.65833,403,2.825,0.9,0.45,0.95,5,2D1U,1.0,False,0.043,42,True,left,-0.25,999,999,0,999,999,0,A,0.165
404,0.5,1.2,1,0.25833,0.44167,0.525,404,2.70833,0.972,0.48333,0.98333,5,2D1U,2.0,False,0.047,42,False,right,0.08333,999,999,0,999,999,0,A,0.14
405,0.5,1.2,2,0.25,0.2,0.45,405,2.35,0.9,0.45,0.95,5,2D1U,1.0,False,0.046,42,False,left,-0.25,999,999,0,999,999,0,A,0.14
406,0.5,0.1,1,0.43333,0.225,0.55833,406,1.76666,-0.9,-0.45,0.05,5,1D2U,1.0,False,0.046,43,False,left,0.08333,999,999,0,999,999,0,A,0.165
407,0.5,0.1,2,0.275,0.43333,0.43333,407,1.69166,-0.9,-0.45,0.05,5,1D2U,2.0,False,0.046,43,False,right,-0.25,999,999,0,999,999,0,A,0.165
408,0.5,1.2,1,0.39167,0.20833,0.53333,408,2.61666,0.972,0.48333,0.98333,5,2D1U,2.0,False,0.046,42,False,right,0.08333,999,999,0,999,999,0,A,0.14
409,0.5,1.2,2,0.31667,0.25,0.58333,409,2.6,0.9,0.45,0.95,5,2D1U,1.0,False,0.046,42,False,left,-0.25,999,999,0,999,999,0,A,0.14
410,0.5,0.1,2,0.44167,0.4,0.44167,410,1.83334,-0.9,-0.45,0.05,5,1D2U,1.0,True,0.046,43,False,left,0.08333,999,999,0,999,999,0,A,0.165
411,0.5,0.1,2,0.38333,0.36667,0.88333,411,2.18333,-0.9,-0.45,0.05,5,1D2U,1.0,True,0.047,43,False,left,-0.25,999,999,0,999,999,0,A,0.165
412,0.5,1.2,2,0.36667,0.425,0.58333,412,2.85833,0.972,0.48333,0.98333,5,2D1U,2.0,True,0.045,42,False,right,0.08333,999,999,0,999,999,0,A,0.14
413,0.5,1.2,1,0.41667,0.29167,0.475,413,2.66667,0.972,0.48333,0.98333,5,2D1U,1.0,True,0.046,42,False,left,-0.25,999,999,0,999,999,0,A,0.14
414,0.5,0.1,2,0.23333,0.26667,0.79167,414,1.875,-0.828,-0.41667,0.08333,5,1D2U,2.0,False,0.052,44,True,right,0.08333,999,999,0,999,999,0,A,0.165
415,0.5,0.1,1,0.44167,0.43333,0.58333,415,2.90833,0.9,0.45,0.95,5,2D1U,1.0,True,0.047,43,True,left,-0.25,999,999,0,999,999,0,A,0.165
416,0.5,1.2,2,0.28333,0.23333,0.85833,416,1.92499,-0.9,-0.45,0.05,5,1D2U,1.0,True,0.047,45,True,left,0.08333,999,999,0,999,999,0,A,0.14
417,0.5,1.2,1,0.35833,0.28333,0.66667,417,2.75833,0.9,0.45,0.95,5,2D1U,1.0,True,0.047,43,True,left,-0.25,999,999,0,999,999,0,A,0.14
418,0.5,0.1,2,0.21667,0.44167,0.70833,418,2.78334,0.828,0.41667,0.91667,5,2D1U,2.0,True,0.047,43,False,right,0.08333,999,999,0,999,999,0,A,0.165
419,0.5,0.1,1,0.40833,0.29167,0.4,419,2.51667,0.828,0.41667,0.91667,5,2D1U,2.0,False,0.048,43,False,right,-0.25,999,999,0,999,999,0,A,0.165
420,0.5,1.2,1,0.375,0.3,0.6,420,1.825,-0.9,-0.45,0.05,5,1D2U,1.0,False,0.047,45,True,left,0.08333,999,999,0,999,999,0,A,0.14
421,0.5,1.2,1,0.38333,0.375,0.59167,421,1.9,-0.9,-0.45,0.05,5,1D2U,1.0,False,0.047,45,False,left,-0.25,999,999,0,999,999,0,A,0.14
422,0.5,0.1,2,0.36667,0.29167,0.45,422,2.55834,0.9,0.45,0.95,5,2D1U,1.0,False,0.047,44,True,left,0.08333,999,999,0,999,999,0,A,0.165
423,0.5,0.1,2,0.29167,0.43333,0.48333,423,2.69166,0.972,0.48333,0.98333,5,2D1U,2.0,True,0.049,44,False,right,-0.25,999,999,0,999,999,0,A,0.165
424,0.5,1.2,1,0.275,0.35833,0.475,424,1.65833,-0.9,-0.45,0.05,5,1D2U,2.0,True,0.049,45,False,right,0.08333,999,999,0,999,999,0,A,0.14
425,0.5,1.2,2,0.45,0.30833,0.84167,425,3.08333,0.972,0.48333,0.98333,5,2D1U,2.0,True,0.051,44,False,right,-0.25,999,999,0,999,999,0,A,0.14
426,0.5,0.1,2,0.41667,0.25,0.8,426,2.01667,-0.9,-0.45,0.05,5,1D2U,2.0,False,0.048,45,False,right,0.08333,999,999,0,999,999,0,A,0.165
427,0.5,0.1,2,0.35,0.35,0.59167,427,2.74167,0.9,0.45,0.95,5,2D1U,1.0,False,0.048,45,True,left,-0.25,999,999,0,999,999,0,A,0.165
428,0.5,1.2,2,0.23333,0.4,0.53333,428,2.64999,0.972,0.48333,0.98333,5,2D1U,1.0,False,0.048,46,True,left,0.08333,999,999,0,999,999,0,A,0.14
429,0.5,1.2,1,0.43333,0.31667,0.73333,429,2.03333,-0.9,-0.45,0.05,5,1D2U,2.0,True,0.049,45,False,right,-0.25,999,999,0,999,999,0,A,0.14
430,0.5,0.1,1,0.29167,0.33333,0.44167,430,2.51667,0.9,0.45,0.95,5,2D1U,1.0,True,0.048,46,False,left,0.08333,999,999,0,999,999,0,A,0.165
431,0.5,0.1,1,0.31667,0.28333,0.775,431,1.925,-0.9,-0.45,0.05,5,1D2U,2.0,True,0.049,45,False,right,-0.25,999,999,0,999,999,0,A,0.165
432,0.5,1.2,1,0.35833,0.34167,0.54167,432,2.69167,0.9,0.45,0.95,5,2D1U,1.0,True,0.055,46,False,left,0.08333,999,999,0,999,999,0,A,0.14
433,0.5,1.2,2,0.225,0.36667,0.6,433,1.775,-0.828,-0.41667,0.08333,5,1D2U,1.0,True,0.05,46,True,left,-0.25,999,999,0,999,999,0,A,0.14
434,0.5,0.1,2,0.41667,0.3,0.61667,434,2.75001,0.828,0.41667,0.91667,5,2D1U,2.0,True,0.049,47,True,right,0.08333,999,999,0,999,999,0,A,0.165
435,0.5,0.1,2,0.34167,0.4,0.83333,435,2.15833,-0.828,-0.41667,0.08333,5,1D2U,1.0,True,0.049,46,True,left,-0.25,999,999,0,999,999,0,A,0.165
436,0.5,1.2,2,0.20833,0.24167,0.44167,436,2.30834,0.828,0.41667,0.91667,5,2D1U,1.0,False,0.055,47,True,left,0.08333,999,999,0,999,999,0,A,0.14
437,0.5,1.2,2,0.38333,0.28333,0.41667,437,1.70833,-0.756,-0.375,0.125,5,1D2U,1.0,True,0.049,46,False,left,-0.25,999,999,0,999,999,0,A,0.14
438,0.5,0.1,2,0.36667,0.21667,0.66667,438,2.70001,0.9,0.45,0.95,5,2D1U,1.0,False,0.057,48,True,left,0.08333,999,999,0,999,999,0,A,0.165
439,0.5,0.1,2,0.20833,0.425,0.46667,439,2.58333,0.972,0.48333,0.98333,5,2D1U,2.0,True,0.045,48,False,right,-0.25,999,999,0,999,999,0,A,0.165
440,0.5,1.2,1,0.24167,0.39167,0.41667,440,1.67501,-0.756,-0.375,0.125,5,1D2U,1.0,False,0.053,46,False,left,0.08333,999,999,0,999,999,0,A,0.14
441,0.5,1.2,2,0.31667,0.20833,0.425,441,2.43333,0.972,0.48333,0.98333,5,2D1U,1.0,False,0.048,48,False,left,-0.25,999,999,0,999,999,0,A,0.14
442,0.5,0.1,1,0.225,0.23333,0.83333,442,2.74166,0.9,0.45,0.95,5,2D1U,2.0,False,0.047,48,False,right,0.08333,999,999,0,999,999,0,A,0.165
443,0.5,0.1,2,0.43333,0.35833,0.81667,443,3.09166,0.972,0.48333,0.98333,5,2D1U,2.0,True,0.051,48,False,right,-0.25,999,999,0,999,999,0,A,0.165
444,0.5,1.2,2,0.35833,0.44167,0.825,444,2.20833,-0.828,-0.41667,0.08333,5,1D2U,2.0,False,0.051,47,True,right,0.08333,999,999,0,999,999,0,A,0.14
445,0.5,1.2,2,0.36667,0.4,0.85833,445,2.175,-0.9,-0.45,0.05,5,1D2U,2.0,False,0.05,47,False,right,-0.25,999,999,0,999,999,0,A,0.14
446,0.5,0.1,1,0.425,0.425,0.83333,446,2.23333,-0.9,-0.45,0.05,5,1D2U,1.0,False,0.05,47,False,left,0.08333,999,999,0,999,999,0,A,0.165
447,0.5,0.1,2,0.35833,0.275,0.75833,447,1.94166,-0.9,-0.45,0.05,5,1D2U,2.0,False,0.056,47,False,right,-0.25,999,999,0,999,999,0,A,0.165
448,0.5,1.2,2,0.275,0.24167,0.59167,448,2.59167,0.972,0.48333,0.98333,5,2D1U,2.0,True,0.052,48,False,right,0.08333,999,999,0,999,999,0,A,0.14
449,0.5,1.2,1,0.375,0.34167,0.475,449,1.74167,-0.9,-0.45,0.05,5,1D2U,2.0,True,0.051,47,False,right,-0.25,999,999,0,999,999,0,A,0.14
450,0.5,0.1,1,0.45,0.39167,0.88333,450,3.175,0.9,0.45,0.95,5,2D1U,2.0,False,0.057,49,True,right,0.08333,999,999,0,999,999,0,A,0.165
451,0.5,0.1,2,0.3,0.325,0.49167,451,1.66667,-0.9,-0.45,0.05,5,1D2U,1.0,True,0.05,47,False,left,-0.25,999,999,0,999,999,0,A,0.165
452,0.5,1.2,1,0.29167,0.20833,0.8,452,2.78333,0.972,0.48333,0.98333,5,2D1U,2.0,False,0.051,50,True,right,0.08333,999,999,0,999,999,0,A,0.14
453,0.5,1.2,2,0.25833,0.24167,0.83333,453,1.91666,-0.828,-0.41667,0.08333,5,1D2U,1.0,True,0.051,48,True,left,-0.25,999,999,0,999,999,0,A,0.14
454,0.5,0.1,2,0.3,0.23333,0.425,454,1.54166,-0.828,-0.41667,0.08333,5,1D2U,2.0,False,0.053,48,True,right,0.08333,999,999,0,999,999,0,A,0.165
455,0.5,0.1,2,0.275,0.25,0.58333,455,1.65833,-0.9,-0.45,0.05,5,1D2U,2.0,False,0.052,49,True,right,-0.25,999,999,0,999,999,0,A,0.165
456,0.5,1.2,1,0.44167,0.425,0.80833,456,2.225,-0.9,-0.45,0.05,5,1D2U,1.0,False,0.051,49,False,left,0.08333,999,999,0,999,999,0,A,0.14
457,0.5,1.2,2,0.25,0.44167,0.70833,457,2.85,0.9,0.45,0.95,5,2D1U,2.0,True,0.056,50,False,right,-0.25,999,999,0,999,999,0,A,0.14
458,0.5,0.1,1,0.3,0.21667,0.65,458,2.61667,0.9,0.45,0.95,5,2D1U,1.0,True,0.05,50,False,left,0.08333,999,999,0,999,999,0,A,0.165
459,0.5,0.1,2,0.26667,0.4,0.625,459,2.70834,0.828,0.41667,0.91667,5,2D1U,2.0,True,0.063,51,True,right,-0.25,999,999,0,999,999,0,A,0.165
460,0.5,1.2,1,0.38333,0.21667,0.775,460,1.925,-0.9,-0.45,0.05,5,1D2U,2.0,True,0.051,49,False,right,0.08333,999,999,0,999,999,0,A,0.14
461,0.5,1.2,2,0.25833,0.225,0.54167,461,1.575,-0.9,-0.45,0.05,5,1D2U,2.0,False,0.054,49,False,right,-0.25,999,999,0,999,999,0,A,0.14
462,0.5,0.1,1,0.24167,0.44167,0.79167,462,2.89168,0.828,0.41667,0.91667,5,2D1U,1.0,True,0.059,51,True,left,0.08333,999,999,0,999,999,0,A,0.165
463,0.5,0.1,2,0.225,0.45,0.6,463,1.825,-0.9,-0.45,0.05,5,1D2U,1.0,True,0.055,49,False,left,-0.25,999,999,0,999,999,0,A,0.165
464,0.5,1.2,2,0.45,0.375,0.625,464,2.825,0.756,0.375,0.875,5,2D1U,1.0,False,0.058,51,False,left,0.08333,999,999,0,999,999,0,A,0.14
465,0.5,1.2,1,0.43333,0.25,0.79167,465,2.89167,0.828,0.41667,0.91667,5,2D1U,1.0,True,0.059,52,True,left,-0.25,999,999,0,999,999,0,A,0.14
466,0.5,0.1,2,0.24167,0.2,0.625,466,1.61667,-0.9,-0.45,0.05,5,1D2U,1.0,True,0.059,49,False,left,0.08333,999,999,0,999,999,0,A,0.165
467,0.5,0.1,1,0.25833,0.21667,0.40833,467,1.46666,-0.828,-0.41667,0.08333,5,1D2U,2.0,True,0.056,50,True,right,-0.25,999,999,0,999,999,0,A,0.165
468,0.5,1.2,1,0.35833,0.23333,0.70833,468,1.88332,-0.828,-0.41667,0.08333,5,1D2U,2.0,True,0.051,50,True,right,0.08333,999,999,0,999,999,0,A,0.14
469,0.5,1.2,2,0.30833,0.34167,0.55,469,2.61667,0.828,0.41667,0.91667,5,2D1U,2.0,True,0.052,52,True,right,-0.25,999,999,0,999,999,0,A,0.14
470,0.5,0.1,2,0.36667,0.38333,0.45,470,2.575,0.756,0.375,0.875,5,2D1U,1.0,False,0.049,53,True,left,0.08333,999,999,0,999,999,0,A,0.165
471,0.5,0.1,2,0.24167,0.35833,0.79167,471,2.80834,0.828,0.41667,0.91667,5,2D1U,1.0,False,0.053,54,True,left,-0.25,999,999,0,999,999,0,A,0.165
472,0.5,1.2,1,0.41667,0.225,0.49167,472,1.75834,-0.756,-0.375,0.125,5,1D2U,2.0,True,0.049,50,False,right,0.08333,999,999,0,999,999,0,A,0.14
473,0.5,1.2,2,0.4,0.28333,0.88333,473,3.01666,0.9,0.45,0.95,5,2D1U,1.0,False,0.053,54,False,left,-0.25,999,999,0,999,999,0,A,0.14
474,0.5,0.1,2,0.20833,0.33333,0.55833,474,1.72499,-0.756,-0.375,0.125,5,1D2U,2.0,False,0.051,50,False,right,0.08333,999,999,0,999,999,0,A,0.165
475,0.5,0.1,1,0.41667,0.29167,0.5,475,2.69167,0.972,0.48333,0.98333,5,2D1U,2.0,False,0.048,54,False,right,-0.25,999,999,0,999,999,0,A,0.165
476,0.5,1.2,1,0.20833,0.36667,0.775,476,1.93333,-0.828,-0.41667,0.08333,5,1D2U,1.0,False,0.06,51,True,left,0.08333,999,999,0,999,999,0,A,0.14
477,0.5,1.2,1,0.325,0.33333,0.7,477,1.90833,-0.9,-0.45,0.05,5,1D2U,1.0,False,0.052,51,False,left,-0.25,999,999,0,999,999,0,A,0.14
478,0.5,0.1,2,0.36667,0.40833,0.46667,478,2.69167,0.9,0.45,0.95,5,2D1U,2.0,True,0.056,54,False,right,0.08333,999,999,0,999,999,0,A,0.165
479,0.5,0.1,2,0.43333,0.23333,0.84167,479,2.05833,-0.9,-0.45,0.05,5,1D2U,2.0,False,0.054,51,False,right,-0.25,999,999,0,999,999,0,A,0.165
480,0.5,1.2,1,0.30833,0.20833,0.45833,480,2.42499,0.9,0.45,0.95,5,2D1U,1.0,True,0.05,54,False,left,0.08333,999,999,0,999,999,0,A,0.14
481,0.5,1.2,1,0.40833,0.26667,0.61667,481,2.70834,0.828,0.41667,0.91667,5,2D1U,2.0,False,0.055,55,True,right,-0.25,999,999,0,999,999,0,A,0.14
482,0.5,0.1,2,0.275,0.425,0.575,482,2.725,0.9,0.45,0.95,5,2D1U,2.0,True,0.059,56,True,right,0.08333,999,999,0,999,999,0,A,0.165
483,0.5,0.1,1,0.43333,0.43333,0.475,483,2.79166,0.9,0.45,0.95,5,2D1U,2.0,False,0.057,56,True,right,-0.25,999,999,0,999,999,0,A,0.165
484,0.5,1.2,1,0.44167,0.425,0.80833,484,2.225,-0.9,-0.45,0.05,5,1D2U,2.0,True,0.051,51,False,right,0.08333,999,999,0,999,999,0,A,0.14
485,0.5,1.2,2,0.375,0.29167,0.56667,485,2.71667,0.972,0.48333,0.98333,5,2D1U,1.0,False,0.05,56,False,left,-0.25,999,999,0,999,999,0,A,0.14
486,0.5,0.1,2,0.375,0.425,0.75,486,2.1,-0.9,-0.45,0.05,5,1D2U,1.0,True,0.057,51,False,left,0.08333,999,999,0,999,999,0,A,0.165
487,0.5,0.1,2,0.34167,0.325,0.725,487,2.84167,0.9,0.45,0.95,5,2D1U,2.0,True,0.055,56,False,right,-0.25,999,999,0,999,999,0,A,0.165
488,0.5,1.2,1,0.25833,0.30833,0.64167,488,1.79166,-0.828,-0.41667,0.08333,5,1D2U,2.0,True,0.058,52,True,right,0.08333,999,999,0,999,999,0,A,0.14
489,0.5,1.2,1,0.41667,0.40833,0.75833,489,3.03333,0.9,0.45,0.95,5,2D1U,1.0,True,0.055,56,False,left,-0.25,999,999,0,999,999,0,A,0.14
490,0.5,0.1,1,0.35,0.24167,0.84167,490,2.85001,0.828,0.41667,0.91667,5,2D1U,2.0,False,0.051,57,True,right,0.08333,999,999,0,999,999,0,A,0.165
491,0.5,0.1,2,0.23333,0.31667,0.6,491,1.73333,-0.828,-0.41667,0.08333,5,1D2U,1.0,True,0.058,52,True,left,-0.25,999,999,0,999,999,0,A,0.165
492,0.5,1.2,2,0.36667,0.39167,0.58333,492,2.79167,0.9,0.45,0.95,5,2D1U,2.0,True,0.057,58,True,right,0.08333,999,999,0,999,999,0,A,0.14
493,0.5,1.2,2,0.375,0.34167,0.875,493,3.04167,0.9,0.45,0.95,5,2D1U,1.0,False,0.056,58,True,left,-0.25,999,999,0,999,999,0,A,0.14
494,0.5,0.1,2,0.23333,0.44167,0.51667,494,1.81667,-0.756,-0.375,0.125,5,1D2U,1.0,True,0.053,52,False,left,0.08333,999,999,0,999,999,0,A,0.165
495,0.5,0.1,1,0.275,0.4,0.88333,495,3.04166,0.972,0.48333,0.98333,5,2D1U,1.0,True,0.055,58,False,left,-0.25,999,999,0,999,999,0,A,0.165
496,0.5,1.2,2,0.20833,0.4,0.76667,496,2.85833,0.972,0.48333,0.98333,5,2D1U,2.0,True,0.06,58,False,right,0.08333,999,999,0,999,999,0,A,0.14
497,0.5,1.2,1,0.275,0.26667,0.43333,497,2.425,0.9,0.45,0.95,5,2D1U,1.0,True,0.062,59,True,left,-0.25,999,999,0,999,999,0,A,0.14
498,0.5,0.1,2,0.35,0.23333,0.73333,498,2.76666,0.9,0.45,0.95,5,2D1U,2.0,True,0.052,59,True,right,0.08333,999,999,0,999,999,0,A,0.165
499,0.5,0.1,2,0.26667,0.35,0.63333,499,1.875,-0.756,-0.375,0.125,5,1D2U,1.0,True,0.051,52,False,left,-0.25,999,999,0,999,999,0,A,0.165
500,0.5,1.2,2,0.26667,0.34167,0.49167,500,1.75834,-0.684,-0.34167,0.15833,5,1D2U,1.0,True,0.063,52,False,left,0.08333,999,999,0,999,999,0,A,0.14
501,0.5,1.2,2,0.375,0.44167,0.85833,501,3.09167,0.828,0.41667,0.91667,5,2D1U,1.0,False,0.052,59,False,left,-0.25,999,999,0,999,999,0,A,0.14
502,0.5,0.1,2,0.225,0.28333,0.70833,502,1.87499,-0.684,-0.34167,0.15833,5,1D2U,1.0,True,0.062,52,False,left,0.08333,999,999,0,999,999,0,A,0.165
503,0.5,0.1,1,0.25,0.33333,0.64167,503,1.91667,-0.612,-0.30833,0.19167,5,1D2U,2.0,True,0.052,52,False,right,-0.25,999,999,0,999,999,0,A,0.165
504,0.5,1.2,2,0.21667,0.29167,0.75833,504,2.71667,0.9,0.45,0.95,5,2D1U,1.0,False,0.052,60,True,left,0.08333,999,999,0,999,999,0,A,0.14
505,0.5,1.2,2,0.36667,0.36667,0.61667,505,2.83334,0.972,0.48333,0.98333,5,2D1U,1.0,False,0.064,60,False,left,-0.25,999,999,0,999,999,0,A,0.14
506,0.5,0.1,2,0.21667,0.34167,0.475,506,1.72501,-0.612,-0.30833,0.19167,5,1D2U,2.0,False,0.063,52,False,right,0.08333,999,999,0,999,999,0,A,0.165
507,0.5,0.1,2,0.38333,0.34167,0.88333,507,3.05833,0.9,0.45,0.95,5,2D1U,1.0,False,0.055,60,False,left,-0.25,999,999,0,999,999,0,A,0.165
508,0.5,1.2,2,0.275,0.43333,0.54167,508,1.90833,-0.684,-0.34167,0.15833,5,1D2U,1.0,True,0.052,53,True,left,0.08333,999,999,0,999,999,0,A,0.14
509,0.5,1.2,2,0.43333,0.26667,0.55,509,1.90833,-0.684,-0.34167,0.15833,5,1D2U,1.0,True,0.063,53,True,left,-0.25,999,999,0,999,999,0,A,0.14
510,0.5,0.1,1,0.44167,0.21667,0.525,510,2.66667,0.972,0.48333,0.98333,5,2D1U,2.0,False,0.054,60,False,right,0.08333,999,999,0,999,999,0,A,0.165
511,0.5,0.1,2,0.38333,0.31667,0.4,511,2.55,0.9,0.45,0.95,5,2D1U,2.0,True,0.052,60,False,right,-0.25,999,999,0,999,999,0,A,0.165
512,0.5,1.2,2,0.225,0.40833,0.85,512,2.93333,0.9,0.45,0.95,5,2D1U,2.0,True,0.053,60,False,right,0.08333,999,999,0,999,999,0,A,0.14
513,0.5,1.2,1,0.20833,0.375,0.525,513,1.8,-0.612,-0.30833,0.19167,5,1D2U,1.0,False,0.053,54,True,left,-0.25,999,999,0,999,999,0,A,0.14
514,0.5,0.1,1,0.23333,0.35,0.60833,514,2.60833,0.828,0.41667,0.91667,5,2D1U,2.0,False,0.054,61,True,right,0.08333,999,999,0,999,999,0,A,0.165
515,0.5,0.1,1,0.38333,0.45,0.5,515,1.99166,-0.684,-0.34167,0.15833,5,1D2U,1.0,False,0.066,55,True,left,-0.25,999,999,0,999,999,0,A,0.165
516,0.5,1.2,1,0.375,0.23333,0.65,516,1.88333,-0.756,-0.375,0.125,5,1D2U,1.0,False,0.057,55,False,left,0.08333,999,999,0,999,999,0,A,0.14
517,0.5,1.2,1,0.325,0.4,0.475,517,2.65,0.9,0.45,0.95,5,2D1U,1.0,True,0.064,62,True,left,-0.25,999,999,0,999,999,0,A,0.14
518,0.5,0.1,2,0.29167,0.41667,0.54167,518,2.70001,0.9,0.45,0.95,5,2D1U,2.0,True,0.054,62,True,right,0.08333,999,999,0,999,999,0,A,0.165
519,0.5,0.1,2,0.425,0.23333,0.65,519,2.725,0.828,0.41667,0.91667,5,2D1U,1.0,False,0.053,63,True,left,-0.25,999,999,0,999,999,0,A,0.165
520,0.5,1.2,1,0.25,0.34167,0.775,520,1.95,-0.828,-0.41667,0.08333,5,1D2U,2.0,True,0.056,55,False,right,0.08333,999,999,0,999,999,0,A,0.14
521,0.5,1.2,1,0.325,0.21667,0.86667,521,2.85834,0.9,0.45,0.95,5,2D1U,1.0,True,0.06,64,True,left,-0.25,999,999,0,999,999,0,A,0.14
522,0.5,0.1,1,0.35833,0.40833,0.65,522,1.99999,-0.828,-0.41667,0.08333,5,1D2U,1.0,False,0.054,55,False,left,0.08333,999,999,0,999,999,0,A,0.165
523,0.5,0.1,2,0.43333,0.35833,0.41667,523,1.75833,-0.9,-0.45,0.05,5,1D2U,1.0,True,0.056,55,False,left,-0.25,999,999,0,999,999,0,A,0.165
524,0.5,1.2,2,0.21667,0.41667,0.61667,524,2.70001,0.9,0.45,0.95,5,2D1U,1.0,False,0.058,64,True,left,0.08333,999,999,0,999,999,0,A,0.14
525,0.5,1.2,1,0.25833,0.2,0.64167,525,1.65,-0.9,-0.45,0.05,5,1D2U,2.0,True,0.059,55,False,right,-0.25,999,999,0,999,999,0,A,0.14
526,0.5,0.1,1,0.40833,0.24167,0.5,526,1.73333,-0.828,-0.41667,0.08333,5,1D2U,1.0,False,0.054,56,True,left,0.08333,999,999,0,999,999,0,A,0.165
527,0.5,0.1,1,0.4,0.45,0.68333,527,2.08333,-0.9,-0.45,0.05,5,1D2U,1.0,False,0.057,57,True,left,-0.25,999,999,0,999,999,0,A,0.165
528,0.5,1.2,2,0.2,0.30833,0.53333,528,2.52499,0.972,0.48333,0.98333,5,2D1U,1.0,False,0.054,64,False,left,0.08333,999,999,0,999,999,0,A,0.14
529,0.5,1.2,1,0.20833,0.26667,0.73333,529,2.65833,0.9,0.45,0.95,5,2D1U,2.0,False,0.056,64,False,right,-0.25,999,999,0,999,999,0,A,0.14
530,0.5,0.1,1,0.375,0.275,0.65,530,1.85,-0.9,-0.45,0.05,5,1D2U,1.0,False,0.055,57,False,left,0.08333,999,999,0,999,999,0,A,0.165
531,0.5,0.1,2,0.375,0.43333,0.58333,531,2.87499,0.972,0.48333,0.98333,5,2D1U,2.0,True,0.056,64,False,right,-0.25,999,999,0,999,999,0,A,0.165
532,0.5,1.2,1,0.31667,0.325,0.58333,532,2.70833,0.972,0.48333,0.98333,5,2D1U,1.0,True,0.053,64,False,left,0.08333,999,999,0,999,999,0,A,0.14
533,0.5,1.2,1,0.275,0.39167,0.81667,533,2.93334,0.9,0.45,0.95,5,2D1U,1.0,True,0.058,65,True,left,-0.25,999,999,0,999,999,0,A,0.14
534,0.5,0.1,2,0.24167,0.41667,0.575,534,1.78334,-0.9,-0.45,0.05,5,1D2U,2.0,False,0.066,57,False,right,0.08333,999,999,0,999,999,0,A,0.165
535,0.5,0.1,1,0.40833,0.39167,0.71667,535,2.06667,-0.9,-0.45,0.05,5,1D2U,1.0,False,0.056,57,False,left,-0.25,999,999,0,999,999,0,A,0.165
536,0.5,1.2,2,0.375,0.31667,0.53333,536,1.775,-0.9,-0.45,0.05,5,1D2U,1.0,True,0.066,57,False,left,0.08333,999,999,0,999,999,0,A,0.14
537,0.5,1.2,2,0.3,0.39167,0.6,537,1.84167,-0.9,-0.45,0.05,5,1D2U,1.0,True,0.055,57,False,left,-0.25,999,999,0,999,999,0,A,0.14
538,0.5,0.1,2,0.26667,0.25833,0.55833,538,2.53333,0.9,0.45,0.95,5,2D1U,1.0,False,0.055,65,True,left,0.08333,999,999,0,999,999,0,A,0.165
539,0.5,0.1,1,0.26667,0.29167,0.68333,539,2.725,0.972,0.48333,0.98333,5,2D1U,1.0,True,0.055,66,True,left,-0.25,999,999,0,999,999,0,A,0.165
540,0.5,1.2,2,0.425,0.39167,0.40833,540,1.80833,-0.828,-0.41667,0.08333,5,1D2U,1.0,True,0.06,58,True,left,0.08333,999,999,0,999,999,0,A,0.14
541,0.5,1.2,2,0.43333,0.24167,0.88333,541,2.14166,-0.828,-0.41667,0.08333,5,1D2U,2.0,False,0.056,58,True,right,-0.25,999,999,0,999,999,0,A,0.14
542,0.5,0.1,2,0.20833,0.26667,0.79167,542,1.81667,-0.9,-0.45,0.05,5,1D2U,1.0,True,0.057,59,True,left,0.08333,999,999,0,999,999,0,A,0.165
543,0.5,0.1,1,0.33333,0.20833,0.76667,543,2.79166,0.972,0.48333,0.98333,5,2D1U,1.0,True,0.067,66,True,left,-0.25,999,999,0,999,999,0,A,0.165
544,0.5,1.2,2,0.35,0.31667,0.73333,544,2.85,0.9,0.45,0.95,5,2D1U,2.0,True,0.055,67,True,right,0.08333,999,999,0,999,999,0,A,0.14
545,0.5,1.2,1,0.21667,0.21667,0.625,545,2.50834,0.9,0.45,0.95,5,2D1U,2.0,False,0.06,67,True,right,-0.25,999,999,0,999,999,0,A,0.14
546,0.5,0.1,1,0.24167,0.38333,0.83333,546,2.00833,-0.9,-0.45,0.05,5,1D2U,1.0,False,0.068,59,True,left,0.08333,999,999,0,999,999,0,A,0.165
547,0.5,0.1,2,0.39167,0.26667,0.80833,547,2.01667,-0.9,-0.45,0.05,5,1D2U,1.0,True,0.06,59,False,left,-0.25,999,999,0,999,999,0,A,0.165
548,0.5,1.2,2,0.26667,0.20833,0.4,548,1.425,-0.9,-0.45,0.05,5,1D2U,1.0,True,0.068,59,False,left,0.08333,999,999,0,999,999,0,A,0.14
549,0.5,1.2,1,0.225,0.3,0.84167,549,2.85,0.972,0.48333,0.98333,5,2D1U,1.0,True,0.067,68,True,left,-0.25,999,999,0,999,999,0,A,0.14
550,0.5,0.1,2,0.425,0.34167,0.475,550,2.725,0.972,0.48333,0.98333,5,2D1U,2.0,True,0.057,68,True,right,0.08333,999,999,0,999,999,0,A,0.165
551,0.5,0.1,1,0.36667,0.43333,0.475,551,2.725,0.9,0.45,0.95,5,2D1U,1.0,True,0.058,69,True,left,-0.25,999,999,0,999,999,0,A,0.165
552,0.5,1.2,1,0.44167,0.4,0.75833,552,3.05,0.9,0.45,0.95,5,2D1U,1.0,True,0.057,69,True,left,0.08333,999,999,0,999,999,0,A,0.14
553,0.5,1.2,2,0.325,0.30833,0.46667,553,1.68333,-0.828,-0.41667,0.08333,5,1D2U,2.0,False,0.061,60,True,right,-0.25,999,999,0,999,999,0,A,0.14
554,0.5,0.1,2,0.325,0.31667,0.63333,554,1.825,-0.9,-0.45,0.05,5,1D2U,2.0,False,0.057,61,True,right,0.08333,999,999,0,999,999,0,A,0.165
555,0.5,0.1,1,0.3,0.24167,0.9,555,2.85834,0.828,0.41667,0.91667,5,2D1U,1.0,True,0.057,69,False,left,-0.25,999,999,0,999,999,0,A,0.165
556,0.5,1.2,2,0.26667,0.34167,0.775,556,1.93334,-0.9,-0.45,0.05,5,1D2U,2.0,False,0.061,61,False,right,0.08333,999,999,0,999,999,0,A,0.14
557,0.5,1.2,2,0.3,0.25,0.5,557,2.46667,0.828,0.41667,0.91667,5,2D1U,2.0,True,0.057,69,False,right,-0.25,999,999,0,999,999,0,A,0.14
558,0.5,0.1,1,0.43333,0.38333,0.59167,558,2.78333,0.756,0.375,0.875,5,2D1U,2.0,False,0.062,69,False,right,0.08333,999,999,0,999,999,0,A,0.165
559,0.5,0.1,1,0.3,0.375,0.74167,559,1.96667,-0.9,-0.45,0.05,5,1D2U,1.0,False,0.057,61,False,left,-0.25,999,999,0,999,999,0,A,0.165
560,0.5,1.2,2,0.36667,0.21667,0.89167,560,2.89168,0.828,0.41667,0.91667,5,2D1U,1.0,False,0.058,70,True,left,0.08333,999,999,0,999,999,0,A,0.14
561,0.5,1.2,2,0.31667,0.41667,0.56667,561,1.85001,-0.9,-0.45,0.05,5,1D2U,2.0,False,0.058,61,False,right,-0.25,999,999,0,999,999,0,A,0.14
562,0.5,0.1,2,0.28333,0.275,0.63333,562,2.64166,0.9,0.45,0.95,5,2D1U,1.0,False,0.057,70,False,left,0.08333,999,999,0,999,999,0,A,0.165
563,0.5,0.1,1,0.39167,0.20833,0.51667,563,2.6,0.972,0.48333,0.98333,5,2D1U,2.0,False,0.058,70,False,right,-0.25,999,999,0,999,999,0,A,0.165
564,0.5,1.2,2,0.4,0.28333,0.71667,564,1.95,-0.9,-0.45,0.05,5,1D2U,1.0,True,0.064,61,False,left,0.08333,999,999,0,999,999,0,A,0.14
565,0.5,1.2,1,0.3,0.4,0.68333,565,2.83333,0.9,0.45,0.95,5,2D1U,2.0,False,0.058,70,False,right,-0.25,999,999,0,999,999,0,A,0.14
566,0.5,0.1,2,0.2,0.40833,0.85833,566,2.94999,0.972,0.48333,0.98333,5,2D1U,1.0,False,0.059,70,False,left,0.08333,999,999,0,999,999,0,A,0.165
567,0.5,0.1,1,0.25,0.24167,0.89167,567,2.83334,0.9,0.45,0.95,5,2D1U,2.0,False,0.064,70,False,right,-0.25,999,999,0,999,999,0,A,0.165
568,0.5,1.2,1,0.29167,0.225,0.45,568,1.51667,-0.9,-0.45,0.05,5,1D2U,2.0,True,0.063,61,False,right,0.08333,999,999,0,999,999,0,A,0.14
569,0.5,1.2,1,0.275,0.20833,0.6,569,2.56666,0.972,0.48333,0.98333,5,2D1U,1.0,True,0.062,70,False,left,-0.25,999,999,0,999,999,0,A,0.14
570,0.5,0.1,1,0.44167,0.39167,0.74167,570,3.05834,0.972,0.48333,0.98333,5,2D1U,1.0,True,0.059,70,False,left,0.08333,999,999,0,999,999,0,A,0.165
571,0.5,0.1,2,0.35,0.225,0.80833,571,1.96666,-0.828,-0.41667,0.08333,5,1D2U,2.0,False,0.059,62,True,right,-0.25,999,999,0,999,999,0,A,0.165
572,0.5,1.2,1,0.34167,0.35833,0.525,572,2.675,0.9,0.45,0.95,5,2D1U,1.0,True,0.062,71,True,left,0.08333,999,999,0,999,999,0,A,0.14
573,0.5,1.2,2,0.24167,0.225,0.48333,573,1.5,-0.9,-0.45,0.05,5,1D2U,2.0,False,0.063,63,True,right,-0.25,999,999,0,999,999,0,A,0.14
574,0.5,0.1,2,0.24167,0.44167,0.50833,574,1.74167,-0.9,-0.45,0.05,5,1D2U,1.0,True,0.058,63,False,left,0.08333,999,999,0,999,999,0,A,0.165
575,0.5,0.1,1,0.325,0.38333,0.40833,575,2.56666,0.9,0.45,0.95,5,2D1U,2.0,False,0.058,71,True,right,-0.25,999,999,0,999,999,0,A,0.165
576,0.5,1.2,2,0.38333,0.325,0.44167,576,2.63333,0.972,0.48333,0.98333,5,2D1U,1.0,False,0.06,72,True,left,0.08333,999,999,0,999,999,0,A,0.14
577,0.5,1.2,2,0.23333,0.26667,0.5,577,1.55,-0.9,-0.45,0.05,5,1D2U,1.0,True,0.059,63,False,left,-0.25,999,999,0,999,999,0,A,0.14
578,0.5,0.1,1,0.39167,0.25833,0.55,578,1.78333,-0.828,-0.41667,0.08333,5,1D2U,1.0,False,0.064,64,True,left,0.08333,999,999,0,999,999,0,A,0.165
579,0.5,0.1,2,0.34167,0.275,0.9,579,2.96667,0.9,0.45,0.95,5,2D1U,2.0,True,0.061,72,False,right,-0.25,999,999,0,999,999,0,A,0.165
580,0.5,1.2,1,0.31667,0.24167,0.45,580,1.55834,-0.9,-0.45,0.05,5,1D2U,2.0,True,0.058,65,True,right,0.08333,999,999,0,999,999,0,A,0.14
581,0.5,1.2,2,0.3,0.43333,0.50833,581,1.79166,-0.9,-0.45,0.05,5,1D2U,1.0,True,0.06,65,True,left,-0.25,999,999,0,999,999,0,A,0.14
582,0.5,0.1,1,0.2,0.34167,0.66667,582,2.65834,0.9,0.45,0.95,5,2D1U,1.0,True,0.059,72,False,left,0.08333,999,999,0,999,999,0,A,0.165
583,0.5,0.1,1,0.325,0.43333,0.74167,583,2.91667,0.828,0.41667,0.91667,5,2D1U,2.0,False,0.066,73,True,right,-0.25,999,999,0,999,999,0,A,0.165
584,0.5,1.2,1,0.225,0.28333,0.86667,584,1.95833,-0.828,-0.41667,0.08333,5,1D2U,1.0,False,0.066,66,True,left,0.08333,999,999,0,999,999,0,A,0.14
585,0.5,1.2,2,0.36667,0.34167,0.54167,585,2.70001,0.9,0.45,0.95,5,2D1U,1.0,False,0.062,74,True,left,-0.25,999,999,0,999,999,0,A,0.14
586,0.5,0.1,1,0.29167,0.23333,0.50833,586,2.51666,0.972,0.48333,0.98333,5,2D1U,2.0,False,0.065,74,False,right,0.08333,999,999,0,999,999,0,A,0.165
587,0.5,0.1,2,0.31667,0.34167,0.6,587,2.70834,0.9,0.45,0.95,5,2D1U,2.0,True,0.066,74,False,right,-0.25,999,999,0,999,999,0,A,0.165
588,0.5,1.2,2,0.35,0.3,0.61667,588,1.81667,-0.9,-0.45,0.05,5,1D2U,2.0,False,0.066,67,True,right,0.08333,999,999,0,999,999,0,A,0.14
589,0.5,1.2,1,0.39167,0.23333,0.51667,589,2.59167,0.9,0.45,0.95,5,2D1U,1.0,True,0.06,74,False,left,-0.25,999,999,0,999,999,0,A,0.14
590,0.5,0.1,1,0.35833,0.20833,0.41667,590,1.53333,-0.9,-0.45,0.05,5,1D2U,2.0,True,0.059,67,False,right,0.08333,999,999,0,999,999,0,A,0.165
591,0.5,0.1,1,0.31667,0.38333,0.68333,591,2.8,0.828,0.41667,0.91667,5,2D1U,1.0,True,0.065,75,True,left,-0.25,999,999,0,999,999,0,A,0.165
592,0.5,1.2,2,0.375,0.39167,0.48333,592,1.8,-0.9,-0.45,0.05,5,1D2U,2.0,False,0.065,67,False,right,0.08333,999,999,0,999,999,0,A,0.14
593,0.5,1.2,1,0.24167,0.3,0.46667,593,1.55834,-0.9,-0.45,0.05,5,1D2U,2.0,True,0.062,67,False,right,-0.25,999,999,0,999,999,0,A,0.14
594,0.5,0.1,2,0.33333,0.375,0.40833,594,1.66666,-0.9,-0.45,0.05,5,1D2U,1.0,True,0.067,67,False,left,0.08333,999,999,0,999,999,0,A,0.165
595,0.5,0.1,2,0.40833,0.275,0.75833,595,2.85833,0.828,0.41667,0.91667,5,2D1U,1.0,False,0.06,75,True,left,-0.25,999,999,0,999,999,0,A,0.165
596,0.5,1.2,1,0.43333,0.26667,0.49167,596,1.775,-0.828,-0.41667,0.08333,5,1D2U,1.0,False,0.061,68,True,left,0.08333,999,999,0,999,999,0,A,0.14
597,0.5,1.2,1,0.375,0.36667,0.60833,597,1.9,-0.9,-0.45,0.05,5,1D2U,2.0,True,0.06,69,True,right,-0.25,999,999,0,999,999,0,A,0.14
598,0.5,0.1,1,0.38333,0.39167,0.45833,598,2.68333,0.9,0.45,0.95,5,2D1U,1.0,True,0.066,76,True,left,0.08333,999,999,0,999,999,0,A,0.165
599,0.5,0.1,2,0.20833,0.45,0.55833,599,1.76666,-0.9,-0.45,0.05,5,1D2U,1.0,True,0.063,69,True,left,-0.25,999,999,0,999,999,0,A,0.165
600,0.5,1.2,2,0.425,0.29167,0.45833,600,2.625,0.9,0.45,0.95,5,2D1U,2.0,True,0.067,76,True,right,0.08333,999,999,0,999,999,0,A,0.14
601,0.5,1.2,2,0.35,0.38333,0.70833,601,2.85833,0.828,0.41667,0.91667,5,2D1U,2.0,True,0.061,77,True,right,-0.25,999,999,0,999,999,0,A,0.14
602,0.5,0.1,2,0.23333,0.26667,0.64167,602,2.55834,0.828,0.41667,0.91667,5,2D1U,2.0,True,0.066,77,True,right,0.08333,999,999,0,999,999,0,A,0.165
603,0.5,0.1,1,0.23333,0.225,0.86667,603,1.90833,-0.828,-0.41667,0.08333,5,1D2U,2.0,True,0.061,70,True,right,-0.25,999,999,0,999,999,0,A,0.165
604,0.5,1.2,2,0.3,0.225,0.54167,604,2.44167,0.756,0.375,0.875,5,2D1U,1.0,False,0.062,77,False,left,0.08333,999,999,0,999,999,0,A,0.14
605,0.5,1.2,1,0.41667,0.23333,0.86667,605,2.93334,0.828,0.41667,0.91667,5,2D1U,2.0,False,0.06,78,True,right,-0.25,999,999,0,999,999,0,A,0.14
606,0.5,0.1,1,0.30833,0.20833,0.71667,606,1.81666,-0.828,-0.41667,0.08333,5,1D2U,2.0,True,0.063,70,True,right,0.08333,999,999,0,999,999,0,A,0.165
607,0.5,0.1,2,0.28333,0.225,0.7,607,1.83333,-0.756,-0.375,0.125,5,1D2U,2.0,False,0.061,70,False,right,-0.25,999,999,0,999,999,0,A,0.165
608,0.5,1.2,1,0.325,0.25,0.81667,608,1.975,-0.828,-0.41667,0.08333,5,1D2U,1.0,False,0.065,71,True,left,0.08333,999,999,0,999,999,0,A,0.14
609,0.5,1.2,2,0.44167,0.4,0.6,609,2.89167,0.9,0.45,0.95,5,2D1U,1.0,False,0.063,78,False,left,-0.25,999,999,0,999,999,0,A,0.14
610,0.5,0.1,2,0.39167,0.44167,0.875,610,2.25834,-0.9,-0.45,0.05,5,1D2U,1.0,True,0.062,71,False,left,0.08333,999,999,0,999,999,0,A,0.165
611,0.5,0.1,1,0.425,0.20833,0.50833,611,1.69166,-0.9,-0.45,0.05,5,1D2U,2.0,True,0.065,71,False,right,-0.25,999,999,0,999,999,0,A,0.165
612,0.5,1.2,2,0.44167,0.20833,0.53333,612,1.76666,-0.828,-0.41667,0.08333,5,1D2U,2.0,False,0.063,72,True,right,0.08333,999,999,0,999,999,0,A,0.14
613,0.5,1.2,1,0.31667,0.275,0.74167,613,1.88334,-0.9,-0.45,0.05,5,1D2U,2.0,True,0.062,73,True,right,-0.25,999,999,0,999,999,0,A,0.14
614,0.5,0.1,2,0.20833,0.40833,0.55833,614,1.72499,-0.9,-0.45,0.05,5,1D2U,1.0,True,0.062,73,True,left,0.08333,999,999,0,999,999,0,A,0.165
615,0.5,0.1,2,0.40833,0.40833,0.61667,615,2.01666,-0.828,-0.41667,0.08333,5,1D2U,2.0,False,0.069,74,True,right,-0.25,999,999,0,999,999,0,A,0.165
