,standardDur,audNoise,order,preDur,postDur,isiDur,trial_num,totalDur,delta_dur_percents,deltaDurS,testDurS,intensities,current_stair,responses,is_correct,response_rts,stair_num_reversal,stair_is_reversal,response_keys,conflictDur,recordedOnsetVisualTest,recordedOffsetVisualTest,recordedDurVisualTest,recordedOnsetVisualStandard,recordedOffsetVisualStandard,recordedDurVisualStandard,modalityCue
0,0.49826,1.2,2,0.44843,0.3903,0.71417,0,2.22555,-0.65,-0.32387,0.17439,5,2U1D,1.0,True,0.015,0,False,left,0.16609,999,999,0,999,999,0,A
1,0.49826,1.2,1,0.22422,0.34878,0.46504,1,2.35843,0.65,0.32387,0.82213,5,2D1U,1.0,True,0.016,0,False,left,-0.08304,999,999,0,999,999,0,A
2,0.49826,0.1,2,0.43183,0.28235,0.81382,2,2.84839,0.65,0.32387,0.82213,5,2D1U,2.0,True,0.016,0,False,right,0.16609,999,999,0,999,999,0,A
3,0.49826,0.1,1,0.28235,0.31556,0.55639,3,1.82695,-0.65,-0.32387,0.17439,5,2U1D,1.0,False,0.016,0,False,left,-0.08304,999,999,0,999,999,0,A
4,0.49826,0.1,2,0.29065,0.37369,0.47335,4,1.85186,-0.5700000000000001,-0.28235,0.21591,5,lapse_rate,1.0,True,0.016,0,False,left,0.16609,999,999,0,999,999,0,A
5,0.49826,1.2,1,0.28235,0.34878,0.66435,5,2.56604,0.55,0.27404,0.7723,5,2D1U,1.0,True,0.015,0,False,left,-0.08304,999,999,0,999,999,0,A
6,0.49826,1.2,2,0.41522,0.24083,0.66435,6,2.03457,-0.57,-0.28235,0.21591,5,2U1D,1.0,True,0.016,0,False,left,0.16609,999,999,0,999,999,0,A
7,0.49826,1.2,2,0.41522,0.24913,0.88026,7,2.25878,-0.5700000000000001,-0.28235,0.21591,5,lapse_rate,2.0,False,0.016,0,False,right,-0.08304,999,999,0,999,999,0,A
8,0.49826,0.1,1,0.43183,0.382,0.85535,8,2.38335,-0.57,-0.28235,0.21591,5,2U1D,2.0,True,0.015,0,False,right,0.16609,999,999,0,999,999,0,A
9,0.49826,1.2,2,0.41522,0.40691,0.44013,9,1.97643,-0.5700000000000001,-0.28235,0.21591,5,lapse_rate,2.0,False,0.016,0,False,right,-0.08304,999,999,0,999,999,0,A
10,0.49826,0.1,2,0.28235,0.34048,0.5813,10,2.47469,0.55,0.27404,0.7723,5,2D1U,1.0,False,0.016,0,False,left,0.16609,999,999,0,999,999,0,A
11,0.49826,0.1,2,0.28235,0.44013,0.69756,11,2.86499,0.9,0.44843,0.94669,5,lapse_rate,1.0,False,0.016,0,False,left,-0.08304,999,999,0,999,999,0,A
12,0.49826,1.2,2,0.44013,0.33217,0.573,12,2.09269,-0.51,-0.25743,0.24913,5,2U1D,2.0,False,0.016,1,True,right,0.16609,999,999,0,999,999,0,A
13,0.49826,1.2,1,0.29065,0.32387,0.48165,13,2.39995,0.61,0.30726,0.80552,5,2D1U,1.0,True,0.016,1,True,left,-0.08304,999,999,0,999,999,0,A
14,0.49826,1.2,2,0.36539,0.20761,0.53978,14,2.55773,0.9,0.44843,0.94669,5,lapse_rate,2.0,True,0.015,0,False,right,0.16609,999,999,0,999,999,0,A
15,0.49826,0.1,1,0.35709,0.37369,0.68926,15,2.14252,-0.546,-0.27404,0.22422,5,2U1D,2.0,True,0.016,2,True,right,-0.08304,999,999,0,999,999,0,A
16,0.49826,0.1,1,0.42352,0.29065,0.63113,16,2.64908,0.61,0.30726,0.80552,5,2D1U,1.0,True,0.016,1,True,left,0.16609,999,999,0,999,999,0,A
17,0.49826,1.2,2,0.21591,0.33217,0.68926,17,2.52451,0.574,0.29065,0.78891,5,2D1U,1.0,False,0.016,2,True,left,-0.08304,999,999,0,999,999,0,A
18,0.49826,1.2,2,0.39861,0.29065,0.44013,18,2.57434,0.9,0.44843,0.94669,5,lapse_rate,2.0,True,0.017,0,False,right,0.16609,999,999,0,999,999,0,A
19,0.49826,1.2,2,0.34048,0.21591,0.58961,19,1.86848,-0.546,-0.27404,0.22422,5,2U1D,1.0,True,0.016,2,True,left,-0.08304,999,999,0,999,999,0,A
20,0.49826,0.1,2,0.28235,0.34878,0.49826,20,1.87678,-0.51,-0.25743,0.24913,5,2U1D,2.0,False,0.016,3,True,right,0.16609,999,999,0,999,999,0,A
21,0.49826,0.1,1,0.22422,0.42352,0.61452,21,1.97643,-0.5700000000000001,-0.28235,0.21591,5,lapse_rate,2.0,True,0.017,0,False,right,-0.08304,999,999,0,999,999,0,A
22,0.49826,0.1,1,0.35709,0.34048,0.67265,22,2.674,0.61,0.30726,0.80552,5,2D1U,2.0,False,0.017,3,True,right,0.16609,999,999,0,999,999,0,A
23,0.49826,1.2,1,0.382,0.43183,0.5813,23,2.71552,0.646,0.32387,0.82213,5,2D1U,1.0,True,0.016,3,False,left,-0.08304,999,999,0,999,999,0,A
24,0.49826,1.2,2,0.24083,0.35709,0.63943,24,1.95983,-0.546,-0.27404,0.22422,5,2U1D,1.0,True,0.016,4,True,left,0.16609,999,999,0,999,999,0,A
25,0.49826,1.2,1,0.22422,0.28235,0.49826,25,1.719,-0.5700000000000001,-0.28235,0.21591,5,lapse_rate,2.0,True,0.016,0,False,right,-0.08304,999,999,0,999,999,0,A
26,0.49826,0.1,2,0.26574,0.34048,0.58961,26,2.51622,0.646,0.32387,0.82213,5,2D1U,1.0,False,0.015,3,False,left,0.16609,999,999,0,999,999,0,A
27,0.49826,0.1,1,0.29065,0.24083,0.83874,27,2.08439,-0.5700000000000001,-0.28235,0.21591,5,lapse_rate,2.0,True,0.016,0,False,right,-0.08304,999,999,0,999,999,0,A
28,0.49826,0.1,2,0.36539,0.28235,0.5813,28,1.95152,-0.546,-0.27404,0.22422,5,2U1D,1.0,True,0.016,4,True,left,0.16609,999,999,0,999,999,0,A
29,0.49826,0.1,1,0.21591,0.33217,0.49826,29,1.76051,-0.5700000000000001,-0.28235,0.21591,5,lapse_rate,1.0,False,0.016,0,False,left,-0.08304,999,999,0,999,999,0,A
30,0.49826,1.2,1,0.34048,0.382,0.43183,30,2.49131,0.682,0.34048,0.83874,5,2D1U,1.0,True,0.016,3,False,left,0.16609,999,999,0,999,999,0,A
31,0.49826,1.2,2,0.42352,0.34048,0.65604,31,2.16743,-0.51,-0.25743,0.24913,5,2U1D,2.0,False,0.016,5,True,right,-0.08304,999,999,0,999,999,0,A
32,0.49826,0.1,1,0.34048,0.41522,0.80552,32,2.2837,-0.546,-0.27404,0.22422,5,2U1D,1.0,False,0.016,6,True,left,0.16609,999,999,0,999,999,0,A
33,0.49826,0.1,2,0.36539,0.33217,0.78061,33,2.81517,0.682,0.34048,0.83874,5,2D1U,2.0,True,0.016,3,False,right,-0.08304,999,999,0,999,999,0,A
34,0.49826,0.1,2,0.34878,0.21591,0.58961,34,2.59925,0.9,0.44843,0.94669,5,lapse_rate,2.0,True,0.016,0,False,right,0.16609,999,999,0,999,999,0,A
35,0.49826,1.2,2,0.37369,0.40691,0.80552,35,2.30029,-0.57,-0.28235,0.21591,5,2U1D,1.0,True,0.016,6,False,left,-0.08304,999,999,0,999,999,0,A
36,0.49826,1.2,2,0.34048,0.3903,0.5813,36,2.63247,0.646,0.32387,0.82213,5,2D1U,2.0,True,0.016,4,True,right,0.16609,999,999,0,999,999,0,A
37,0.49826,1.2,1,0.42352,0.3903,0.46504,37,2.72381,0.9,0.44843,0.94669,5,lapse_rate,1.0,True,0.017,0,False,left,-0.08304,999,999,0,999,999,0,A
38,0.49826,0.1,2,0.1993,0.24083,0.65604,38,2.41656,0.646,0.32387,0.82213,5,2D1U,2.0,True,0.017,4,True,right,0.16609,999,999,0,999,999,0,A
39,0.49826,0.1,1,0.31556,0.3903,0.42352,39,1.84355,-0.57,-0.28235,0.21591,5,2U1D,2.0,True,0.016,6,False,right,-0.08304,999,999,0,999,999,0,A
40,0.49826,1.2,1,0.382,0.34878,0.73078,40,2.17573,-0.5700000000000001,-0.28235,0.21591,5,lapse_rate,2.0,True,0.017,0,False,right,0.16609,999,999,0,999,999,0,A
41,0.49826,0.1,2,0.20761,0.36539,0.81382,41,2.10099,-0.5700000000000001,-0.28235,0.21591,5,lapse_rate,1.0,True,0.016,0,False,left,-0.08304,999,999,0,999,999,0,A
42,0.49826,1.2,1,0.28235,0.33217,0.39861,42,1.74391,-0.534,-0.26574,0.23252,5,2U1D,2.0,True,0.016,7,True,right,0.16609,999,999,0,999,999,0,A
43,0.49826,1.2,1,0.43183,0.23252,0.56469,43,2.53282,0.61,0.30726,0.80552,5,2D1U,1.0,True,0.017,4,False,left,-0.08304,999,999,0,999,999,0,A
44,0.49826,0.1,1,0.39861,0.33217,0.89687,44,2.34182,-0.5700000000000001,-0.28235,0.21591,5,lapse_rate,1.0,False,0.014,0,False,left,0.16609,999,999,0,999,999,0,A
45,0.49826,0.1,2,0.382,0.26574,0.46504,45,1.84356,-0.534,-0.26574,0.23252,5,2U1D,2.0,False,0.015,7,True,right,-0.08304,999,999,0,999,999,0,A
46,0.49826,0.1,2,0.22422,0.26574,0.52317,46,2.31691,0.61,0.30726,0.80552,5,2D1U,1.0,False,0.016,4,False,left,0.16609,999,999,0,999,999,0,A
47,0.49826,1.2,2,0.22422,0.37369,0.51487,47,1.82695,-0.57,-0.28235,0.21591,5,2U1D,1.0,True,0.014,8,True,left,-0.08304,999,999,0,999,999,0,A
48,0.49826,1.2,1,0.44013,0.28235,0.48165,48,2.52452,0.646,0.32387,0.82213,5,2D1U,2.0,False,0.015,5,True,right,0.16609,999,999,0,999,999,0,A
49,0.49826,0.1,1,0.33217,0.40691,0.68926,49,2.87329,0.9,0.44843,0.94669,5,lapse_rate,2.0,False,0.017,0,False,right,-0.08304,999,999,0,999,999,0,A
50,0.49826,0.1,1,0.32387,0.3903,0.82213,50,2.25047,-0.57,-0.28235,0.21591,5,2U1D,2.0,True,0.016,8,True,right,0.16609,999,999,0,999,999,0,A
51,0.49826,0.1,2,0.41522,0.25743,0.65604,51,2.66569,0.682,0.34048,0.83874,5,2D1U,1.0,False,0.017,5,False,left,-0.08304,999,999,0,999,999,0,A
52,0.49826,0.1,2,0.41522,0.20761,0.58961,52,1.92661,-0.5700000000000001,-0.28235,0.21591,5,lapse_rate,2.0,False,0.014,0,False,right,0.16609,999,999,0,999,999,0,A
53,0.49826,1.2,2,0.26574,0.25743,0.53978,53,1.79373,-0.534,-0.26574,0.23252,5,2U1D,2.0,False,0.016,9,True,right,-0.08304,999,999,0,999,999,0,A
54,0.49826,1.2,1,0.24913,0.31556,0.61452,54,2.53282,0.718,0.35709,0.85535,5,2D1U,1.0,True,0.016,5,False,left,0.16609,999,999,0,999,999,0,A
55,0.49826,1.2,1,0.25743,0.382,0.54809,55,1.90169,-0.5700000000000001,-0.28235,0.21591,5,lapse_rate,1.0,False,0.015,0,False,left,-0.08304,999,999,0,999,999,0,A
56,0.49826,0.1,1,0.24083,0.44843,0.83874,56,2.24217,-0.57,-0.28235,0.21591,5,2U1D,1.0,False,0.014,10,True,left,0.16609,999,999,0,999,999,0,A
57,0.49826,1.2,2,0.21591,0.41522,0.59791,57,1.94321,-0.5700000000000001,-0.28235,0.21591,5,lapse_rate,1.0,True,0.014,0,False,left,-0.08304,999,999,0,999,999,0,A
58,0.49826,0.1,1,0.24913,0.22422,0.78061,58,2.60757,0.718,0.35709,0.85535,5,2D1U,2.0,False,0.015,5,False,right,0.16609,999,999,0,999,999,0,A
59,0.49826,1.2,1,0.32387,0.20761,0.61452,59,2.52452,0.754,0.37369,0.88026,5,2D1U,2.0,False,0.015,5,False,right,-0.08304,999,999,0,999,999,0,A
60,0.49826,0.1,1,0.25743,0.40691,0.68926,60,2.79855,0.9,0.44843,0.94669,5,lapse_rate,2.0,False,0.017,0,False,right,0.16609,999,999,0,999,999,0,A
61,0.49826,1.2,2,0.34048,0.27404,0.83874,61,2.16743,-0.57,-0.28235,0.21591,5,2U1D,1.0,True,0.014,10,False,left,-0.08304,999,999,0,999,999,0,A
62,0.49826,0.1,1,0.21591,0.24083,0.46504,62,1.63595,-0.57,-0.28235,0.21591,5,2U1D,2.0,True,0.014,10,False,right,0.16609,999,999,0,999,999,0,A
63,0.49826,0.1,2,0.24913,0.29896,0.50656,63,2.44978,0.79,0.39861,0.89687,5,2D1U,2.0,True,0.014,5,False,right,-0.08304,999,999,0,999,999,0,A
64,0.49826,1.2,1,0.44843,0.29896,0.41522,64,2.60756,0.9,0.44843,0.94669,5,lapse_rate,1.0,True,0.016,0,False,left,0.16609,999,999,0,999,999,0,A
65,0.49826,1.2,1,0.21591,0.27404,0.573,65,2.45808,0.79,0.39861,0.89687,5,2D1U,2.0,False,0.016,5,False,right,-0.08304,999,999,0,999,999,0,A
66,0.49826,1.2,1,0.35709,0.382,0.75569,66,2.20895,-0.5700000000000001,-0.28235,0.21591,5,lapse_rate,1.0,False,0.016,0,False,left,0.16609,999,999,0,999,999,0,A
67,0.49826,1.2,1,0.44843,0.24083,0.65604,67,2.07608,-0.534,-0.26574,0.23252,5,2U1D,1.0,False,0.014,11,True,left,-0.08304,999,999,0,999,999,0,A
68,0.49826,0.1,1,0.3903,0.21591,0.72248,68,2.74043,0.826,0.41522,0.91348,5,2D1U,2.0,False,0.017,5,False,right,0.16609,999,999,0,999,999,0,A
69,0.49826,1.2,1,0.24083,0.34878,0.49826,69,2.53282,0.9,0.44843,0.94669,5,lapse_rate,1.0,True,0.016,0,False,left,-0.08304,999,999,0,999,999,0,A
70,0.49826,0.1,2,0.34878,0.32387,0.72248,70,2.1093,-0.57,-0.28235,0.21591,5,2U1D,1.0,True,0.015,12,True,left,0.16609,999,999,0,999,999,0,A
71,0.49826,1.2,2,0.40691,0.27404,0.89687,71,3.00616,0.862,0.43183,0.93008,5,2D1U,1.0,False,0.017,5,False,left,-0.08304,999,999,0,999,999,0,A
72,0.49826,1.2,1,0.39861,0.24913,0.88856,72,2.25047,-0.5700000000000001,-0.28235,0.21591,5,lapse_rate,1.0,False,0.015,0,False,left,0.16609,999,999,0,999,999,0,A
73,0.49826,1.2,1,0.30726,0.43183,0.85535,73,2.30861,-0.57,-0.28235,0.21591,5,2U1D,1.0,False,0.016,12,True,left,-0.08304,999,999,0,999,999,0,A
74,0.49826,0.1,1,0.28235,0.34878,0.42352,74,2.4996,0.898,0.44843,0.94669,5,2D1U,2.0,False,0.016,5,False,right,0.16609,999,999,0,999,999,0,A
75,0.49826,1.2,2,0.42352,0.26574,0.46504,75,2.59925,0.9,0.44843,0.94669,5,lapse_rate,2.0,True,0.016,0,False,right,-0.08304,999,999,0,999,999,0,A
76,0.49826,0.1,2,0.23252,0.34878,0.63943,76,1.9349,-0.57,-0.28235,0.21591,5,2U1D,2.0,False,0.017,12,False,right,0.16609,999,999,0,999,999,0,A
77,0.49826,1.2,1,0.30726,0.34048,0.64774,77,2.00965,-0.57,-0.28235,0.21591,5,2U1D,1.0,False,0.016,12,False,left,-0.08304,999,999,0,999,999,0,A
78,0.49826,0.1,1,0.23252,0.39861,0.65604,78,2.73212,0.9,0.44843,0.94669,5,lapse_rate,1.0,True,0.016,0,False,left,0.16609,999,999,0,999,999,0,A
79,0.49826,1.2,1,0.24913,0.44013,0.51487,79,2.66569,0.934,0.46504,0.9633,5,2D1U,2.0,False,0.017,5,False,right,-0.08304,999,999,0,999,999,0,A
80,0.49826,0.1,2,0.35709,0.24083,0.48996,80,1.80205,-0.57,-0.28235,0.21591,5,2U1D,2.0,False,0.016,12,False,right,0.16609,999,999,0,999,999,0,A
81,0.49826,0.1,1,0.32387,0.382,0.573,81,2.72382,0.9,0.44843,0.94669,5,lapse_rate,2.0,False,0.017,0,False,right,-0.08304,999,999,0,999,999,0,A
82,0.49826,0.1,1,0.37369,0.34878,0.67265,82,2.8816,0.97,0.48165,0.98822,5,2D1U,1.0,True,0.017,5,False,left,0.16609,999,999,0,999,999,0,A
83,0.49826,0.1,1,0.44843,0.28235,0.44843,83,2.62416,0.9,0.44843,0.94669,5,lapse_rate,2.0,False,0.018,0,False,right,-0.08304,999,999,0,999,999,0,A
84,0.49826,1.2,1,0.34878,0.24083,0.73078,84,2.80687,0.97,0.48165,0.98822,5,2D1U,2.0,False,0.017,5,False,right,0.16609,999,999,0,999,999,0,A
85,0.49826,1.2,2,0.24913,0.44013,0.44013,85,1.84356,-0.57,-0.28235,0.21591,5,2U1D,2.0,False,0.016,12,False,right,-0.08304,999,999,0,999,999,0,A
86,0.49826,0.1,2,0.3903,0.29065,0.53978,86,1.9349,-0.57,-0.28235,0.21591,5,2U1D,1.0,True,0.017,12,False,left,0.16609,999,999,0,999,999,0,A
87,0.49826,1.2,1,0.31556,0.29065,0.52317,87,2.57433,0.9,0.44843,0.94669,5,lapse_rate,2.0,False,0.018,0,False,right,-0.08304,999,999,0,999,999,0,A
88,0.49826,0.1,1,0.3903,0.26574,0.55639,88,2.71551,1.006,0.50656,1.00482,5,2D1U,2.0,False,0.018,5,False,right,0.16609,999,999,0,999,999,0,A
89,0.49826,1.2,1,0.35709,0.33217,0.67265,89,2.8816,1.042,0.52317,1.02143,5,2D1U,2.0,False,0.018,5,False,right,-0.08304,999,999,0,999,999,0,A
90,0.49826,1.2,1,0.3903,0.40691,0.88856,90,2.39994,-0.57,-0.28235,0.21591,5,2U1D,1.0,False,0.018,12,False,left,0.16609,999,999,0,999,999,0,A
91,0.49826,0.1,2,0.36539,0.34878,0.53978,91,1.96812,-0.5700000000000001,-0.28235,0.21591,5,lapse_rate,1.0,True,0.019,0,False,left,-0.08304,999,999,0,999,999,0,A
92,0.49826,0.1,1,0.28235,0.43183,0.40691,92,1.83526,-0.57,-0.28235,0.21591,5,2U1D,1.0,False,0.02,12,False,left,0.16609,999,999,0,999,999,0,A
93,0.49826,0.1,2,0.24913,0.41522,0.58961,93,1.96813,-0.5700000000000001,-0.28235,0.21591,5,lapse_rate,2.0,False,0.018,0,False,right,-0.08304,999,999,0,999,999,0,A
94,0.49826,0.1,1,0.3903,0.34048,0.71417,94,2.98125,1.078,0.53978,1.03804,5,2D1U,2.0,False,0.018,5,False,right,0.16609,999,999,0,999,999,0,A
95,0.49826,0.1,2,0.43183,0.41522,0.64774,95,2.93974,0.9,0.44843,0.94669,5,lapse_rate,1.0,False,0.02,0,False,left,-0.08304,999,999,0,999,999,0,A
96,0.49826,1.2,1,0.39861,0.35709,0.58961,96,2.89822,1.114,0.55639,1.05465,5,2D1U,2.0,False,0.019,5,False,right,0.16609,999,999,0,999,999,0,A
97,0.49826,1.2,1,0.34048,0.42352,0.7723,97,2.25047,-0.57,-0.28235,0.21591,5,2U1D,2.0,True,0.019,12,False,right,-0.08304,999,999,0,999,999,0,A
98,0.49826,1.2,2,0.22422,0.382,0.83874,98,2.15913,-0.5700000000000001,-0.28235,0.21591,5,lapse_rate,1.0,True,0.019,0,False,left,0.16609,999,999,0,999,999,0,A
99,0.49826,0.1,1,0.30726,0.39861,0.68926,99,2.1093,-0.57,-0.28235,0.21591,5,2U1D,2.0,True,0.02,12,False,right,-0.08304,999,999,0,999,999,0,A
100,0.49826,0.1,2,0.43183,0.36539,0.66435,100,3.03109,1.15,0.573,1.07126,5,2D1U,2.0,True,0.02,5,False,right,0.16609,999,999,0,999,999,0,A
101,0.49826,0.1,2,0.29896,0.40691,0.49826,101,2.64908,0.9,0.44843,0.94669,5,lapse_rate,1.0,False,0.02,0,False,left,-0.08304,999,999,0,999,999,0,A
102,0.49826,1.2,1,0.24913,0.37369,0.49826,102,1.85186,-0.534,-0.26574,0.23252,5,2U1D,1.0,False,0.021,13,True,left,0.16609,999,999,0,999,999,0,A
103,0.49826,1.2,1,0.20761,0.382,0.5813,103,2.74043,1.15,0.573,1.07126,5,2D1U,2.0,False,0.02,5,False,right,-0.08304,999,999,0,999,999,0,A
104,0.49826,0.1,1,0.44013,0.35709,0.68096,104,3.07261,1.186,0.58961,1.09617,5,2D1U,2.0,False,0.019,5,False,right,0.16609,999,999,0,999,999,0,A
105,0.49826,0.1,1,0.23252,0.34878,0.53978,105,1.83525,-0.57,-0.28235,0.21591,5,2U1D,2.0,True,0.02,14,True,right,-0.08304,999,999,0,999,999,0,A
106,0.49826,1.2,2,0.21591,0.27404,0.43183,106,1.63595,-0.5700000000000001,-0.28235,0.21591,5,lapse_rate,2.0,False,0.019,0,False,right,0.16609,999,999,0,999,999,0,A
107,0.49826,1.2,2,0.44013,0.37369,0.79722,107,2.32521,-0.57,-0.28235,0.21591,5,2U1D,1.0,True,0.02,14,True,left,-0.08304,999,999,0,999,999,0,A
108,0.49826,1.2,1,0.32387,0.29065,0.82213,108,3.04769,1.222,0.61452,1.11278,5,2D1U,1.0,True,0.021,5,False,left,0.16609,999,999,0,999,999,0,A
109,0.49826,1.2,2,0.29896,0.28235,0.63943,109,2.66569,0.9,0.44843,0.94669,5,lapse_rate,1.0,False,0.021,0,False,left,-0.08304,999,999,0,999,999,0,A
110,0.49826,0.1,1,0.3903,0.31556,0.51487,110,1.95151,-0.534,-0.26574,0.23252,5,2U1D,1.0,False,0.022,15,True,left,0.16609,999,999,0,999,999,0,A
111,0.49826,0.1,1,0.43183,0.26574,0.75569,111,3.0643,1.222,0.61452,1.11278,5,2D1U,2.0,False,0.022,5,False,right,-0.08304,999,999,0,999,999,0,A
112,0.49826,0.1,2,0.30726,0.41522,0.58961,112,2.75704,0.9,0.44843,0.94669,5,lapse_rate,1.0,False,0.021,0,False,left,0.16609,999,999,0,999,999,0,A
113,0.49826,1.2,1,0.21591,0.30726,0.68096,113,1.9183,-0.57,-0.28235,0.21591,5,2U1D,1.0,False,0.021,16,True,left,-0.08304,999,999,0,999,999,0,A
114,0.49826,1.2,1,0.29065,0.28235,0.58961,114,2.60756,0.9,0.44843,0.94669,5,lapse_rate,2.0,False,0.021,0,False,right,0.16609,999,999,0,999,999,0,A
115,0.49826,1.2,1,0.26574,0.32387,0.46504,115,2.6823,1.258,0.63113,1.12939,5,2D1U,1.0,True,0.021,5,False,left,-0.08304,999,999,0,999,999,0,A
116,0.49826,0.1,2,0.22422,0.3903,0.48165,116,1.81034,-0.57,-0.28235,0.21591,5,2U1D,1.0,True,0.021,16,False,left,0.16609,999,999,0,999,999,0,A
117,0.49826,0.1,1,0.44013,0.26574,0.89687,117,3.23039,1.258,0.63113,1.12939,5,2D1U,1.0,True,0.022,5,False,left,-0.08304,999,999,0,999,999,0,A
118,0.49826,0.1,1,0.40691,0.37369,0.83874,118,2.33351,-0.5700000000000001,-0.28235,0.21591,5,lapse_rate,1.0,False,0.021,0,False,left,0.16609,999,999,0,999,999,0,A
119,0.49826,1.2,1,0.31556,0.24913,0.56469,119,1.84355,-0.5700000000000001,-0.28235,0.21591,5,lapse_rate,2.0,True,0.022,0,False,right,-0.08304,999,999,0,999,999,0,A
120,0.49826,1.2,1,0.382,0.33217,0.69756,120,3.02277,1.222,0.61452,1.11278,5,2D1U,2.0,False,0.023,6,True,right,0.16609,999,999,0,999,999,0,A
121,0.49826,1.2,1,0.35709,0.26574,0.52317,121,1.86017,-0.57,-0.28235,0.21591,5,2U1D,2.0,True,0.025,16,False,right,-0.08304,999,999,0,999,999,0,A
122,0.49826,0.1,1,0.40691,0.44013,0.88856,122,2.46638,-0.534,-0.26574,0.23252,5,2U1D,1.0,False,0.025,17,True,left,0.16609,999,999,0,999,999,0,A
123,0.49826,0.1,1,0.41522,0.20761,0.75569,123,3.00617,1.258,0.63113,1.12939,5,2D1U,1.0,True,0.022,7,True,left,-0.08304,999,999,0,999,999,0,A
124,0.49826,1.2,2,0.25743,0.34878,0.83874,124,2.8899,0.9,0.44843,0.94669,5,lapse_rate,2.0,True,0.024,0,False,right,0.16609,999,999,0,999,999,0,A
125,0.49826,1.2,2,0.382,0.33217,0.68096,125,3.02278,1.258,0.63113,1.12939,5,2D1U,1.0,False,0.022,7,True,left,-0.08304,999,999,0,999,999,0,A
126,0.49826,1.2,2,0.382,0.41522,0.78891,126,2.3003,-0.57,-0.28235,0.21591,5,2U1D,1.0,True,0.024,18,True,left,0.16609,999,999,0,999,999,0,A
127,0.49826,1.2,1,0.44013,0.1993,0.7723,127,2.85668,0.9,0.44843,0.94669,5,lapse_rate,1.0,True,0.023,0,False,left,-0.08304,999,999,0,999,999,0,A
128,0.49826,1.2,2,0.1993,0.44013,0.49826,128,2.58264,0.9,0.44843,0.94669,5,lapse_rate,1.0,False,0.023,0,False,left,0.16609,999,999,0,999,999,0,A
129,0.49826,0.1,1,0.24083,0.35709,0.53148,129,1.84357,-0.57,-0.28235,0.21591,5,2U1D,1.0,False,0.023,18,True,left,-0.08304,999,999,0,999,999,0,A
130,0.49826,0.1,1,0.31556,0.3903,0.51487,130,2.86499,1.294,0.64774,1.146,5,2D1U,2.0,False,0.024,7,False,right,0.16609,999,999,0,999,999,0,A
131,0.49826,0.1,1,0.24083,0.31556,0.84704,131,2.1176,-0.5700000000000001,-0.28235,0.21591,5,lapse_rate,2.0,True,0.025,0,False,right,-0.08304,999,999,0,999,999,0,A
132,0.49826,1.2,2,0.39861,0.21591,0.59791,132,1.9266,-0.57,-0.28235,0.21591,5,2U1D,1.0,True,0.024,18,False,left,0.16609,999,999,0,999,999,0,A
133,0.49826,1.2,1,0.29896,0.27404,0.82213,133,3.056,1.33,0.66435,1.16261,5,2D1U,1.0,True,0.024,7,False,left,-0.08304,999,999,0,999,999,0,A
134,0.49826,0.1,1,0.37369,0.24083,0.72248,134,2.05117,-0.5700000000000001,-0.28235,0.21591,5,lapse_rate,2.0,True,0.023,0,False,right,0.16609,999,999,0,999,999,0,A
135,0.49826,0.1,1,0.3903,0.31556,0.75569,135,2.17572,-0.57,-0.28235,0.21591,5,2U1D,2.0,True,0.024,18,False,right,-0.08304,999,999,0,999,999,0,A
136,0.49826,0.1,2,0.23252,0.24913,0.48165,136,2.62417,1.33,0.66435,1.16261,5,2D1U,1.0,False,0.024,7,False,left,0.16609,999,999,0,999,999,0,A
137,0.49826,1.2,1,0.382,0.42352,0.59791,137,2.13421,-0.534,-0.26574,0.23252,5,2U1D,1.0,False,0.025,19,True,left,-0.08304,999,999,0,999,999,0,A
138,0.49826,1.2,2,0.382,0.41522,0.83874,138,3.31343,1.366,0.68096,1.17921,5,2D1U,2.0,True,0.024,7,False,right,0.16609,999,999,0,999,999,0,A
139,0.49826,0.1,1,0.23252,0.29065,0.59791,139,2.56603,0.9,0.44843,0.94669,5,lapse_rate,1.0,True,0.025,0,False,left,-0.08304,999,999,0,999,999,0,A
140,0.49826,0.1,1,0.22422,0.26574,0.87195,140,3.03938,1.366,0.68096,1.17921,5,2D1U,2.0,False,0.026,7,False,right,0.16609,999,999,0,999,999,0,A
141,0.49826,0.1,2,0.28235,0.32387,0.5813,141,1.90169,-0.5700000000000001,-0.28235,0.21591,5,lapse_rate,2.0,False,0.025,0,False,right,-0.08304,999,999,0,999,999,0,A
142,0.49826,0.1,1,0.20761,0.44013,0.54809,142,1.91,-0.57,-0.28235,0.21591,5,2U1D,1.0,False,0.025,20,True,left,0.16609,999,999,0,999,999,0,A
143,0.49826,1.2,2,0.34048,0.43183,0.41522,143,2.88992,1.402,0.69756,1.20413,5,2D1U,2.0,True,0.026,7,False,right,-0.08304,999,999,0,999,999,0,A
144,0.49826,1.2,1,0.24913,0.30726,0.52317,144,1.79373,-0.57,-0.28235,0.21591,5,2U1D,2.0,True,0.027,20,False,right,0.16609,999,999,0,999,999,0,A
145,0.49826,0.1,2,0.32387,0.26574,0.60622,145,1.91,-0.5700000000000001,-0.28235,0.21591,5,lapse_rate,1.0,True,0.027,0,False,left,-0.08304,999,999,0,999,999,0,A
146,0.49826,0.1,2,0.22422,0.40691,0.43183,146,1.77713,-0.57,-0.28235,0.21591,5,2U1D,1.0,True,0.019,20,False,left,0.16609,999,999,0,999,999,0,A
147,0.49826,0.1,2,0.26574,0.3903,0.42352,147,2.52451,0.9,0.44843,0.94669,5,lapse_rate,2.0,True,0.022,0,False,right,-0.08304,999,999,0,999,999,0,A
148,0.49826,0.1,1,0.27404,0.37369,0.81382,148,3.16394,1.402,0.69756,1.20413,5,2D1U,1.0,True,0.021,7,False,left,0.16609,999,999,0,999,999,0,A
149,0.49826,1.2,1,0.29065,0.36539,0.61452,149,1.98473,-0.5700000000000001,-0.28235,0.21591,5,lapse_rate,1.0,False,0.024,0,False,left,-0.08304,999,999,0,999,999,0,A
150,0.49826,1.2,1,0.24083,0.39861,0.54809,150,1.91831,-0.534,-0.26574,0.23252,5,2U1D,1.0,False,0.023,21,True,left,0.16609,999,999,0,999,999,0,A
151,0.49826,1.2,2,0.29065,0.29065,0.51487,151,2.77364,1.366,0.68096,1.17921,5,2D1U,1.0,False,0.024,8,True,left,-0.08304,999,999,0,999,999,0,A
152,0.49826,0.1,1,0.3903,0.21591,0.70587,152,2.75703,0.9,0.44843,0.94669,5,lapse_rate,2.0,False,0.024,0,False,right,0.16609,999,999,0,999,999,0,A
153,0.49826,0.1,2,0.42352,0.31556,0.47335,153,1.9266,-0.57,-0.28235,0.21591,5,2U1D,1.0,True,0.025,22,True,left,-0.08304,999,999,0,999,999,0,A
154,0.49826,0.1,2,0.44013,0.27404,0.58961,154,3.00617,1.402,0.69756,1.20413,5,2D1U,1.0,False,0.026,9,True,left,0.16609,999,999,0,999,999,0,A
155,0.49826,1.2,1,0.41522,0.27404,0.41522,155,1.81865,-0.5700000000000001,-0.28235,0.21591,5,lapse_rate,1.0,False,0.027,0,False,left,-0.08304,999,999,0,999,999,0,A
156,0.49826,1.2,2,0.43183,0.25743,0.50656,156,1.90999,-0.57,-0.28235,0.21591,5,2U1D,2.0,False,0.02,22,True,right,0.16609,999,999,0,999,999,0,A
157,0.49826,1.2,1,0.31556,0.35709,0.78891,157,3.18056,1.438,0.72248,1.22074,5,2D1U,2.0,False,0.023,9,False,right,-0.08304,999,999,0,999,999,0,A
158,0.49826,0.1,1,0.41522,0.21591,0.61452,158,1.95982,-0.57,-0.28235,0.21591,5,2U1D,1.0,False,0.023,22,False,left,0.16609,999,999,0,999,999,0,A
159,0.49826,0.1,2,0.23252,0.34048,0.74739,159,2.76534,0.9,0.44843,0.94669,5,lapse_rate,1.0,False,0.024,0,False,left,-0.08304,999,999,0,999,999,0,A
160,0.49826,0.1,1,0.23252,0.44843,0.64774,160,3.0643,1.474,0.73909,1.23735,5,2D1U,1.0,True,0.028,9,False,left,0.16609,999,999,0,999,999,0,A
161,0.49826,1.2,1,0.39861,0.44013,0.84704,161,3.42139,1.474,0.73909,1.23735,5,2D1U,1.0,True,0.027,9,False,left,-0.08304,999,999,0,999,999,0,A
162,0.49826,1.2,1,0.32387,0.34878,0.7723,162,2.15912,-0.5700000000000001,-0.28235,0.21591,5,lapse_rate,1.0,False,0.028,0,False,left,0.16609,999,999,0,999,999,0,A
163,0.49826,1.2,1,0.22422,0.40691,0.7723,163,2.1176,-0.57,-0.28235,0.21591,5,2U1D,1.0,False,0.028,22,False,left,-0.08304,999,999,0,999,999,0,A
164,0.49826,0.1,1,0.44013,0.44843,0.66435,164,2.26708,-0.57,-0.28235,0.21591,5,2U1D,2.0,True,0.029,22,False,right,0.16609,999,999,0,999,999,0,A
165,0.49826,0.1,2,0.44843,0.34878,0.59791,165,3.11412,1.438,0.72248,1.22074,5,2D1U,1.0,False,0.027,10,True,left,-0.08304,999,999,0,999,999,0,A
166,0.49826,1.2,1,0.25743,0.32387,0.48165,166,2.5079,0.9,0.44843,0.94669,5,lapse_rate,1.0,True,0.027,0,False,left,0.16609,999,999,0,999,999,0,A
167,0.49826,1.2,1,0.35709,0.26574,0.59791,167,2.66569,0.9,0.44843,0.94669,5,lapse_rate,2.0,False,0.027,0,False,right,-0.08304,999,999,0,999,999,0,A
168,0.49826,1.2,1,0.23252,0.25743,0.42352,168,1.62764,-0.57,-0.28235,0.21591,5,2U1D,1.0,False,0.028,22,False,left,0.16609,999,999,0,999,999,0,A
169,0.49826,1.2,2,0.43183,0.24083,0.88856,169,3.29683,1.474,0.73909,1.23735,5,2D1U,2.0,True,0.028,11,True,right,-0.08304,999,999,0,999,999,0,A
170,0.49826,0.1,1,0.42352,0.21591,0.68096,170,3.056,1.474,0.73909,1.23735,5,2D1U,2.0,False,0.028,11,True,right,0.16609,999,999,0,999,999,0,A
171,0.49826,0.1,1,0.24913,0.30726,0.86365,171,2.13421,-0.57,-0.28235,0.21591,5,2U1D,1.0,False,0.03,22,False,left,-0.08304,999,999,0,999,999,0,A
172,0.49826,1.2,2,0.26574,0.39861,0.54809,172,2.96465,1.51,0.75569,1.25395,5,2D1U,1.0,False,0.029,11,False,left,0.16609,999,999,0,999,999,0,A
173,0.49826,1.2,1,0.43183,0.31556,0.52317,173,1.98473,-0.57,-0.28235,0.21591,5,2U1D,2.0,True,0.029,22,False,right,-0.08304,999,999,0,999,999,0,A
174,0.49826,0.1,1,0.36539,0.37369,0.88856,174,2.34181,-0.57,-0.28235,0.21591,5,2U1D,1.0,False,0.026,22,False,left,0.16609,999,999,0,999,999,0,A
175,0.49826,0.1,2,0.22422,0.32387,0.75569,175,3.0726,1.546,0.7723,1.27056,5,2D1U,2.0,True,0.03,11,False,right,-0.08304,999,999,0,999,999,0,A
176,0.49826,1.2,1,0.29896,0.43183,0.65604,176,3.15565,1.546,0.7723,1.27056,5,2D1U,2.0,False,0.029,11,False,right,0.16609,999,999,0,999,999,0,A
177,0.49826,1.2,2,0.35709,0.44013,0.53148,177,3.11413,1.582,0.78891,1.28717,5,2D1U,1.0,False,0.029,11,False,left,-0.08304,999,999,0,999,999,0,A
178,0.49826,0.1,2,0.27404,0.20761,0.58961,178,1.78543,-0.57,-0.28235,0.21591,5,2U1D,2.0,False,0.029,22,False,right,0.16609,999,999,0,999,999,0,A
179,0.49826,0.1,2,0.26574,0.44013,0.84704,179,2.26708,-0.57,-0.28235,0.21591,5,2U1D,2.0,False,0.033,22,False,right,-0.08304,999,999,0,999,999,0,A
180,0.49826,1.2,1,0.37369,0.27404,0.43183,180,1.79373,-0.57,-0.28235,0.21591,5,2U1D,2.0,True,0.03,22,False,right,0.16609,999,999,0,999,999,0,A
181,0.49826,1.2,1,0.30726,0.382,0.51487,181,3.01447,1.618,0.80552,1.31208,5,2D1U,2.0,False,0.03,11,False,right,-0.08304,999,999,0,999,999,0,A
182,0.49826,0.1,1,0.36539,0.33217,0.75569,182,3.2802,1.654,0.83043,1.32869,5,2D1U,2.0,False,0.03,11,False,right,0.16609,999,999,0,999,999,0,A
183,0.49826,0.1,1,0.28235,0.44843,0.72248,183,3.29682,1.69,0.84704,1.3453,5,2D1U,2.0,False,0.03,11,False,right,-0.08304,999,999,0,999,999,0,A
184,0.49826,1.2,2,0.25743,0.31556,0.50656,184,1.79372,-0.57,-0.28235,0.21591,5,2U1D,2.0,False,0.031,22,False,right,0.16609,999,999,0,999,999,0,A
185,0.49826,1.2,2,0.26574,0.24913,0.68096,185,3.056,1.726,0.86365,1.36191,5,2D1U,2.0,True,0.03,11,False,right,-0.08304,999,999,0,999,999,0,A
186,0.49826,0.1,2,0.382,0.382,0.63943,186,2.1176,-0.57,-0.28235,0.21591,5,2U1D,2.0,False,0.032,22,False,right,0.16609,999,999,0,999,999,0,A
187,0.49826,0.1,2,0.33217,0.22422,0.44843,187,1.71899,-0.57,-0.28235,0.21591,5,2U1D,1.0,True,0.031,22,False,left,-0.08304,999,999,0,999,999,0,A
188,0.49826,1.2,2,0.34048,0.382,0.47335,188,3.056,1.726,0.86365,1.36191,5,2D1U,2.0,True,0.031,11,False,right,0.16609,999,999,0,999,999,0,A
189,0.49826,1.2,2,0.44843,0.30726,0.61452,189,2.08438,-0.57,-0.28235,0.21591,5,2U1D,1.0,True,0.031,22,False,left,-0.08304,999,999,0,999,999,0,A
190,0.49826,0.1,1,0.40691,0.31556,0.88856,190,2.34181,-0.534,-0.26574,0.23252,5,2U1D,2.0,True,0.031,23,True,right,0.16609,999,999,0,999,999,0,A
191,0.49826,0.1,2,0.23252,0.33217,0.45674,191,2.86499,1.69,0.84704,1.3453,5,2D1U,1.0,False,0.031,12,True,left,-0.08304,999,999,0,999,999,0,A
192,0.49826,1.2,2,0.41522,0.44843,0.73909,192,2.33352,-0.534,-0.26574,0.23252,5,2U1D,1.0,True,0.031,23,True,left,0.16609,999,999,0,999,999,0,A
193,0.49826,1.2,2,0.27404,0.29896,0.75569,193,2.07608,-0.498,-0.24913,0.24913,5,2U1D,2.0,False,0.032,23,False,right,-0.08304,999,999,0,999,999,0,A
194,0.49826,0.1,2,0.22422,0.43183,0.78891,194,3.30513,1.726,0.86365,1.36191,5,2D1U,1.0,False,0.032,13,True,left,0.16609,999,999,0,999,999,0,A
195,0.49826,0.1,2,0.41522,0.35709,0.44843,195,3.09752,1.762,0.88026,1.37852,5,2D1U,2.0,True,0.032,13,False,right,-0.08304,999,999,0,999,999,0,A
196,0.49826,1.2,1,0.27404,0.21591,0.69756,196,1.91829,-0.534,-0.26574,0.23252,5,2U1D,1.0,False,0.033,24,True,left,0.16609,999,999,0,999,999,0,A
197,0.49826,1.2,2,0.44843,0.27404,0.55639,197,3.15564,1.762,0.88026,1.37852,5,2D1U,1.0,False,0.025,13,False,left,-0.08304,999,999,0,999,999,0,A
198,0.49826,0.1,1,0.24083,0.42352,0.43183,198,1.81035,-0.57,-0.28235,0.21591,5,2U1D,2.0,True,0.027,24,False,right,0.16609,999,999,0,999,999,0,A
199,0.49826,0.1,1,0.25743,0.24083,0.85535,199,3.247,1.798,0.89687,1.39513,5,2D1U,1.0,True,0.03,13,False,left,-0.08304,999,999,0,999,999,0,A
200,0.49826,1.2,2,0.36539,0.36539,0.764,200,2.20895,-0.57,-0.28235,0.21591,5,2U1D,2.0,False,0.031,24,False,right,0.16609,999,999,0,999,999,0,A
201,0.49826,1.2,2,0.21591,0.28235,0.84704,201,3.23869,1.798,0.89687,1.39513,5,2D1U,1.0,False,0.031,13,False,left,-0.08304,999,999,0,999,999,0,A
202,0.49826,0.1,2,0.40691,0.3903,0.41522,202,3.13073,1.834,0.91348,1.42004,5,2D1U,2.0,True,0.034,13,False,right,0.16609,999,999,0,999,999,0,A
203,0.49826,0.1,1,0.382,0.33217,0.80552,203,3.43799,1.834,0.91348,1.42004,5,2D1U,2.0,False,0.033,13,False,right,-0.08304,999,999,0,999,999,0,A
204,0.49826,1.2,2,0.42352,0.21591,0.7723,204,3.34664,1.87,0.93839,1.43665,5,2D1U,1.0,False,0.033,13,False,left,0.16609,999,999,0,999,999,0,A
205,0.49826,1.2,2,0.42352,0.21591,0.46504,205,1.81864,-0.57,-0.28235,0.21591,5,2U1D,2.0,False,0.034,24,False,right,-0.08304,999,999,0,999,999,0,A
206,0.49826,0.1,1,0.20761,0.29896,0.88856,206,3.34665,1.906,0.955,1.45326,5,2D1U,1.0,True,0.033,13,False,left,0.16609,999,999,0,999,999,0,A
207,0.49826,0.1,1,0.33217,0.24913,0.46504,207,2.99786,1.906,0.955,1.45326,5,2D1U,1.0,True,0.033,13,False,left,-0.08304,999,999,0,999,999,0,A
208,0.49826,1.2,2,0.44013,0.44843,0.71417,208,2.3169,-0.57,-0.28235,0.21591,5,2U1D,1.0,True,0.034,24,False,left,0.16609,999,999,0,999,999,0,A
209,0.49826,1.2,1,0.27404,0.41522,0.55639,209,1.95982,-0.57,-0.28235,0.21591,5,2U1D,2.0,True,0.034,24,False,right,-0.08304,999,999,0,999,999,0,A
210,0.49826,0.1,2,0.44013,0.39861,0.44013,210,3.21378,1.87,0.93839,1.43665,5,2D1U,2.0,True,0.033,14,True,right,0.16609,999,999,0,999,999,0,A
211,0.49826,0.1,1,0.37369,0.33217,0.52317,211,1.95981,-0.534,-0.26574,0.23252,5,2U1D,2.0,True,0.026,25,True,right,-0.08304,999,999,0,999,999,0,A
212,0.49826,1.2,1,0.44843,0.27404,0.84704,212,2.30029,-0.534,-0.26574,0.23252,5,2U1D,2.0,True,0.027,25,True,right,0.16609,999,999,0,999,999,0,A
213,0.49826,1.2,1,0.23252,0.29065,0.60622,213,1.87678,-0.498,-0.24913,0.24913,5,2U1D,2.0,True,0.027,25,False,right,-0.08304,999,999,0,999,999,0,A
214,0.49826,0.1,1,0.3903,0.29065,0.73909,214,3.35495,1.87,0.93839,1.43665,5,2D1U,2.0,False,0.031,14,True,right,0.16609,999,999,0,999,999,0,A
215,0.49826,0.1,1,0.30726,0.28235,0.81382,215,2.15082,-0.498,-0.24913,0.24913,5,2U1D,1.0,False,0.031,25,False,left,-0.08304,999,999,0,999,999,0,A
216,0.49826,1.2,2,0.22422,0.29896,0.59791,216,3.07261,1.906,0.955,1.45326,5,2D1U,1.0,False,0.032,15,True,left,0.16609,999,999,0,999,999,0,A
217,0.49826,1.2,1,0.44013,0.24913,0.69756,217,2.1176,-0.534,-0.26574,0.23252,5,2U1D,1.0,False,0.025,26,True,left,-0.08304,999,999,0,999,999,0,A
218,0.49826,0.1,1,0.44843,0.1993,0.7723,218,3.38816,1.942,0.97161,1.46987,5,2D1U,1.0,True,0.027,15,False,left,0.16609,999,999,0,999,999,0,A
219,0.49826,0.1,2,0.41522,0.43183,0.87195,219,2.43317,-0.57,-0.28235,0.21591,5,2U1D,2.0,False,0.029,26,False,right,-0.08304,999,999,0,999,999,0,A
220,0.49826,1.2,2,0.27404,0.27404,0.52317,220,3.03938,1.942,0.97161,1.46987,5,2D1U,1.0,False,0.031,15,False,left,0.16609,999,999,0,999,999,0,A
221,0.49826,1.2,2,0.20761,0.27404,0.75569,221,1.95151,-0.57,-0.28235,0.21591,5,2U1D,2.0,False,0.03,26,False,right,-0.08304,999,999,0,999,999,0,A
222,0.49826,0.1,2,0.21591,0.34878,0.81382,222,3.36325,1.978,0.98822,1.48648,5,2D1U,2.0,True,0.03,15,False,right,0.16609,999,999,0,999,999,0,A
223,0.49826,0.1,2,0.40691,0.42352,0.70587,223,3.52104,1.978,0.98822,1.48648,5,2D1U,1.0,False,0.034,15,False,left,-0.08304,999,999,0,999,999,0,A
224,0.49826,1.2,1,0.42352,0.24913,0.46504,224,1.85186,-0.57,-0.28235,0.21591,5,2U1D,1.0,False,0.033,26,False,left,0.16609,999,999,0,999,999,0,A
225,0.49826,1.2,1,0.25743,0.22422,0.87195,225,3.35494,2.014,1.00482,1.50308,5,2D1U,1.0,True,0.034,15,False,left,-0.08304,999,999,0,999,999,0,A
226,0.49826,0.1,2,0.31556,0.44843,0.84704,226,3.61237,2.014,1.00482,1.50308,5,2D1U,1.0,False,0.035,15,False,left,0.16609,999,999,0,999,999,0,A
227,0.49826,0.1,2,0.40691,0.29896,0.79722,227,3.52935,2.05,1.02143,1.528,5,2D1U,1.0,False,0.035,15,False,left,-0.08304,999,999,0,999,999,0,A
228,0.49826,1.2,2,0.3903,0.33217,0.79722,228,2.23386,-0.57,-0.28235,0.21591,5,2U1D,2.0,False,0.036,26,False,right,0.16609,999,999,0,999,999,0,A
229,0.49826,1.2,1,0.28235,0.25743,0.45674,229,3.03939,2.086,1.04635,1.54461,5,2D1U,1.0,True,0.036,15,False,left,-0.08304,999,999,0,999,999,0,A
230,0.49826,0.1,1,0.42352,0.25743,0.67265,230,3.39647,2.086,1.04635,1.54461,5,2D1U,1.0,True,0.036,15,False,left,0.16609,999,999,0,999,999,0,A
231,0.49826,0.1,2,0.36539,0.43183,0.51487,231,3.33835,2.05,1.02143,1.528,5,2D1U,1.0,False,0.027,16,True,left,-0.08304,999,999,0,999,999,0,A
232,0.49826,1.2,1,0.30726,0.3903,0.86365,232,2.27538,-0.57,-0.28235,0.21591,5,2U1D,2.0,True,0.028,26,False,right,0.16609,999,999,0,999,999,0,A
233,0.49826,1.2,2,0.20761,0.43183,0.82213,233,2.17574,-0.57,-0.28235,0.21591,5,2U1D,1.0,True,0.028,26,False,left,-0.08304,999,999,0,999,999,0,A
234,0.49826,0.1,1,0.382,0.39861,0.48996,234,3.31344,2.086,1.04635,1.54461,5,2D1U,1.0,True,0.028,17,True,left,0.16609,999,999,0,999,999,0,A
235,0.49826,0.1,1,0.44843,0.39861,0.43183,235,2.00965,-0.534,-0.26574,0.23252,5,2U1D,2.0,True,0.031,27,True,right,-0.08304,999,999,0,999,999,0,A
236,0.49826,1.2,2,0.29065,0.22422,0.78891,236,2.03456,-0.534,-0.26574,0.23252,5,2U1D,2.0,False,0.031,27,True,right,0.16609,999,999,0,999,999,0,A
237,0.49826,1.2,2,0.43183,0.33217,0.44013,237,3.247,2.086,1.04635,1.54461,5,2D1U,1.0,False,0.031,17,True,left,-0.08304,999,999,0,999,999,0,A
238,0.49826,0.1,2,0.40691,0.28235,0.64774,238,2.05117,-0.57,-0.28235,0.21591,5,2U1D,1.0,True,0.036,28,True,left,0.16609,999,999,0,999,999,0,A
239,0.49826,0.1,2,0.27404,0.32387,0.67265,239,1.98473,-0.57,-0.28235,0.21591,5,2U1D,1.0,True,0.035,28,True,left,-0.08304,999,999,0,999,999,0,A
240,0.49826,1.2,1,0.39861,0.42352,0.54809,240,3.42969,2.122,1.06295,1.56121,5,2D1U,1.0,True,0.038,17,False,left,0.16609,999,999,0,999,999,0,A
241,0.49826,1.2,1,0.27404,0.33217,0.55639,241,1.89338,-0.534,-0.26574,0.23252,5,2U1D,1.0,False,0.029,29,True,left,-0.08304,999,999,0,999,999,0,A
242,0.49826,0.1,2,0.3903,0.21591,0.68926,242,2.00964,-0.57,-0.28235,0.21591,5,2U1D,1.0,True,0.028,30,True,left,0.16609,999,999,0,999,999,0,A
243,0.49826,0.1,2,0.36539,0.44013,0.78891,243,2.3086,-0.57,-0.28235,0.21591,5,2U1D,2.0,False,0.029,30,True,right,-0.08304,999,999,0,999,999,0,A
244,0.49826,1.2,2,0.32387,0.31556,0.67265,244,3.37155,2.122,1.06295,1.56121,5,2D1U,1.0,False,0.033,17,False,left,0.16609,999,999,0,999,999,0,A
245,0.49826,1.2,1,0.34048,0.33217,0.58961,245,1.97643,-0.57,-0.28235,0.21591,5,2U1D,1.0,False,0.028,30,False,left,-0.08304,999,999,0,999,999,0,A
246,0.49826,0.1,1,0.20761,0.22422,0.56469,246,3.0726,2.158,1.07956,1.57782,5,2D1U,2.0,False,0.034,17,False,right,0.16609,999,999,0,999,999,0,A
247,0.49826,0.1,2,0.32387,0.30726,0.51487,247,3.23869,2.194,1.09617,1.59443,5,2D1U,1.0,False,0.034,17,False,left,-0.08304,999,999,0,999,999,0,A
248,0.49826,1.2,1,0.36539,0.32387,0.50656,248,1.90999,-0.57,-0.28235,0.21591,5,2U1D,2.0,True,0.03,30,False,right,0.16609,999,999,0,999,999,0,A
249,0.49826,1.2,2,0.29065,0.34878,0.69756,249,3.44629,2.23,1.11278,1.61104,5,2D1U,1.0,False,0.033,17,False,left,-0.08304,999,999,0,999,999,0,A
250,0.49826,0.1,2,0.43183,0.3903,0.78061,250,2.31691,-0.57,-0.28235,0.21591,5,2U1D,2.0,False,0.035,30,False,right,0.16609,999,999,0,999,999,0,A
251,0.49826,0.1,2,0.35709,0.31556,0.66435,251,3.47121,2.266,1.12939,1.63595,5,2D1U,2.0,True,0.036,17,False,right,-0.08304,999,999,0,999,999,0,A
252,0.49826,1.2,2,0.382,0.37369,0.73909,252,2.20895,-0.57,-0.28235,0.21591,5,2U1D,2.0,False,0.038,30,False,right,0.16609,999,999,0,999,999,0,A
253,0.49826,1.2,1,0.1993,0.34878,0.48996,253,3.17225,2.266,1.12939,1.63595,5,2D1U,1.0,True,0.038,17,False,left,-0.08304,999,999,0,999,999,0,A
254,0.49826,0.1,2,0.34878,0.40691,0.5813,254,3.44629,2.23,1.11278,1.61104,5,2D1U,2.0,True,0.04,18,True,right,0.16609,999,999,0,999,999,0,A
255,0.49826,0.1,1,0.26574,0.41522,0.55639,255,3.34665,2.23,1.11278,1.61104,5,2D1U,2.0,False,0.03,18,True,right,-0.08304,999,999,0,999,999,0,A
256,0.49826,1.2,2,0.37369,0.25743,0.60622,256,1.95151,-0.57,-0.28235,0.21591,5,2U1D,2.0,False,0.031,30,False,right,0.16609,999,999,0,999,999,0,A
257,0.49826,1.2,1,0.34048,0.34878,0.81382,257,3.63729,2.266,1.12939,1.63595,5,2D1U,1.0,True,0.033,19,True,left,-0.08304,999,999,0,999,999,0,A
258,0.49826,0.1,2,0.24083,0.44013,0.764,258,3.57917,2.266,1.12939,1.63595,5,2D1U,2.0,True,0.032,19,True,right,0.16609,999,999,0,999,999,0,A
259,0.49826,0.1,2,0.29065,0.30726,0.84704,259,2.15912,-0.57,-0.28235,0.21591,5,2U1D,1.0,True,0.036,30,False,left,-0.08304,999,999,0,999,999,0,A
260,0.49826,1.2,1,0.37369,0.33217,0.84704,260,3.6622,2.23,1.11278,1.61104,5,2D1U,2.0,False,0.036,20,True,right,0.16609,999,999,0,999,999,0,A
261,0.49826,1.2,2,0.20761,0.43183,0.68096,261,2.03457,-0.57,-0.28235,0.21591,5,2U1D,2.0,False,0.04,30,False,right,-0.08304,999,999,0,999,999,0,A
262,0.49826,0.1,2,0.40691,0.25743,0.63943,262,2.01794,-0.57,-0.28235,0.21591,5,2U1D,2.0,False,0.042,30,False,right,0.16609,999,999,0,999,999,0,A
263,0.49826,0.1,2,0.36539,0.44013,0.88856,263,2.40825,-0.57,-0.28235,0.21591,5,2U1D,2.0,False,0.03,30,False,right,-0.08304,999,999,0,999,999,0,A
264,0.49826,1.2,2,0.31556,0.25743,0.87195,264,2.15911,-0.57,-0.28235,0.21591,5,2U1D,1.0,True,0.031,30,False,left,0.16609,999,999,0,999,999,0,A
265,0.49826,1.2,1,0.21591,0.22422,0.39861,265,2.97295,2.266,1.12939,1.63595,5,2D1U,2.0,False,0.033,21,True,right,-0.08304,999,999,0,999,999,0,A
266,0.49826,0.1,2,0.37369,0.27404,0.63113,266,3.42968,2.302,1.1543,1.65256,5,2D1U,2.0,True,0.034,21,False,right,0.16609,999,999,0,999,999,0,A
267,0.49826,0.1,2,0.29065,0.41522,0.73078,267,2.15082,-0.57,-0.28235,0.21591,5,2U1D,2.0,False,0.031,30,False,right,-0.08304,999,999,0,999,999,0,A
268,0.49826,1.2,1,0.27404,0.21591,0.70587,268,1.90999,-0.57,-0.28235,0.21591,5,2U1D,2.0,True,0.034,30,False,right,0.16609,999,999,0,999,999,0,A
269,0.49826,1.2,1,0.32387,0.41522,0.75569,269,3.6456,2.302,1.1543,1.65256,5,2D1U,2.0,False,0.034,21,False,right,-0.08304,999,999,0,999,999,0,A
270,0.49826,0.1,1,0.27404,0.3903,0.48996,270,3.32173,2.338,1.17091,1.66917,5,2D1U,2.0,False,0.037,21,False,right,0.16609,999,999,0,999,999,0,A
271,0.49826,0.1,2,0.29065,0.32387,0.73909,271,2.06778,-0.57,-0.28235,0.21591,5,2U1D,1.0,True,0.031,30,False,left,-0.08304,999,999,0,999,999,0,A
272,0.49826,1.2,2,0.34878,0.34048,0.71417,272,3.58747,2.374,1.18752,1.68578,5,2D1U,2.0,True,0.036,21,False,right,0.16609,999,999,0,999,999,0,A
273,0.49826,1.2,1,0.20761,0.33217,0.55639,273,1.82695,-0.534,-0.26574,0.23252,5,2U1D,1.0,False,0.038,31,True,left,-0.08304,999,999,0,999,999,0,A
274,0.49826,0.1,1,0.39861,0.37369,0.81382,274,2.30029,-0.57,-0.28235,0.21591,5,2U1D,2.0,True,0.04,32,True,right,0.16609,999,999,0,999,999,0,A
275,0.49826,0.1,2,0.35709,0.42352,0.58961,275,2.08439,-0.57,-0.28235,0.21591,5,2U1D,2.0,False,0.031,32,True,right,-0.08304,999,999,0,999,999,0,A
276,0.49826,1.2,2,0.40691,0.25743,0.64774,276,3.49612,2.374,1.18752,1.68578,5,2D1U,1.0,False,0.035,21,False,left,0.16609,999,999,0,999,999,0,A
277,0.49826,1.2,1,0.29896,0.36539,0.49826,277,1.87678,-0.57,-0.28235,0.21591,5,2U1D,2.0,True,0.034,32,False,right,-0.08304,999,999,0,999,999,0,A
278,0.49826,0.1,2,0.23252,0.40691,0.48165,278,1.83525,-0.57,-0.28235,0.21591,5,2U1D,1.0,True,0.037,32,False,left,0.16609,999,999,0,999,999,0,A
279,0.49826,0.1,2,0.39861,0.35709,0.72248,279,3.67883,2.41,1.20413,1.70239,5,2D1U,2.0,True,0.037,21,False,right,-0.08304,999,999,0,999,999,0,A
280,0.49826,1.2,2,0.26574,0.23252,0.5813,280,1.81034,-0.534,-0.26574,0.23252,5,2U1D,2.0,False,0.037,33,True,right,0.16609,999,999,0,999,999,0,A
281,0.49826,1.2,1,0.24913,0.29896,0.60622,281,1.86848,-0.57,-0.28235,0.21591,5,2U1D,2.0,True,0.033,34,True,right,-0.08304,999,999,0,999,999,0,A
282,0.49826,0.1,1,0.44843,0.382,0.573,282,3.60408,2.41,1.20413,1.70239,5,2D1U,1.0,True,0.036,21,False,left,0.16609,999,999,0,999,999,0,A
283,0.49826,0.1,1,0.29065,0.34048,0.87195,283,2.21725,-0.57,-0.28235,0.21591,5,2U1D,2.0,True,0.036,34,True,right,-0.08304,999,999,0,999,999,0,A
284,0.49826,1.2,2,0.39861,0.34048,0.45674,284,3.37987,2.374,1.18752,1.68578,5,2D1U,1.0,False,0.039,22,True,left,0.16609,999,999,0,999,999,0,A
285,0.49826,1.2,2,0.44013,0.32387,0.39861,285,1.89339,-0.534,-0.26574,0.23252,5,2U1D,1.0,True,0.039,35,True,left,-0.08304,999,999,0,999,999,0,A
286,0.49826,0.1,1,0.23252,0.35709,0.71417,286,2.03456,-0.534,-0.26574,0.23252,5,2U1D,1.0,False,0.044,35,True,left,0.16609,999,999,0,999,999,0,A
287,0.49826,0.1,2,0.44013,0.43183,0.68926,287,2.27539,-0.57,-0.28235,0.21591,5,2U1D,2.0,False,0.034,36,True,right,-0.08304,999,999,0,999,999,0,A
288,0.49826,1.2,2,0.1993,0.24083,0.78891,288,3.42969,2.41,1.20413,1.70239,5,2D1U,1.0,False,0.037,23,True,left,0.16609,999,999,0,999,999,0,A
289,0.49826,1.2,1,0.39861,0.20761,0.70587,289,2.02626,-0.57,-0.28235,0.21591,5,2U1D,1.0,False,0.043,36,False,left,-0.08304,999,999,0,999,999,0,A
290,0.49826,0.1,1,0.29065,0.28235,0.56469,290,3.35495,2.446,1.22074,1.719,5,2D1U,2.0,False,0.042,23,False,right,0.16609,999,999,0,999,999,0,A
291,0.49826,0.1,1,0.27404,0.26574,0.50656,291,3.28851,2.482,1.23735,1.74391,5,2D1U,1.0,True,0.045,23,False,left,-0.08304,999,999,0,999,999,0,A
292,0.49826,1.2,1,0.24913,0.3903,0.59791,292,1.95151,-0.57,-0.28235,0.21591,5,2U1D,1.0,False,0.045,36,False,left,0.16609,999,999,0,999,999,0,A
293,0.49826,1.2,1,0.25743,0.35709,0.573,293,1.90169,-0.57,-0.28235,0.21591,5,2U1D,1.0,False,0.046,36,False,left,-0.08304,999,999,0,999,999,0,A
294,0.49826,0.1,2,0.37369,0.24083,0.82213,294,3.67882,2.482,1.23735,1.74391,5,2D1U,2.0,True,0.033,23,False,right,0.16609,999,999,0,999,999,0,A
295,0.49826,0.1,1,0.29065,0.41522,0.53148,295,1.95152,-0.57,-0.28235,0.21591,5,2U1D,2.0,True,0.041,36,False,right,-0.08304,999,999,0,999,999,0,A
296,0.49826,1.2,1,0.382,0.43183,0.39861,296,3.4297,2.446,1.22074,1.719,5,2D1U,1.0,True,0.044,24,True,left,0.16609,999,999,0,999,999,0,A
297,0.49826,1.2,2,0.33217,0.24083,0.47335,297,3.26361,2.446,1.22074,1.719,5,2D1U,2.0,True,0.044,24,True,right,-0.08304,999,999,0,999,999,0,A
298,0.49826,0.1,1,0.26574,0.44013,0.55639,298,1.97643,-0.57,-0.28235,0.21591,5,2U1D,2.0,True,0.036,36,False,right,0.16609,999,999,0,999,999,0,A
299,0.49826,0.1,2,0.34878,0.39861,0.83043,299,2.3086,-0.534,-0.26574,0.23252,5,2U1D,1.0,True,0.041,37,True,left,-0.08304,999,999,0,999,999,0,A
300,0.49826,1.2,1,0.24083,0.34878,0.47335,300,1.79374,-0.534,-0.26574,0.23252,5,2U1D,1.0,False,0.041,37,True,left,0.16609,999,999,0,999,999,0,A
301,0.49826,1.2,2,0.41522,0.23252,0.48165,301,3.33004,2.41,1.20413,1.70239,5,2D1U,1.0,False,0.04,24,False,left,-0.08304,999,999,0,999,999,0,A
302,0.49826,0.1,1,0.33217,0.23252,0.63113,302,1.90999,-0.57,-0.28235,0.21591,5,2U1D,1.0,False,0.047,38,True,left,0.16609,999,999,0,999,999,0,A
303,0.49826,0.1,2,0.37369,0.37369,0.86365,303,2.3252,-0.57,-0.28235,0.21591,5,2U1D,2.0,False,0.035,38,False,right,-0.08304,999,999,0,999,999,0,A
304,0.49826,1.2,2,0.382,0.40691,0.49826,304,3.50443,2.446,1.22074,1.719,5,2D1U,2.0,True,0.037,25,True,right,0.16609,999,999,0,999,999,0,A
305,0.49826,1.2,2,0.37369,0.23252,0.41522,305,3.23869,2.446,1.22074,1.719,5,2D1U,2.0,True,0.036,25,True,right,-0.08304,999,999,0,999,999,0,A
306,0.49826,0.1,1,0.42352,0.22422,0.88856,306,2.25047,-0.57,-0.28235,0.21591,5,2U1D,2.0,True,0.042,38,False,right,0.16609,999,999,0,999,999,0,A
307,0.49826,0.1,2,0.3903,0.1993,0.58961,307,1.89338,-0.57,-0.28235,0.21591,5,2U1D,2.0,False,0.041,38,False,right,-0.08304,999,999,0,999,999,0,A
308,0.49826,1.2,1,0.35709,0.35709,0.48165,308,1.91,-0.57,-0.28235,0.21591,5,2U1D,1.0,False,0.046,38,False,left,0.16609,999,999,0,999,999,0,A
309,0.49826,1.2,1,0.29065,0.31556,0.56469,309,3.37155,2.41,1.20413,1.70239,5,2D1U,2.0,False,0.045,26,True,right,-0.08304,999,999,0,999,999,0,A
310,0.49826,0.1,1,0.24083,0.32387,0.63113,310,3.41309,2.446,1.22074,1.719,5,2D1U,2.0,False,0.044,27,True,right,0.16609,999,999,0,999,999,0,A
311,0.49826,0.1,2,0.20761,0.30726,0.764,311,1.99304,-0.57,-0.28235,0.21591,5,2U1D,1.0,True,0.049,38,False,left,-0.08304,999,999,0,999,999,0,A
312,0.49826,1.2,2,0.33217,0.40691,0.43183,312,3.41308,2.482,1.23735,1.74391,5,2D1U,2.0,True,0.048,27,False,right,0.16609,999,999,0,999,999,0,A
313,0.49826,1.2,1,0.27404,0.3903,0.55639,313,3.4629,2.482,1.23735,1.74391,5,2D1U,2.0,False,0.048,27,False,right,-0.08304,999,999,0,999,999,0,A
314,0.49826,0.1,1,0.20761,0.20761,0.68926,314,1.81865,-0.57,-0.28235,0.21591,5,2U1D,2.0,True,0.035,38,False,right,0.16609,999,999,0,999,999,0,A
315,0.49826,0.1,1,0.23252,0.40691,0.68926,315,2.05947,-0.534,-0.26574,0.23252,5,2U1D,2.0,True,0.042,39,True,right,-0.08304,999,999,0,999,999,0,A
316,0.49826,1.2,2,0.29896,0.33217,0.74739,316,3.6373,2.518,1.26226,1.76052,5,2D1U,2.0,True,0.042,27,False,right,0.16609,999,999,0,999,999,0,A
317,0.49826,1.2,1,0.3903,0.26574,0.79722,317,2.18404,-0.534,-0.26574,0.23252,5,2U1D,2.0,True,0.046,39,True,right,-0.08304,999,999,0,999,999,0,A
318,0.49826,0.1,2,0.24083,0.20761,0.68926,318,1.88509,-0.498,-0.24913,0.24913,5,2U1D,1.0,True,0.036,39,False,left,0.16609,999,999,0,999,999,0,A
319,0.49826,0.1,1,0.35709,0.33217,0.88026,319,3.8283,2.518,1.26226,1.76052,5,2D1U,1.0,True,0.045,27,False,left,-0.08304,999,999,0,999,999,0,A
320,0.49826,1.2,1,0.31556,0.28235,0.55639,320,1.90169,-0.498,-0.24913,0.24913,5,2U1D,2.0,True,0.047,39,False,right,0.16609,999,999,0,999,999,0,A
321,0.49826,1.2,2,0.28235,0.33217,0.62282,321,3.47951,2.482,1.23735,1.74391,5,2D1U,2.0,True,0.047,28,True,right,-0.08304,999,999,0,999,999,0,A
322,0.49826,0.1,2,0.29065,0.382,0.47335,322,1.91,-0.462,-0.23252,0.26574,5,2U1D,2.0,False,0.041,39,False,right,0.16609,999,999,0,999,999,0,A
323,0.49826,0.1,1,0.23252,0.30726,0.63113,323,1.9183,-0.498,-0.24913,0.24913,5,2U1D,2.0,True,0.044,40,True,right,-0.08304,999,999,0,999,999,0,A
324,0.49826,1.2,1,0.24913,0.34878,0.41522,324,1.76052,-0.498,-0.24913,0.24913,5,2U1D,2.0,True,0.043,40,True,right,0.16609,999,999,0,999,999,0,A
325,0.49826,1.2,1,0.31556,0.23252,0.82213,325,3.61238,2.482,1.23735,1.74391,5,2D1U,1.0,True,0.038,28,True,left,-0.08304,999,999,0,999,999,0,A
326,0.49826,0.1,2,0.24083,0.26574,0.71417,326,3.438,2.446,1.22074,1.719,5,2D1U,1.0,False,0.042,28,False,left,0.16609,999,999,0,999,999,0,A
327,0.49826,0.1,2,0.41522,0.25743,0.44843,327,1.88508,-0.462,-0.23252,0.26574,5,2U1D,1.0,True,0.04,41,True,left,-0.08304,999,999,0,999,999,0,A
328,0.49826,1.2,1,0.44013,0.20761,0.68926,328,3.57917,2.482,1.23735,1.74391,5,2D1U,2.0,False,0.036,29,True,right,0.16609,999,999,0,999,999,0,A
329,0.49826,1.2,1,0.36539,0.29896,0.67265,329,3.59578,2.518,1.26226,1.76052,5,2D1U,1.0,True,0.035,29,False,left,-0.08304,999,999,0,999,999,0,A
330,0.49826,0.1,2,0.25743,0.27404,0.64774,330,1.94321,-0.462,-0.23252,0.26574,5,2U1D,1.0,True,0.039,41,True,left,0.16609,999,999,0,999,999,0,A
331,0.49826,0.1,2,0.1993,0.24083,0.44843,331,3.14734,2.518,1.26226,1.76052,5,2D1U,2.0,True,0.037,29,False,right,-0.08304,999,999,0,999,999,0,A
332,0.49826,1.2,1,0.24913,0.26574,0.88026,332,3.6373,2.482,1.23735,1.74391,5,2D1U,1.0,True,0.042,30,True,left,0.16609,999,999,0,999,999,0,A
333,0.49826,1.2,1,0.40691,0.29065,0.70587,333,2.19234,-0.426,-0.21591,0.29065,5,2U1D,1.0,False,0.05,41,False,left,-0.08304,999,999,0,999,999,0,A
334,0.49826,0.1,2,0.24083,0.29065,0.54809,334,3.32174,2.482,1.23735,1.74391,5,2D1U,2.0,True,0.048,30,True,right,0.16609,999,999,0,999,999,0,A
335,0.49826,0.1,2,0.33217,0.35709,0.69756,335,2.15082,-0.462,-0.23252,0.26574,5,2U1D,1.0,True,0.037,42,True,left,-0.08304,999,999,0,999,999,0,A
336,0.49826,1.2,2,0.25743,0.32387,0.48996,336,3.28852,2.446,1.22074,1.719,5,2D1U,2.0,True,0.037,30,False,right,0.16609,999,999,0,999,999,0,A
337,0.49826,1.2,1,0.43183,0.33217,0.78061,337,2.30861,-0.462,-0.23252,0.26574,5,2U1D,2.0,True,0.037,42,True,right,-0.08304,999,999,0,999,999,0,A
338,0.49826,0.1,2,0.3903,0.25743,0.81382,338,3.67881,2.446,1.22074,1.719,5,2D1U,1.0,False,0.043,30,False,left,0.16609,999,999,0,999,999,0,A
339,0.49826,0.1,2,0.29896,0.37369,0.53978,339,2.00134,-0.426,-0.21591,0.29065,5,2U1D,2.0,False,0.038,43,True,right,-0.08304,999,999,0,999,999,0,A
340,0.49826,1.2,1,0.25743,0.28235,0.84704,340,3.62899,2.482,1.23735,1.74391,5,2D1U,2.0,False,0.039,31,True,right,0.16609,999,999,0,999,999,0,A
341,0.49826,1.2,1,0.35709,0.25743,0.72248,341,3.59578,2.518,1.26226,1.76052,5,2D1U,2.0,False,0.04,31,False,right,-0.08304,999,999,0,999,999,0,A
342,0.49826,0.1,2,0.33217,0.43183,0.84704,342,2.37504,-0.462,-0.23252,0.26574,5,2U1D,2.0,False,0.038,44,True,right,0.16609,999,999,0,999,999,0,A
343,0.49826,0.1,1,0.41522,0.34048,0.63943,343,3.67052,2.554,1.27887,1.77713,5,2D1U,2.0,False,0.042,31,False,right,-0.08304,999,999,0,999,999,0,A
344,0.49826,1.2,2,0.24083,0.382,0.63943,344,2.00965,-0.498,-0.24913,0.24913,5,2U1D,1.0,True,0.043,44,False,left,0.16609,999,999,0,999,999,0,A
345,0.49826,1.2,1,0.42352,0.25743,0.78891,345,3.76186,2.59,1.29548,1.79374,5,2D1U,1.0,True,0.046,31,False,left,-0.08304,999,999,0,999,999,0,A
346,0.49826,0.1,2,0.23252,0.29896,0.61452,346,3.438,2.59,1.29548,1.79374,5,2D1U,2.0,True,0.04,31,False,right,0.16609,999,999,0,999,999,0,A
347,0.49826,0.1,2,0.27404,0.40691,0.72248,347,2.15082,-0.498,-0.24913,0.24913,5,2U1D,1.0,True,0.044,44,False,left,-0.08304,999,999,0,999,999,0,A
348,0.49826,1.2,1,0.382,0.382,0.74739,348,3.78678,2.554,1.27887,1.77713,5,2D1U,1.0,True,0.039,32,True,left,0.16609,999,999,0,999,999,0,A
349,0.49826,1.2,1,0.42352,0.33217,0.63113,349,3.66221,2.554,1.27887,1.77713,5,2D1U,2.0,False,0.04,32,True,right,-0.08304,999,999,0,999,999,0,A
350,0.49826,0.1,1,0.3903,0.24913,0.52317,350,1.9266,-0.462,-0.23252,0.26574,5,2U1D,1.0,False,0.038,45,True,left,0.16609,999,999,0,999,999,0,A
351,0.49826,0.1,1,0.1993,0.43183,0.81382,351,3.73695,2.59,1.29548,1.79374,5,2D1U,2.0,False,0.04,33,True,right,-0.08304,999,999,0,999,999,0,A
352,0.49826,1.2,1,0.44013,0.32387,0.49826,352,3.57086,2.626,1.31208,1.81034,5,2D1U,2.0,False,0.038,33,False,right,0.16609,999,999,0,999,999,0,A
353,0.49826,1.2,2,0.37369,0.382,0.73909,353,2.24217,-0.498,-0.24913,0.24913,5,2U1D,1.0,True,0.043,46,True,left,-0.08304,999,999,0,999,999,0,A
354,0.49826,0.1,2,0.20761,0.42352,0.764,354,3.72034,2.662,1.32869,1.82695,5,2D1U,2.0,True,0.042,33,False,right,0.16609,999,999,0,999,999,0,A
355,0.49826,0.1,2,0.29065,0.24913,0.65604,355,3.52103,2.662,1.32869,1.82695,5,2D1U,1.0,False,0.045,33,False,left,-0.08304,999,999,0,999,999,0,A
356,0.49826,1.2,2,0.32387,0.3903,0.61452,356,2.07608,-0.498,-0.24913,0.24913,5,2U1D,1.0,True,0.039,46,True,left,0.16609,999,999,0,999,999,0,A
357,0.49826,1.2,2,0.20761,0.3903,0.42352,357,1.78543,-0.462,-0.23252,0.26574,5,2U1D,1.0,True,0.046,47,True,left,-0.08304,999,999,0,999,999,0,A
358,0.49826,0.1,1,0.42352,0.382,0.54809,358,3.70374,2.698,1.3453,1.85187,5,2D1U,2.0,False,0.042,33,False,right,0.16609,999,999,0,999,999,0,A
359,0.49826,0.1,1,0.35709,0.34878,0.85535,359,3.92795,2.734,1.37021,1.86847,5,2D1U,1.0,True,0.039,33,False,left,-0.08304,999,999,0,999,999,0,A
360,0.49826,1.2,1,0.29065,0.23252,0.78061,360,2.06778,-0.462,-0.23252,0.26574,5,2U1D,1.0,False,0.04,47,True,left,0.16609,999,999,0,999,999,0,A
361,0.49826,1.2,2,0.42352,0.1993,0.47335,361,3.4629,2.734,1.37021,1.86847,5,2D1U,1.0,False,0.044,33,False,left,-0.08304,999,999,0,999,999,0,A
362,0.49826,0.1,2,0.43183,0.37369,0.49826,362,3.68712,2.77,1.38682,1.88508,5,2D1U,1.0,False,0.042,33,False,left,0.16609,999,999,0,999,999,0,A
363,0.49826,0.1,2,0.41522,0.31556,0.67265,363,2.15082,-0.498,-0.24913,0.24913,5,2U1D,2.0,False,0.041,48,True,right,-0.08304,999,999,0,999,999,0,A
364,0.49826,1.2,2,0.44013,0.28235,0.78891,364,2.24217,-0.534,-0.26574,0.23252,5,2U1D,2.0,False,0.041,48,False,right,0.16609,999,999,0,999,999,0,A
365,0.49826,1.2,1,0.29065,0.39861,0.70587,365,2.1093,-0.57,-0.28235,0.21591,5,2U1D,1.0,False,0.039,48,False,left,-0.08304,999,999,0,999,999,0,A
366,0.49826,0.1,1,0.34048,0.44013,0.61452,366,3.79508,2.806,1.40343,1.90169,5,2D1U,1.0,True,0.044,33,False,left,0.16609,999,999,0,999,999,0,A
367,0.49826,0.1,1,0.33217,0.27404,0.73078,367,3.73694,2.806,1.40343,1.90169,5,2D1U,1.0,True,0.042,33,False,left,-0.08304,999,999,0,999,999,0,A
368,0.49826,1.2,1,0.44843,0.36539,0.62282,368,3.81998,2.77,1.38682,1.88508,5,2D1U,2.0,False,0.043,34,True,right,0.16609,999,999,0,999,999,0,A
369,0.49826,1.2,2,0.29065,0.382,0.88026,369,2.26708,-0.57,-0.28235,0.21591,5,2U1D,2.0,False,0.042,48,False,right,-0.08304,999,999,0,999,999,0,A
370,0.49826,0.1,2,0.29896,0.34878,0.74739,370,3.79508,2.806,1.40343,1.90169,5,2D1U,2.0,True,0.04,35,True,right,0.16609,999,999,0,999,999,0,A
371,0.49826,0.1,2,0.26574,0.22422,0.68096,371,1.88509,-0.57,-0.28235,0.21591,5,2U1D,2.0,False,0.043,48,False,right,-0.08304,999,999,0,999,999,0,A
372,0.49826,1.2,1,0.33217,0.44013,0.89687,372,4.06912,2.806,1.40343,1.90169,5,2D1U,2.0,False,0.043,35,True,right,0.16609,999,999,0,999,999,0,A
373,0.49826,1.2,1,0.44013,0.34878,0.88856,373,4.09403,2.842,1.42004,1.9183,5,2D1U,2.0,False,0.041,35,False,right,-0.08304,999,999,0,999,999,0,A
374,0.49826,0.1,1,0.30726,0.42352,0.44013,374,1.88508,-0.57,-0.28235,0.21591,5,2U1D,2.0,True,0.041,48,False,right,0.16609,999,999,0,999,999,0,A
375,0.49826,0.1,1,0.29896,0.25743,0.78891,375,3.77847,2.878,1.43665,1.93491,5,2D1U,1.0,True,0.052,35,False,left,-0.08304,999,999,0,999,999,0,A
376,0.49826,1.2,1,0.34878,0.40691,0.79722,376,2.26708,-0.57,-0.28235,0.21591,5,2U1D,1.0,False,0.04,48,False,left,0.16609,999,999,0,999,999,0,A
377,0.49826,1.2,2,0.31556,0.23252,0.73078,377,3.71203,2.878,1.43665,1.93491,5,2D1U,2.0,True,0.044,35,False,right,-0.08304,999,999,0,999,999,0,A
378,0.49826,0.1,2,0.37369,0.382,0.88026,378,2.35012,-0.57,-0.28235,0.21591,5,2U1D,2.0,False,0.048,48,False,right,0.16609,999,999,0,999,999,0,A
379,0.49826,0.1,1,0.3903,0.26574,0.74739,379,3.81999,2.842,1.42004,1.9183,5,2D1U,2.0,False,0.05,36,True,right,-0.08304,999,999,0,999,999,0,A
380,0.49826,1.2,2,0.37369,0.24083,0.81382,380,3.86151,2.878,1.43665,1.93491,5,2D1U,1.0,False,0.05,37,True,left,0.16609,999,999,0,999,999,0,A
381,0.49826,1.2,2,0.20761,0.33217,0.42352,381,1.67747,-0.57,-0.28235,0.21591,5,2U1D,1.0,True,0.05,48,False,left,-0.08304,999,999,0,999,999,0,A
382,0.49826,0.1,1,0.22422,0.25743,0.63943,382,3.57916,2.914,1.45326,1.95982,5,2D1U,1.0,True,0.053,37,False,left,0.16609,999,999,0,999,999,0,A
383,0.49826,0.1,1,0.27404,0.40691,0.44013,383,3.57916,2.914,1.45326,1.95982,5,2D1U,1.0,True,0.058,37,False,left,-0.08304,999,999,0,999,999,0,A
384,0.49826,1.2,2,0.26574,0.21591,0.764,384,1.95982,-0.57,-0.28235,0.21591,5,2U1D,1.0,True,0.057,48,False,left,0.16609,999,999,0,999,999,0,A
385,0.49826,1.2,2,0.43183,0.24083,0.45674,385,1.86018,-0.534,-0.26574,0.23252,5,2U1D,1.0,True,0.041,49,True,left,-0.08304,999,999,0,999,999,0,A
386,0.49826,0.1,2,0.22422,0.43183,0.53148,386,3.6207,2.878,1.43665,1.93491,5,2D1U,1.0,False,0.042,38,True,left,0.16609,999,999,0,999,999,0,A
387,0.49826,0.1,1,0.35709,0.39861,0.49826,387,3.71204,2.914,1.45326,1.95982,5,2D1U,2.0,False,0.046,39,True,right,-0.08304,999,999,0,999,999,0,A
388,0.49826,1.2,2,0.44013,0.22422,0.63943,388,2.03456,-0.534,-0.26574,0.23252,5,2U1D,2.0,False,0.048,49,True,right,0.16609,999,999,0,999,999,0,A
389,0.49826,1.2,2,0.33217,0.24913,0.73078,389,3.78677,2.95,1.47817,1.97643,5,2D1U,2.0,True,0.053,39,False,right,-0.08304,999,999,0,999,999,0,A
390,0.49826,0.1,1,0.39861,0.29896,0.67265,390,2.08439,-0.57,-0.28235,0.21591,5,2U1D,2.0,True,0.056,50,True,right,0.16609,999,999,0,999,999,0,A
391,0.49826,0.1,1,0.25743,0.40691,0.61452,391,1.99303,-0.57,-0.28235,0.21591,5,2U1D,1.0,False,0.057,50,True,left,-0.08304,999,999,0,999,999,0,A
392,0.49826,1.2,1,0.42352,0.34878,0.88026,392,2.36673,-0.57,-0.28235,0.21591,5,2U1D,1.0,False,0.044,50,False,left,0.16609,999,999,0,999,999,0,A
393,0.49826,1.2,2,0.41522,0.39861,0.75569,393,4.04421,2.95,1.47817,1.97643,5,2D1U,1.0,False,0.047,39,False,left,-0.08304,999,999,0,999,999,0,A
394,0.49826,0.1,2,0.21591,0.24083,0.51487,394,3.46291,2.986,1.49478,1.99304,5,2D1U,2.0,True,0.05,39,False,right,0.16609,999,999,0,999,999,0,A
395,0.49826,0.1,2,0.27404,0.40691,0.53148,395,3.70373,2.986,1.49478,1.99304,5,2D1U,1.0,False,0.041,39,False,left,-0.08304,999,999,0,999,999,0,A
396,0.49826,1.2,1,0.39861,0.382,0.75569,396,4.04421,3.022,1.51139,2.00965,5,2D1U,2.0,False,0.046,39,False,right,0.16609,999,999,0,999,999,0,A
397,0.49826,1.2,1,0.27404,0.39861,0.40691,397,1.79373,-0.57,-0.28235,0.21591,5,2U1D,1.0,False,0.046,50,False,left,-0.08304,999,999,0,999,999,0,A
398,0.49826,0.1,2,0.37369,0.28235,0.63113,398,2.00134,-0.57,-0.28235,0.21591,5,2U1D,1.0,True,0.042,50,False,left,0.16609,999,999,0,999,999,0,A
399,0.49826,0.1,1,0.31556,0.24083,0.68096,399,3.76187,3.058,1.528,2.02626,5,2D1U,2.0,False,0.043,39,False,right,-0.08304,999,999,0,999,999,0,A
400,0.49826,1.2,2,0.26574,0.1993,0.46504,400,3.47121,3.094,1.54461,2.04287,5,2D1U,1.0,False,0.047,39,False,left,0.16609,999,999,0,999,999,0,A
401,0.49826,1.2,1,0.34048,0.39861,0.81382,401,4.11895,3.13,1.56121,2.06778,5,2D1U,2.0,False,0.046,39,False,right,-0.08304,999,999,0,999,999,0,A
402,0.49826,0.1,2,0.44013,0.36539,0.44013,402,1.95982,-0.57,-0.28235,0.21591,5,2U1D,1.0,True,0.047,50,False,left,0.16609,999,999,0,999,999,0,A
403,0.49826,0.1,2,0.27404,0.43183,0.42352,403,1.86017,-0.534,-0.26574,0.23252,5,2U1D,2.0,False,0.044,51,True,right,-0.08304,999,999,0,999,999,0,A
404,0.49826,1.2,1,0.3903,0.37369,0.41522,404,3.76186,3.166,1.58613,2.08439,5,2D1U,1.0,True,0.044,39,False,left,0.16609,999,999,0,999,999,0,A
405,0.49826,1.2,2,0.44013,0.20761,0.7723,405,2.13421,-0.57,-0.28235,0.21591,5,2U1D,2.0,False,0.046,52,True,right,-0.08304,999,999,0,999,999,0,A
406,0.49826,0.1,1,0.43183,0.30726,0.51487,406,3.83661,3.166,1.58613,2.08439,5,2D1U,1.0,True,0.043,39,False,left,0.16609,999,999,0,999,999,0,A
407,0.49826,0.1,1,0.24083,0.27404,0.48165,407,3.56256,3.13,1.56121,2.06778,5,2D1U,1.0,True,0.049,40,True,left,-0.08304,999,999,0,999,999,0,A
408,0.49826,1.2,2,0.26574,0.25743,0.58961,408,1.82695,-0.57,-0.28235,0.21591,5,2U1D,2.0,False,0.048,52,False,right,0.16609,999,999,0,999,999,0,A
409,0.49826,1.2,1,0.24083,0.34878,0.62282,409,3.77847,3.13,1.56121,2.06778,5,2D1U,2.0,False,0.052,40,True,right,-0.08304,999,999,0,999,999,0,A
410,0.49826,0.1,2,0.28235,0.26574,0.53148,410,1.79374,-0.57,-0.28235,0.21591,5,2U1D,1.0,True,0.045,52,False,left,0.16609,999,999,0,999,999,0,A
411,0.49826,0.1,2,0.382,0.29065,0.86365,411,4.11895,3.166,1.58613,2.08439,5,2D1U,2.0,True,0.049,41,True,right,-0.08304,999,999,0,999,999,0,A
412,0.49826,1.2,1,0.27404,0.34048,0.68926,412,2.01795,-0.57,-0.28235,0.21591,5,2U1D,2.0,True,0.043,52,False,right,0.16609,999,999,0,999,999,0,A
413,0.49826,1.2,2,0.31556,0.3903,0.67265,413,3.96116,3.166,1.58613,2.08439,5,2D1U,2.0,True,0.048,41,True,right,-0.08304,999,999,0,999,999,0,A
414,0.49826,0.1,1,0.34048,0.34048,0.71417,414,2.12591,-0.534,-0.26574,0.23252,5,2U1D,1.0,False,0.053,53,True,left,0.16609,999,999,0,999,999,0,A
415,0.49826,0.1,2,0.24913,0.44013,0.7723,415,4.0276,3.13,1.56121,2.06778,5,2D1U,2.0,True,0.054,42,True,right,-0.08304,999,999,0,999,999,0,A
416,0.49826,1.2,2,0.27404,0.25743,0.60622,416,3.70373,3.13,1.56121,2.06778,5,2D1U,2.0,True,0.055,42,True,right,0.16609,999,999,0,999,999,0,A
417,0.49826,1.2,2,0.42352,0.39861,0.65604,417,2.19234,-0.57,-0.28235,0.21591,5,2U1D,2.0,False,0.045,54,True,right,-0.08304,999,999,0,999,999,0,A
418,0.49826,0.1,1,0.42352,0.29896,0.54809,418,1.98474,-0.57,-0.28235,0.21591,5,2U1D,2.0,True,0.044,54,False,right,0.16609,999,999,0,999,999,0,A
419,0.49826,0.1,2,0.44013,0.33217,0.69756,419,4.01099,3.094,1.54461,2.04287,5,2D1U,2.0,True,0.054,42,False,right,-0.08304,999,999,0,999,999,0,A
420,0.49826,1.2,2,0.43183,0.382,0.60622,420,2.13422,-0.57,-0.28235,0.21591,5,2U1D,1.0,True,0.054,54,False,left,0.16609,999,999,0,999,999,0,A
421,0.49826,1.2,1,0.28235,0.32387,0.86365,421,2.20065,-0.534,-0.26574,0.23252,5,2U1D,1.0,False,0.046,55,True,left,-0.08304,999,999,0,999,999,0,A
422,0.49826,0.1,1,0.24913,0.35709,0.73909,422,2.05948,-0.57,-0.28235,0.21591,5,2U1D,1.0,False,0.045,56,True,left,0.16609,999,999,0,999,999,0,A
423,0.49826,0.1,1,0.33217,0.21591,0.40691,423,3.49612,3.094,1.54461,2.04287,5,2D1U,1.0,True,0.045,42,False,left,-0.08304,999,999,0,999,999,0,A
424,0.49826,1.2,1,0.28235,0.39861,0.58961,424,1.98474,-0.57,-0.28235,0.21591,5,2U1D,1.0,False,0.044,56,False,left,0.16609,999,999,0,999,999,0,A
425,0.49826,1.2,2,0.30726,0.3903,0.69756,425,2.10929,-0.57,-0.28235,0.21591,5,2U1D,1.0,True,0.05,56,False,left,-0.08304,999,999,0,999,999,0,A
426,0.49826,0.1,1,0.21591,0.20761,0.5813,426,3.52934,3.058,1.528,2.02626,5,2D1U,2.0,False,0.053,42,False,right,0.16609,999,999,0,999,999,0,A
427,0.49826,0.1,1,0.24083,0.33217,0.764,427,3.87813,3.094,1.54461,2.04287,5,2D1U,2.0,False,0.046,43,True,right,-0.08304,999,999,0,999,999,0,A
428,0.49826,1.2,2,0.3903,0.30726,0.59791,428,3.86151,3.13,1.56121,2.06778,5,2D1U,2.0,True,0.053,43,False,right,0.16609,999,999,0,999,999,0,A
429,0.49826,1.2,2,0.27404,0.40691,0.68926,429,2.08438,-0.57,-0.28235,0.21591,5,2U1D,1.0,True,0.045,56,False,left,-0.08304,999,999,0,999,999,0,A
430,0.49826,0.1,1,0.40691,0.44013,0.42352,430,2.00134,-0.534,-0.26574,0.23252,5,2U1D,1.0,False,0.047,57,True,left,0.16609,999,999,0,999,999,0,A
431,0.49826,0.1,1,0.25743,0.3903,0.48996,431,3.70373,3.13,1.56121,2.06778,5,2D1U,2.0,False,0.046,43,False,right,-0.08304,999,999,0,999,999,0,A
432,0.49826,1.2,2,0.44843,0.29065,0.83043,432,4.15216,3.166,1.58613,2.08439,5,2D1U,2.0,True,0.049,43,False,right,0.16609,999,999,0,999,999,0,A
433,0.49826,1.2,1,0.39861,0.31556,0.40691,433,1.83525,-0.57,-0.28235,0.21591,5,2U1D,1.0,False,0.049,58,True,left,-0.08304,999,999,0,999,999,0,A
434,0.49826,0.1,2,0.23252,0.3903,0.80552,434,2.14251,-0.57,-0.28235,0.21591,5,2U1D,1.0,True,0.044,58,False,left,0.16609,999,999,0,999,999,0,A
435,0.49826,0.1,2,0.43183,0.42352,0.50656,435,2.07608,-0.57,-0.28235,0.21591,5,2U1D,1.0,True,0.055,58,False,left,-0.08304,999,999,0,999,999,0,A
436,0.49826,1.2,1,0.32387,0.24913,0.87195,436,4.0276,3.166,1.58613,2.08439,5,2D1U,2.0,False,0.046,43,False,right,0.16609,999,999,0,999,999,0,A
437,0.49826,1.2,2,0.25743,0.35709,0.85535,437,4.06913,3.202,1.60274,2.101,5,2D1U,2.0,True,0.055,43,False,right,-0.08304,999,999,0,999,999,0,A
438,0.49826,0.1,1,0.39861,0.43183,0.63113,438,2.19235,-0.534,-0.26574,0.23252,5,2U1D,2.0,True,0.056,59,True,right,0.16609,999,999,0,999,999,0,A
439,0.49826,0.1,2,0.30726,0.44013,0.764,439,4.11065,3.202,1.60274,2.101,5,2D1U,2.0,True,0.065,43,False,right,-0.08304,999,999,0,999,999,0,A
440,0.49826,1.2,1,0.37369,0.27404,0.67265,440,2.05116,-0.534,-0.26574,0.23252,5,2U1D,2.0,True,0.065,59,True,right,0.16609,999,999,0,999,999,0,A
441,0.49826,1.2,1,0.35709,0.27404,0.65604,441,3.86982,3.166,1.58613,2.08439,5,2D1U,1.0,True,0.066,44,True,left,-0.08304,999,999,0,999,999,0,A
442,0.49826,0.1,2,0.21591,0.1993,0.51487,442,3.51273,3.166,1.58613,2.08439,5,2D1U,1.0,False,0.048,44,True,left,0.16609,999,999,0,999,999,0,A
443,0.49826,0.1,2,0.34048,0.26574,0.62282,443,1.97643,-0.498,-0.24913,0.24913,5,2U1D,2.0,False,0.05,59,False,right,-0.08304,999,999,0,999,999,0,A
444,0.49826,1.2,2,0.36539,0.24083,0.764,444,2.101,-0.534,-0.26574,0.23252,5,2U1D,1.0,True,0.051,60,True,left,0.16609,999,999,0,999,999,0,A
445,0.49826,1.2,2,0.25743,0.37369,0.64774,445,3.87812,3.202,1.60274,2.101,5,2D1U,1.0,False,0.047,45,True,left,-0.08304,999,999,0,999,999,0,A
446,0.49826,0.1,1,0.44843,0.3903,0.69756,446,2.26707,-0.534,-0.26574,0.23252,5,2U1D,1.0,False,0.047,60,True,left,0.16609,999,999,0,999,999,0,A
447,0.49826,0.1,1,0.31556,0.33217,0.85535,447,4.11894,3.238,1.61934,2.1176,5,2D1U,2.0,False,0.046,45,False,right,-0.08304,999,999,0,999,999,0,A
448,0.49826,1.2,2,0.42352,0.41522,0.62282,448,4.09403,3.274,1.63595,2.13421,5,2D1U,2.0,True,0.047,45,False,right,0.16609,999,999,0,999,999,0,A
449,0.49826,1.2,2,0.29896,0.29065,0.74739,449,3.96947,3.274,1.63595,2.13421,5,2D1U,2.0,True,0.047,45,False,right,-0.08304,999,999,0,999,999,0,A
450,0.49826,0.1,2,0.24913,0.30726,0.51487,450,3.68712,3.238,1.61934,2.1176,5,2D1U,2.0,True,0.054,46,True,right,0.16609,999,999,0,999,999,0,A
451,0.49826,0.1,2,0.35709,0.382,0.53148,451,1.98474,-0.57,-0.28235,0.21591,5,2U1D,1.0,True,0.049,60,False,left,-0.08304,999,999,0,999,999,0,A
452,0.49826,1.2,1,0.32387,0.34878,0.75569,452,4.0442,3.238,1.61934,2.1176,5,2D1U,1.0,True,0.05,46,True,left,0.16609,999,999,0,999,999,0,A
453,0.49826,1.2,2,0.37369,0.28235,0.44013,453,1.81034,-0.57,-0.28235,0.21591,5,2U1D,1.0,True,0.054,60,False,left,-0.08304,999,999,0,999,999,0,A
454,0.49826,0.1,1,0.28235,0.37369,0.43183,454,1.81865,-0.534,-0.26574,0.23252,5,2U1D,2.0,True,0.048,61,True,right,0.16609,999,999,0,999,999,0,A
455,0.49826,0.1,1,0.31556,0.31556,0.58961,455,3.81999,3.202,1.60274,2.101,5,2D1U,1.0,True,0.059,46,False,left,-0.08304,999,999,0,999,999,0,A
456,0.49826,1.2,1,0.43183,0.40691,0.71417,456,4.15217,3.202,1.60274,2.101,5,2D1U,2.0,False,0.049,46,False,right,0.16609,999,999,0,999,999,0,A
457,0.49826,1.2,2,0.29896,0.3903,0.88026,457,2.3003,-0.534,-0.26574,0.23252,5,2U1D,1.0,True,0.055,61,True,left,-0.08304,999,999,0,999,999,0,A
458,0.49826,0.1,1,0.3903,0.34878,0.5813,458,2.06777,-0.498,-0.24913,0.24913,5,2U1D,1.0,False,0.059,61,False,left,0.16609,999,999,0,999,999,0,A
459,0.49826,0.1,1,0.31556,0.23252,0.573,459,3.73694,3.238,1.61934,2.1176,5,2D1U,2.0,False,0.046,47,True,right,-0.08304,999,999,0,999,999,0,A
460,0.49826,1.2,2,0.21591,0.43183,0.44013,460,1.81865,-0.534,-0.26574,0.23252,5,2U1D,2.0,False,0.049,62,True,right,0.16609,999,999,0,999,999,0,A
461,0.49826,1.2,2,0.29065,0.26574,0.44843,461,3.63729,3.274,1.63595,2.13421,5,2D1U,2.0,True,0.051,47,False,right,-0.08304,999,999,0,999,999,0,A
462,0.49826,0.1,1,0.35709,0.44013,0.45674,462,1.96813,-0.57,-0.28235,0.21591,5,2U1D,1.0,False,0.049,62,False,left,0.16609,999,999,0,999,999,0,A
463,0.49826,0.1,2,0.20761,0.24083,0.53148,463,3.61239,3.274,1.63595,2.13421,5,2D1U,2.0,True,0.049,47,False,right,-0.08304,999,999,0,999,999,0,A
464,0.49826,1.2,2,0.41522,0.22422,0.70587,464,3.96117,3.238,1.61934,2.1176,5,2D1U,1.0,False,0.054,48,True,left,0.16609,999,999,0,999,999,0,A
465,0.49826,1.2,2,0.28235,0.44843,0.69756,465,4.06081,3.274,1.63595,2.13421,5,2D1U,2.0,True,0.064,49,True,right,-0.08304,999,999,0,999,999,0,A
466,0.49826,0.1,1,0.41522,0.40691,0.41522,466,1.95152,-0.57,-0.28235,0.21591,5,2U1D,1.0,False,0.07,62,False,left,0.16609,999,999,0,999,999,0,A
467,0.49826,0.1,1,0.24083,0.30726,0.53148,467,1.79374,-0.57,-0.28235,0.21591,5,2U1D,2.0,True,0.068,62,False,right,-0.08304,999,999,0,999,999,0,A
468,0.49826,1.2,2,0.27404,0.22422,0.53978,468,3.67051,3.274,1.63595,2.13421,5,2D1U,1.0,False,0.07,49,True,left,0.16609,999,999,0,999,999,0,A
469,0.49826,1.2,2,0.30726,0.31556,0.81382,469,4.09403,3.31,1.65256,2.15913,5,2D1U,1.0,False,0.069,49,False,left,-0.08304,999,999,0,999,999,0,A
470,0.49826,0.1,1,0.28235,0.35709,0.56469,470,1.9183,-0.57,-0.28235,0.21591,5,2U1D,2.0,True,0.07,62,False,right,0.16609,999,999,0,999,999,0,A
471,0.49826,0.1,1,0.34878,0.35709,0.48165,471,1.9183,-0.534,-0.26574,0.23252,5,2U1D,2.0,True,0.069,63,True,right,-0.08304,999,999,0,999,999,0,A
472,0.49826,1.2,1,0.33217,0.33217,0.80552,472,4.14385,3.346,1.66917,2.17573,5,2D1U,1.0,True,0.071,49,False,left,0.16609,999,999,0,999,999,0,A
473,0.49826,1.2,2,0.22422,0.21591,0.41522,473,3.52934,3.346,1.66917,2.17573,5,2D1U,2.0,True,0.069,49,False,right,-0.08304,999,999,0,999,999,0,A
474,0.49826,0.1,2,0.21591,0.30726,0.40691,474,1.66086,-0.534,-0.26574,0.23252,5,2U1D,1.0,True,0.051,63,True,left,0.16609,999,999,0,999,999,0,A
475,0.49826,0.1,1,0.33217,0.44843,0.63113,475,2.15912,-0.498,-0.24913,0.24913,5,2U1D,1.0,False,0.055,63,False,left,-0.08304,999,999,0,999,999,0,A
476,0.49826,1.2,2,0.43183,0.30726,0.56469,476,3.96117,3.31,1.65256,2.15913,5,2D1U,1.0,False,0.056,50,True,left,0.16609,999,999,0,999,999,0,A
477,0.49826,1.2,2,0.26574,0.25743,0.45674,477,1.71069,-0.534,-0.26574,0.23252,5,2U1D,2.0,False,0.061,64,True,right,-0.08304,999,999,0,999,999,0,A
478,0.49826,0.1,2,0.37369,0.34878,0.48165,478,1.91829,-0.57,-0.28235,0.21591,5,2U1D,2.0,False,0.069,64,False,right,0.16609,999,999,0,999,999,0,A
479,0.49826,0.1,2,0.28235,0.33217,0.61452,479,1.94321,-0.57,-0.28235,0.21591,5,2U1D,2.0,False,0.07,64,False,right,-0.08304,999,999,0,999,999,0,A
480,0.49826,1.2,2,0.21591,0.3903,0.63113,480,1.95151,-0.57,-0.28235,0.21591,5,2U1D,2.0,False,0.079,64,False,right,0.16609,999,999,0,999,999,0,A
481,0.49826,1.2,1,0.22422,0.42352,0.49826,481,3.81999,3.346,1.66917,2.17573,5,2D1U,2.0,False,0.059,51,True,right,-0.08304,999,999,0,999,999,0,A
482,0.49826,0.1,2,0.34048,0.28235,0.59791,482,1.93491,-0.57,-0.28235,0.21591,5,2U1D,1.0,True,0.05,64,False,left,0.16609,999,999,0,999,999,0,A
483,0.49826,0.1,2,0.22422,0.26574,0.83874,483,4.0193,3.382,1.69408,2.19234,5,2D1U,2.0,True,0.057,51,False,right,-0.08304,999,999,0,999,999,0,A
484,0.49826,1.2,1,0.31556,0.30726,0.44013,484,1.77712,-0.57,-0.28235,0.21591,5,2U1D,2.0,True,0.05,64,False,right,0.16609,999,999,0,999,999,0,A
485,0.49826,1.2,2,0.44013,0.43183,0.51487,485,4.07743,3.382,1.69408,2.19234,5,2D1U,1.0,False,0.058,51,False,left,-0.08304,999,999,0,999,999,0,A
486,0.49826,0.1,1,0.29896,0.20761,0.83043,486,2.06778,-0.534,-0.26574,0.23252,5,2U1D,2.0,True,0.055,65,True,right,0.16609,999,999,0,999,999,0,A
487,0.49826,0.1,1,0.20761,0.30726,0.65604,487,3.87812,3.418,1.71069,2.20895,5,2D1U,1.0,True,0.051,51,False,left,-0.08304,999,999,0,999,999,0,A
488,0.49826,1.2,1,0.20761,0.28235,0.49826,488,3.69543,3.418,1.71069,2.20895,5,2D1U,2.0,False,0.067,51,False,right,0.16609,999,999,0,999,999,0,A
489,0.49826,1.2,2,0.37369,0.41522,0.83043,489,2.35012,-0.534,-0.26574,0.23252,5,2U1D,1.0,True,0.074,65,True,left,-0.08304,999,999,0,999,999,0,A
490,0.49826,0.1,1,0.30726,0.24913,0.60622,490,3.88643,3.454,1.7273,2.22556,5,2D1U,2.0,False,0.066,51,False,right,0.16609,999,999,0,999,999,0,A
491,0.49826,0.1,2,0.44843,0.23252,0.85535,491,2.28369,-0.498,-0.24913,0.24913,5,2U1D,1.0,True,0.052,65,False,left,-0.08304,999,999,0,999,999,0,A
492,0.49826,1.2,1,0.23252,0.43183,0.68096,492,4.08574,3.49,1.74391,2.24217,5,2D1U,2.0,False,0.064,51,False,right,0.16609,999,999,0,999,999,0,A
493,0.49826,1.2,2,0.3903,0.32387,0.60622,493,4.08573,3.526,1.76052,2.26708,5,2D1U,2.0,True,0.07,51,False,right,-0.08304,999,999,0,999,999,0,A
494,0.49826,0.1,1,0.36539,0.21591,0.78061,494,4.12725,3.526,1.76052,2.26708,5,2D1U,2.0,False,0.051,51,False,right,0.16609,999,999,0,999,999,0,A
495,0.49826,0.1,1,0.24913,0.34048,0.44013,495,1.77713,-0.498,-0.24913,0.24913,5,2U1D,2.0,True,0.068,65,False,right,-0.08304,999,999,0,999,999,0,A
496,0.49826,1.2,1,0.35709,0.21591,0.70587,496,4.06082,3.562,1.77713,2.28369,5,2D1U,1.0,True,0.067,51,False,left,0.16609,999,999,0,999,999,0,A
497,0.49826,1.2,2,0.29065,0.44013,0.7723,497,2.26708,-0.462,-0.23252,0.26574,5,2U1D,1.0,True,0.075,65,False,left,-0.08304,999,999,0,999,999,0,A
498,0.49826,0.1,2,0.20761,0.33217,0.43183,498,1.73561,-0.462,-0.23252,0.26574,5,2U1D,2.0,False,0.052,65,False,right,0.16609,999,999,0,999,999,0,A
499,0.49826,0.1,1,0.41522,0.30726,0.55639,499,4.06082,3.562,1.77713,2.28369,5,2D1U,1.0,True,0.056,51,False,left,-0.08304,999,999,0,999,999,0,A
500,0.49826,1.2,2,0.28235,0.32387,0.43183,500,3.80339,3.526,1.76052,2.26708,5,2D1U,2.0,True,0.054,52,True,right,0.16609,999,999,0,999,999,0,A
501,0.49826,1.2,2,0.21591,0.42352,0.79722,501,4.20199,3.526,1.76052,2.26708,5,2D1U,2.0,True,0.053,52,True,right,-0.08304,999,999,0,999,999,0,A
502,0.49826,0.1,1,0.24083,0.21591,0.78891,502,1.99304,-0.498,-0.24913,0.24913,5,2U1D,1.0,False,0.052,66,True,left,0.16609,999,999,0,999,999,0,A
503,0.49826,0.1,1,0.34878,0.37369,0.84704,503,4.30994,3.49,1.74391,2.24217,5,2D1U,1.0,True,0.052,52,False,left,-0.08304,999,999,0,999,999,0,A
504,0.49826,1.2,1,0.30726,0.26574,0.59791,504,1.90169,-0.534,-0.26574,0.23252,5,2U1D,1.0,False,0.053,66,False,left,0.16609,999,999,0,999,999,0,A
505,0.49826,1.2,1,0.22422,0.20761,0.44013,505,3.61239,3.49,1.74391,2.24217,5,2D1U,2.0,False,0.052,52,False,right,-0.08304,999,999,0,999,999,0,A
506,0.49826,0.1,2,0.42352,0.34048,0.40691,506,1.88508,-0.57,-0.28235,0.21591,5,2U1D,2.0,False,0.052,66,False,right,0.16609,999,999,0,999,999,0,A
507,0.49826,0.1,1,0.3903,0.44843,0.78891,507,2.34181,-0.57,-0.28235,0.21591,5,2U1D,1.0,False,0.059,66,False,left,-0.08304,999,999,0,999,999,0,A
508,0.49826,1.2,2,0.41522,0.32387,0.88856,508,4.39299,3.526,1.76052,2.26708,5,2D1U,2.0,True,0.059,53,True,right,0.16609,999,999,0,999,999,0,A
509,0.49826,1.2,2,0.29896,0.20761,0.40691,509,1.62765,-0.57,-0.28235,0.21591,5,2U1D,1.0,True,0.054,66,False,left,-0.08304,999,999,0,999,999,0,A
510,0.49826,0.1,2,0.22422,0.31556,0.58961,510,3.89473,3.526,1.76052,2.26708,5,2D1U,2.0,True,0.059,53,True,right,0.16609,999,999,0,999,999,0,A
511,0.49826,0.1,2,0.23252,0.32387,0.71417,511,1.98473,-0.57,-0.28235,0.21591,5,2U1D,1.0,True,0.062,66,False,left,-0.08304,999,999,0,999,999,0,A
512,0.49826,1.2,2,0.32387,0.31556,0.89687,512,4.27673,3.49,1.74391,2.24217,5,2D1U,2.0,True,0.069,54,True,right,0.16609,999,999,0,999,999,0,A
513,0.49826,1.2,2,0.40691,0.33217,0.88026,513,2.35012,-0.534,-0.26574,0.23252,5,2U1D,1.0,True,0.055,67,True,left,-0.08304,999,999,0,999,999,0,A
514,0.49826,0.1,2,0.35709,0.20761,0.44843,514,1.74391,-0.534,-0.26574,0.23252,5,2U1D,2.0,False,0.055,67,True,right,0.16609,999,999,0,999,999,0,A
515,0.49826,0.1,1,0.382,0.35709,0.53978,515,4.0193,3.49,1.74391,2.24217,5,2D1U,1.0,True,0.061,54,True,left,-0.08304,999,999,0,999,999,0,A
516,0.49826,1.2,2,0.25743,0.29065,0.51487,516,1.77712,-0.57,-0.28235,0.21591,5,2U1D,1.0,True,0.065,68,True,left,0.16609,999,999,0,999,999,0,A
517,0.49826,1.2,2,0.1993,0.34048,0.43183,517,3.69543,3.454,1.7273,2.22556,5,2D1U,1.0,False,0.053,54,False,left,-0.08304,999,999,0,999,999,0,A
518,0.49826,0.1,1,0.31556,0.30726,0.81382,518,2.15081,-0.57,-0.28235,0.21591,5,2U1D,1.0,False,0.053,68,True,left,0.16609,999,999,0,999,999,0,A
519,0.49826,0.1,1,0.30726,0.36539,0.54809,519,1.93491,-0.57,-0.28235,0.21591,5,2U1D,1.0,False,0.056,68,False,left,-0.08304,999,999,0,999,999,0,A
520,0.49826,1.2,2,0.34048,0.1993,0.45674,520,3.73695,3.49,1.74391,2.24217,5,2D1U,2.0,True,0.052,55,True,right,0.16609,999,999,0,999,999,0,A
521,0.49826,1.2,2,0.35709,0.34878,0.61452,521,2.03456,-0.57,-0.28235,0.21591,5,2U1D,1.0,True,0.054,68,False,left,-0.08304,999,999,0,999,999,0,A
522,0.49826,0.1,1,0.44843,0.24083,0.78891,522,4.2186,3.49,1.74391,2.24217,5,2D1U,2.0,False,0.054,55,True,right,0.16609,999,999,0,999,999,0,A
523,0.49826,0.1,2,0.40691,0.24083,0.45674,523,1.81865,-0.57,-0.28235,0.21591,5,2U1D,1.0,True,0.061,68,False,left,-0.08304,999,999,0,999,999,0,A
524,0.49826,1.2,2,0.41522,0.24913,0.45674,524,1.85187,-0.534,-0.26574,0.23252,5,2U1D,2.0,False,0.061,69,True,right,0.16609,999,999,0,999,999,0,A
525,0.49826,1.2,2,0.27404,0.22422,0.68096,525,3.94456,3.526,1.76052,2.26708,5,2D1U,2.0,True,0.066,55,False,right,-0.08304,999,999,0,999,999,0,A
526,0.49826,0.1,1,0.34878,0.40691,0.64774,526,2.1176,-0.57,-0.28235,0.21591,5,2U1D,2.0,True,0.056,70,True,right,0.16609,999,999,0,999,999,0,A
527,0.49826,0.1,2,0.26574,0.3903,0.46504,527,3.88642,3.526,1.76052,2.26708,5,2D1U,2.0,True,0.054,55,False,right,-0.08304,999,999,0,999,999,0,A
528,0.49826,1.2,2,0.44843,0.26574,0.87195,528,2.30029,-0.57,-0.28235,0.21591,5,2U1D,1.0,True,0.057,70,True,left,0.16609,999,999,0,999,999,0,A
529,0.49826,1.2,2,0.382,0.27404,0.62282,529,4.01929,3.49,1.74391,2.24217,5,2D1U,2.0,True,0.055,56,True,right,-0.08304,999,999,0,999,999,0,A
530,0.49826,0.1,1,0.33217,0.42352,0.56469,530,4.06081,3.49,1.74391,2.24217,5,2D1U,1.0,True,0.056,56,True,left,0.16609,999,999,0,999,999,0,A
531,0.49826,0.1,1,0.3903,0.42352,0.5813,531,2.1259,-0.534,-0.26574,0.23252,5,2U1D,2.0,True,0.064,71,True,right,-0.08304,999,999,0,999,999,0,A
532,0.49826,1.2,2,0.23252,0.24083,0.81382,532,2.01795,-0.534,-0.26574,0.23252,5,2U1D,1.0,True,0.055,71,True,left,0.16609,999,999,0,999,999,0,A
533,0.49826,1.2,2,0.44013,0.36539,0.55639,533,2.1093,-0.498,-0.24913,0.24913,5,2U1D,1.0,True,0.056,71,False,left,-0.08304,999,999,0,999,999,0,A
534,0.49826,0.1,1,0.21591,0.22422,0.86365,534,4.0276,3.454,1.7273,2.22556,5,2D1U,2.0,False,0.057,56,False,right,0.16609,999,999,0,999,999,0,A
535,0.49826,0.1,1,0.42352,0.28235,0.5813,535,4.0276,3.49,1.74391,2.24217,5,2D1U,1.0,True,0.065,57,True,left,-0.08304,999,999,0,999,999,0,A
536,0.49826,1.2,1,0.20761,0.27404,0.573,536,3.79508,3.49,1.74391,2.24217,5,2D1U,2.0,False,0.054,57,True,right,0.16609,999,999,0,999,999,0,A
537,0.49826,1.2,1,0.24083,0.32387,0.69756,537,2.00965,-0.498,-0.24913,0.24913,5,2U1D,1.0,False,0.056,71,False,left,-0.08304,999,999,0,999,999,0,A
538,0.49826,0.1,2,0.40691,0.33217,0.55639,538,4.06081,3.526,1.76052,2.26708,5,2D1U,1.0,False,0.058,57,False,left,0.16609,999,999,0,999,999,0,A
539,0.49826,0.1,1,0.20761,0.27404,0.78891,539,4.05251,3.562,1.77713,2.28369,5,2D1U,2.0,False,0.061,57,False,right,-0.08304,999,999,0,999,999,0,A
540,0.49826,1.2,2,0.20761,0.29065,0.41522,540,1.64426,-0.534,-0.26574,0.23252,5,2U1D,2.0,False,0.075,72,True,right,0.16609,999,999,0,999,999,0,A
541,0.49826,1.2,1,0.42352,0.25743,0.52317,541,1.91829,-0.57,-0.28235,0.21591,5,2U1D,1.0,False,0.068,72,False,left,-0.08304,999,999,0,999,999,0,A
542,0.49826,0.1,1,0.32387,0.23252,0.85535,542,2.12591,-0.57,-0.28235,0.21591,5,2U1D,1.0,False,0.072,72,False,left,0.16609,999,999,0,999,999,0,A
543,0.49826,0.1,1,0.34048,0.26574,0.45674,543,1.77713,-0.57,-0.28235,0.21591,5,2U1D,2.0,True,0.076,72,False,right,-0.08304,999,999,0,999,999,0,A
544,0.49826,1.2,1,0.3903,0.29065,0.53978,544,4.01929,3.598,1.80204,2.3003,5,2D1U,2.0,False,0.073,57,False,right,0.16609,999,999,0,999,999,0,A
545,0.49826,1.2,2,0.3903,0.29896,0.47335,545,1.87678,-0.57,-0.28235,0.21591,5,2U1D,2.0,False,0.083,72,False,right,-0.08304,999,999,0,999,999,0,A
546,0.49826,0.1,2,0.41522,0.29896,0.89687,546,4.42622,3.634,1.81865,2.31691,5,2D1U,1.0,False,0.064,57,False,left,0.16609,999,999,0,999,999,0,A
547,0.49826,0.1,1,0.41522,0.34878,0.63113,547,2.1093,-0.57,-0.28235,0.21591,5,2U1D,1.0,False,0.06,72,False,left,-0.08304,999,999,0,999,999,0,A
548,0.49826,1.2,1,0.37369,0.35709,0.78891,548,2.23386,-0.57,-0.28235,0.21591,5,2U1D,1.0,False,0.06,72,False,left,0.16609,999,999,0,999,999,0,A
549,0.49826,1.2,2,0.32387,0.34878,0.86365,549,4.36808,3.67,1.83526,2.33352,5,2D1U,1.0,False,0.071,57,False,left,-0.08304,999,999,0,999,999,0,A
550,0.49826,0.1,1,0.29896,0.23252,0.63113,550,1.87678,-0.57,-0.28235,0.21591,5,2U1D,1.0,False,0.085,72,False,left,0.16609,999,999,0,999,999,0,A
551,0.49826,0.1,2,0.27404,0.25743,0.56469,551,1.81033,-0.57,-0.28235,0.21591,5,2U1D,2.0,False,0.08,72,False,right,-0.08304,999,999,0,999,999,0,A
552,0.49826,1.2,1,0.39861,0.31556,0.55639,552,1.98473,-0.57,-0.28235,0.21591,5,2U1D,2.0,True,0.059,72,False,right,0.16609,999,999,0,999,999,0,A
553,0.49826,1.2,2,0.35709,0.3903,0.59791,553,4.19369,3.706,1.85187,2.35013,5,2D1U,1.0,False,0.065,57,False,left,-0.08304,999,999,0,999,999,0,A
554,0.49826,0.1,1,0.37369,0.29065,0.73909,554,4.27673,3.742,1.86847,2.37504,5,2D1U,2.0,False,0.064,57,False,right,0.16609,999,999,0,999,999,0,A
555,0.49826,0.1,2,0.36539,0.23252,0.85535,555,4.34317,3.778,1.88508,2.39165,5,2D1U,2.0,True,0.07,57,False,right,-0.08304,999,999,0,999,999,0,A
556,0.49826,1.2,2,0.25743,0.22422,0.74739,556,1.94321,-0.57,-0.28235,0.21591,5,2U1D,1.0,True,0.075,72,False,left,0.16609,999,999,0,999,999,0,A
557,0.49826,1.2,2,0.26574,0.28235,0.47335,557,1.75222,-0.534,-0.26574,0.23252,5,2U1D,1.0,True,0.08,73,True,left,-0.08304,999,999,0,999,999,0,A
558,0.49826,0.1,1,0.31556,0.37369,0.70587,558,4.28503,3.778,1.88508,2.39165,5,2D1U,1.0,True,0.084,57,False,left,0.16609,999,999,0,999,999,0,A
559,0.49826,0.1,2,0.21591,0.34878,0.61452,559,4.05251,3.742,1.86847,2.37504,5,2D1U,1.0,False,0.084,58,True,left,-0.08304,999,999,0,999,999,0,A
560,0.49826,1.2,2,0.28235,0.30726,0.85535,560,2.17574,-0.534,-0.26574,0.23252,5,2U1D,1.0,True,0.082,73,True,left,0.16609,999,999,0,999,999,0,A
561,0.49826,1.2,1,0.27404,0.34048,0.83043,561,4.33486,3.778,1.88508,2.39165,5,2D1U,2.0,False,0.08,59,True,right,-0.08304,999,999,0,999,999,0,A
562,0.49826,0.1,2,0.31556,0.40691,0.59791,562,2.06777,-0.498,-0.24913,0.24913,5,2U1D,2.0,False,0.066,73,False,right,0.16609,999,999,0,999,999,0,A
563,0.49826,0.1,1,0.36539,0.41522,0.62282,563,4.30995,3.814,1.91,2.40826,5,2D1U,1.0,True,0.075,59,False,left,-0.08304,999,999,0,999,999,0,A
564,0.49826,1.2,2,0.32387,0.34878,0.573,564,1.97643,-0.534,-0.26574,0.23252,5,2U1D,1.0,True,0.086,74,True,left,0.16609,999,999,0,999,999,0,A
565,0.49826,1.2,2,0.25743,0.27404,0.50656,565,3.94455,3.814,1.91,2.40826,5,2D1U,2.0,True,0.079,59,False,right,-0.08304,999,999,0,999,999,0,A
566,0.49826,0.1,2,0.382,0.23252,0.68096,566,4.18539,3.778,1.88508,2.39165,5,2D1U,2.0,True,0.089,60,True,right,0.16609,999,999,0,999,999,0,A
567,0.49826,0.1,2,0.32387,0.41522,0.79722,567,2.26709,-0.534,-0.26574,0.23252,5,2U1D,2.0,False,0.059,74,True,right,-0.08304,999,999,0,999,999,0,A
568,0.49826,1.2,2,0.35709,0.44843,0.88856,568,4.58399,3.778,1.88508,2.39165,5,2D1U,2.0,True,0.067,60,True,right,0.16609,999,999,0,999,999,0,A
569,0.49826,1.2,1,0.29896,0.34048,0.70587,569,4.21861,3.742,1.86847,2.37504,5,2D1U,1.0,True,0.06,60,False,left,-0.08304,999,999,0,999,999,0,A
570,0.49826,0.1,1,0.26574,0.23252,0.70587,570,1.9183,-0.57,-0.28235,0.21591,5,2U1D,2.0,True,0.067,74,False,right,0.16609,999,999,0,999,999,0,A
571,0.49826,0.1,1,0.44013,0.22422,0.75569,571,4.29334,3.742,1.86847,2.37504,5,2D1U,2.0,False,0.062,60,False,right,-0.08304,999,999,0,999,999,0,A
572,0.49826,1.2,1,0.28235,0.20761,0.44843,572,3.8283,3.778,1.88508,2.39165,5,2D1U,2.0,False,0.062,61,True,right,0.16609,999,999,0,999,999,0,A
573,0.49826,1.2,1,0.21591,0.25743,0.55639,573,1.7439,-0.57,-0.28235,0.21591,5,2U1D,1.0,False,0.068,74,False,left,-0.08304,999,999,0,999,999,0,A
574,0.49826,0.1,1,0.44013,0.382,0.73909,574,2.27539,-0.57,-0.28235,0.21591,5,2U1D,1.0,False,0.068,74,False,left,0.16609,999,999,0,999,999,0,A
575,0.49826,0.1,2,0.34048,0.44843,0.64774,575,2.15082,-0.57,-0.28235,0.21591,5,2U1D,2.0,False,0.075,74,False,right,-0.08304,999,999,0,999,999,0,A
576,0.49826,1.2,2,0.37369,0.29065,0.53978,576,4.11064,3.814,1.91,2.40826,5,2D1U,2.0,True,0.091,61,False,right,0.16609,999,999,0,999,999,0,A
577,0.49826,1.2,1,0.34048,0.44843,0.71417,577,2.21725,-0.57,-0.28235,0.21591,5,2U1D,1.0,False,0.09,74,False,left,-0.08304,999,999,0,999,999,0,A
578,0.49826,0.1,2,0.33217,0.21591,0.73078,578,4.18538,3.814,1.91,2.40826,5,2D1U,2.0,True,0.061,61,False,right,0.16609,999,999,0,999,999,0,A
579,0.49826,0.1,2,0.42352,0.28235,0.78061,579,2.20065,-0.57,-0.28235,0.21591,5,2U1D,2.0,False,0.066,74,False,right,-0.08304,999,999,0,999,999,0,A
580,0.49826,1.2,1,0.3903,0.41522,0.49826,580,2.01795,-0.57,-0.28235,0.21591,5,2U1D,2.0,True,0.071,74,False,right,0.16609,999,999,0,999,999,0,A
581,0.49826,1.2,2,0.43183,0.24083,0.65604,581,2.04287,-0.57,-0.28235,0.21591,5,2U1D,2.0,False,0.073,74,False,right,-0.08304,999,999,0,999,999,0,A
582,0.49826,0.1,2,0.3903,0.42352,0.83043,582,4.53416,3.778,1.88508,2.39165,5,2D1U,1.0,False,0.082,62,True,left,0.16609,999,999,0,999,999,0,A
583,0.49826,0.1,1,0.34878,0.27404,0.85535,583,2.19234,-0.57,-0.28235,0.21591,5,2U1D,1.0,False,0.074,74,False,left,-0.08304,999,999,0,999,999,0,A
584,0.49826,1.2,2,0.28235,0.30726,0.60622,584,4.10235,3.814,1.91,2.40826,5,2D1U,1.0,False,0.061,63,True,left,0.16609,999,999,0,999,999,0,A
585,0.49826,1.2,1,0.35709,0.20761,0.62282,585,1.90169,-0.57,-0.28235,0.21591,5,2U1D,2.0,True,0.061,74,False,right,-0.08304,999,999,0,999,999,0,A
586,0.49826,0.1,2,0.39861,0.28235,0.764,586,4.36808,3.85,1.9266,2.42486,5,2D1U,2.0,True,0.069,63,False,right,0.16609,999,999,0,999,999,0,A
587,0.49826,0.1,2,0.42352,0.24913,0.79722,587,2.18404,-0.57,-0.28235,0.21591,5,2U1D,2.0,False,0.075,74,False,right,-0.08304,999,999,0,999,999,0,A
588,0.49826,1.2,2,0.39861,0.20761,0.60622,588,1.92661,-0.57,-0.28235,0.21591,5,2U1D,1.0,True,0.072,74,False,left,0.16609,999,999,0,999,999,0,A
589,0.49826,1.2,2,0.33217,0.39861,0.52317,589,4.17707,3.85,1.9266,2.42486,5,2D1U,1.0,False,0.062,63,False,left,-0.08304,999,999,0,999,999,0,A
590,0.49826,0.1,2,0.35709,0.1993,0.69756,590,4.19368,3.886,1.94321,2.44147,5,2D1U,2.0,True,0.071,63,False,right,0.16609,999,999,0,999,999,0,A
591,0.49826,0.1,1,0.42352,0.3903,0.84704,591,2.37503,-0.57,-0.28235,0.21591,5,2U1D,1.0,False,0.074,74,False,left,-0.08304,999,999,0,999,999,0,A
592,0.49826,1.2,2,0.34878,0.36539,0.67265,592,4.32655,3.886,1.94321,2.44147,5,2D1U,1.0,False,0.089,63,False,left,0.16609,999,999,0,999,999,0,A
593,0.49826,1.2,1,0.27404,0.20761,0.78061,593,4.2186,3.922,1.95982,2.45808,5,2D1U,1.0,True,0.085,63,False,left,-0.08304,999,999,0,999,999,0,A
594,0.49826,0.1,2,0.34048,0.34878,0.78061,594,2.18404,-0.57,-0.28235,0.21591,5,2U1D,2.0,False,0.071,74,False,right,0.16609,999,999,0,999,999,0,A
595,0.49826,0.1,1,0.39861,0.21591,0.49826,595,4.06912,3.922,1.95982,2.45808,5,2D1U,2.0,False,0.062,63,False,right,-0.08304,999,999,0,999,999,0,A
596,0.49826,1.2,2,0.34878,0.44843,0.78891,596,4.56737,3.958,1.97643,2.48299,5,2D1U,2.0,True,0.063,63,False,right,0.16609,999,999,0,999,999,0,A
597,0.49826,1.2,1,0.27404,0.30726,0.78061,597,2.07608,-0.57,-0.28235,0.21591,5,2U1D,2.0,True,0.06,74,False,right,-0.08304,999,999,0,999,999,0,A
598,0.49826,0.1,1,0.32387,0.41522,0.40691,598,4.12725,3.958,1.97643,2.48299,5,2D1U,1.0,True,0.063,63,False,left,0.16609,999,999,0,999,999,0,A
599,0.49826,0.1,1,0.29896,0.39861,0.68926,599,4.34317,3.922,1.95982,2.45808,5,2D1U,1.0,True,0.062,64,True,left,-0.08304,999,999,0,999,999,0,A
600,0.49826,1.2,2,0.29896,0.3903,0.60622,600,2.00965,-0.57,-0.28235,0.21591,5,2U1D,2.0,False,0.07,74,False,right,0.16609,999,999,0,999,999,0,A
601,0.49826,1.2,2,0.29896,0.30726,0.50656,601,1.82695,-0.57,-0.28235,0.21591,5,2U1D,1.0,True,0.068,74,False,left,-0.08304,999,999,0,999,999,0,A
602,0.49826,0.1,1,0.40691,0.35709,0.43183,602,1.91,-0.57,-0.28235,0.21591,5,2U1D,1.0,False,0.075,74,False,left,0.16609,999,999,0,999,999,0,A
603,0.49826,0.1,2,0.33217,0.34878,0.52317,603,4.16046,3.922,1.95982,2.45808,5,2D1U,1.0,False,0.078,64,True,left,-0.08304,999,999,0,999,999,0,A
604,0.49826,1.2,2,0.42352,0.23252,0.40691,604,4.0442,3.958,1.97643,2.48299,5,2D1U,2.0,True,0.095,65,True,right,0.16609,999,999,0,999,999,0,A
605,0.49826,1.2,2,0.33217,0.34878,0.63113,605,4.29333,3.958,1.97643,2.48299,5,2D1U,1.0,False,0.083,65,True,left,-0.08304,999,999,0,999,999,0,A
606,0.49826,0.1,2,0.34048,0.24913,0.67265,606,1.97643,-0.57,-0.28235,0.21591,5,2U1D,2.0,False,0.094,74,False,right,0.16609,999,999,0,999,999,0,A
607,0.49826,0.1,2,0.27404,0.26574,0.81382,607,4.35146,3.994,1.99304,2.4996,5,2D1U,2.0,True,0.092,65,False,right,-0.08304,999,999,0,999,999,0,A
608,0.49826,1.2,1,0.382,0.32387,0.65604,608,2.07608,-0.57,-0.28235,0.21591,5,2U1D,2.0,True,0.094,74,False,right,0.16609,999,999,0,999,999,0,A
609,0.49826,1.2,2,0.40691,0.382,0.47335,609,1.97643,-0.57,-0.28235,0.21591,5,2U1D,1.0,True,0.094,74,False,left,-0.08304,999,999,0,999,999,0,A
610,0.49826,0.1,2,0.25743,0.34878,0.82213,610,4.4262,3.994,1.99304,2.4996,5,2D1U,1.0,False,0.096,65,False,left,0.16609,999,999,0,999,999,0,A
611,0.49826,0.1,2,0.3903,0.382,0.88856,611,4.67533,4.03,2.01795,2.51621,5,2D1U,1.0,False,0.09,65,False,left,-0.08304,999,999,0,999,999,0,A
612,0.49826,1.2,1,0.27404,0.32387,0.83043,612,2.15912,-0.534,-0.26574,0.23252,5,2U1D,2.0,True,0.086,75,True,right,0.16609,999,999,0,999,999,0,A
613,0.49826,1.2,1,0.41522,0.382,0.41522,613,1.94322,-0.534,-0.26574,0.23252,5,2U1D,2.0,True,0.089,75,True,right,-0.08304,999,999,0,999,999,0,A
614,0.49826,0.1,2,0.24083,0.26574,0.58961,614,1.84357,-0.498,-0.24913,0.24913,5,2U1D,1.0,True,0.063,75,False,left,0.16609,999,999,0,999,999,0,A
615,0.49826,0.1,1,0.24083,0.25743,0.46504,615,1.71069,-0.498,-0.24913,0.24913,5,2U1D,1.0,False,0.076,75,False,left,-0.08304,999,999,0,999,999,0,A
