,standardDur,audNoise,order,preDur,postDur,isiDur,trial_num,totalDur,delta_dur_percents,deltaDurS,testDurS,intensities,current_stair,responses,is_correct,response_rts,stair_num_reversal,stair_is_reversal,response_keys,conflictDur,recordedOnsetVisualTest,recordedOffsetVisualTest,recordedDurVisualTest,recordedOnsetVisualStandard,recordedOffsetVisualStandard,recordedDurVisualStandard,modalityPostCue
0,0.49991,0.1,2,0.32494,0.33327,0.83318,0,2.04129,-0.9,-0.44992,0.04999,5,lapse_rate,1.0,True,2.511,0,False,left,0.0,1.6616,1.712,0.0504,0.3301,0.829,0.499,V
1,0.49991,1.2,1,0.29161,0.43325,0.43325,1,1.83299,-0.65,-0.32494,0.17497,5,2U1D,2.0,True,0.316,0,False,right,0.0,0.3002,0.4747,0.1745,0.9073,1.4071,0.4998,V
2,0.49991,0.1,2,0.37493,0.40826,0.86651,2,2.32458,-0.65,-0.32494,0.17497,5,2U1D,1.0,True,1.859,0,False,left,0.0,1.7443,1.919,0.1747,0.3779,0.8774,0.4995,A
3,0.49991,1.2,1,0.22496,0.20829,0.79152,3,2.54953,0.65,0.32494,0.82485,5,3D1U,1.0,True,0.543,0,False,left,0.0,0.2289,1.0533,0.8244,1.8452,2.3451,0.4999,V
4,0.49991,1.2,1,0.25829,0.29161,0.54157,4,1.64137,-0.9,-0.44992,0.04999,5,lapse_rate,2.0,True,0.359,0,False,right,0.0,0.2606,0.3103,0.0497,0.8537,1.3524,0.4988,V
5,0.49991,0.1,2,0.24162,0.25829,0.7082,5,1.88299,-0.65,-0.32494,0.17497,5,3U1D,1.0,True,0.709,0,False,left,0.0,1.4591,1.6338,0.1746,0.2498,0.7509,0.5011,V
6,0.49991,1.2,2,0.26662,0.39159,0.8915,6,2.87447,0.65,0.32494,0.82485,5,2D1U,2.0,True,3.017,0,False,right,0.0,1.6661,2.4902,0.8241,0.2739,0.7742,0.5003,A
7,0.49991,0.1,2,0.31661,0.22496,0.63322,7,2.49955,0.65,0.32494,0.82485,5,3D1U,2.0,True,0.326,0,False,right,0.0,1.4523,2.2789,0.8266,0.32,0.8199,0.4999,V
8,0.49991,0.1,1,0.34993,0.39993,0.76652,8,2.06628,-0.9,-0.44992,0.04999,5,lapse_rate,2.0,True,0.319,0,False,right,0.0,0.3583,0.4085,0.0501,1.1742,1.6754,0.5012,A
9,0.49991,1.2,2,0.43325,0.24162,0.50824,9,2.50787,0.65,0.32494,0.82485,5,2D1U,2.0,True,1.301,0,False,right,0.0,1.4463,2.2707,0.8244,0.4375,0.9364,0.4989,A
10,0.49991,0.1,1,0.24995,0.22496,0.76652,10,1.91631,-0.65,-0.32494,0.17497,5,3U1D,2.0,True,1.65,0,False,right,0.0,0.2588,0.4333,0.1745,1.1997,1.6995,0.4999,V
11,0.49991,1.2,2,0.37493,0.41659,0.5499,11,2.06629,-0.55,-0.27495,0.22496,5,2U1D,1.0,True,0.276,0,False,left,0.0,1.4319,1.657,0.2251,0.3821,0.8823,0.5002,A
12,0.49991,1.2,2,0.29161,0.29161,0.65821,12,2.69116,0.9,0.44992,0.94982,5,lapse_rate,1.0,False,2.717,0,False,left,0.0,1.4551,2.4055,0.9503,0.2969,0.7959,0.4991,A
13,0.49991,0.1,1,0.32494,0.21663,0.8915,13,2.70784,0.55,0.27495,0.77486,5,2D1U,1.0,True,2.009,0,False,left,0.0,0.3345,1.1094,0.7748,2.0028,2.5015,0.4987,V
14,0.49991,1.2,1,0.31661,0.23329,0.49158,14,1.71636,-0.65,-0.32494,0.17497,5,3U1D,2.0,True,0.351,0,False,right,0.0,0.326,0.5005,0.1745,0.9933,1.4924,0.4991,A
15,0.49991,0.1,1,0.42492,0.24162,0.75819,15,2.74949,0.65,0.32494,0.82485,5,3D1U,1.0,True,1.207,0,False,left,0.0,0.4311,1.2557,0.8246,2.0141,2.5144,0.5003,A
16,0.49991,1.2,2,0.35827,0.40826,0.59156,16,2.08296,-0.55,-0.27495,0.22496,5,2U1D,1.0,True,0.108,0,False,left,0.0,1.4568,1.6818,0.225,0.3649,0.8641,0.4992,V
17,0.49991,0.1,1,0.3666,0.27495,0.51657,17,2.43289,0.55,0.27495,0.77486,5,3D1U,1.0,True,1.567,0,False,left,0.0,0.3712,1.1459,0.7747,1.6627,2.1628,0.5,A
18,0.49991,1.2,2,0.32494,0.31661,0.41659,18,2.33291,0.55,0.27495,0.77486,5,2D1U,2.0,True,1.425,0,False,right,0.0,1.2495,2.0246,0.7752,0.3324,0.8331,0.5007,A
19,0.49991,0.1,1,0.24162,0.27495,0.44158,19,1.73301,-0.45,-0.22496,0.27495,5,2U1D,2.0,True,0.476,0,False,right,0.0,0.2453,0.5203,0.275,0.9615,1.4617,0.5002,A
20,0.49991,1.2,2,0.39159,0.31661,0.67487,20,1.93297,-0.9,-0.44992,0.04999,5,lapse_rate,1.0,True,0.909,0,False,left,0.0,1.575,1.6246,0.0496,0.3994,0.899,0.4996,A
21,0.49991,1.2,2,0.38326,0.29161,0.83318,21,2.23292,-0.55,-0.27495,0.22496,5,3U1D,1.0,True,0.651,0,False,left,0.0,1.7268,1.9511,0.2244,0.3921,0.8925,0.5004,V
22,0.49991,1.2,2,0.20829,0.21663,0.61655,22,2.4912,0.9,0.44992,0.94982,5,lapse_rate,2.0,True,1.092,0,False,right,0.0,1.3347,2.284,0.9493,0.2172,0.7179,0.5006,A
23,0.49991,0.1,2,0.37493,0.40826,0.67487,23,2.73283,0.55,0.27495,0.77486,5,3D1U,2.0,True,1.2,0,False,right,0.0,1.5549,2.3296,0.7747,0.3787,0.8794,0.5007,V
24,0.49991,1.2,2,0.37493,0.3416,0.80818,24,2.29957,-0.45,-0.22496,0.27495,5,2U1D,1.0,True,0.602,0,False,left,0.0,1.6921,1.9675,0.2754,0.3833,0.8847,0.5014,V
25,0.49991,0.1,2,0.28328,0.39993,0.82485,25,2.23293,-0.55,-0.27495,0.22496,5,3U1D,1.0,True,0.518,0,False,left,0.0,1.614,1.8385,0.2245,0.2878,0.7886,0.5008,V
26,0.49991,1.2,1,0.40826,0.42492,0.82485,26,2.8828,0.45,0.22496,0.72486,5,2D1U,2.0,False,1.192,0,False,right,0.0,0.4116,1.1376,0.726,1.9628,2.4621,0.4993,V
27,0.49991,0.1,1,0.34993,0.3666,0.84984,27,2.84114,0.55,0.27495,0.77486,5,3D1U,1.0,True,0.175,0,False,left,0.0,0.3535,1.1273,0.7738,1.9783,2.4774,0.4991,V
28,0.49991,1.2,2,0.3416,0.44158,0.40826,28,2.44954,0.51,0.25829,0.75819,5,2D1U,2.0,True,0.79,1,True,right,0.0,1.2567,2.0143,0.7576,0.348,0.8469,0.4988,V
29,0.49991,0.1,1,0.41659,0.23329,0.42492,29,1.89965,-0.35,-0.17497,0.32494,5,2U1D,1.0,False,0.36,0,False,left,0.0,0.4209,0.7466,0.3258,1.1713,1.6717,0.5004,V
30,0.49991,1.2,1,0.3416,0.29994,0.81651,30,2.18292,-0.55,-0.27495,0.22496,5,3U1D,2.0,True,0.342,0,False,right,0.0,0.3499,0.5747,0.2248,1.3922,1.8917,0.4995,V
31,0.49991,1.2,1,0.29994,0.21663,0.77486,31,2.74116,0.9,0.44992,0.94982,5,lapse_rate,1.0,True,0.292,0,False,left,0.0,0.3097,1.2602,0.9505,2.0345,2.5345,0.5,V
32,0.49991,0.1,2,0.20829,0.30828,0.85817,32,2.16626,-0.41,-0.20829,0.29161,5,2U1D,1.0,True,0.767,1,True,left,0.0,1.5765,1.8681,0.2916,0.2181,0.7177,0.4996,V
33,0.49991,1.2,2,0.41659,0.3416,0.8915,33,2.90779,0.51,0.25829,0.75819,5,2D1U,2.0,True,0.135,1,True,right,0.0,1.8111,2.5696,0.7585,0.4194,0.9194,0.5,A
34,0.49991,0.1,2,0.22496,0.3416,0.54157,34,2.3329,0.45,0.22496,0.72486,5,3D1U,2.0,True,0.175,0,False,right,0.0,1.2769,2.0007,0.7239,0.2346,0.7341,0.4996,V
35,0.49991,0.1,2,0.3416,0.24162,0.50824,35,2.54119,0.9,0.44992,0.94982,5,lapse_rate,2.0,True,0.166,0,False,right,0.0,1.3533,2.3022,0.9489,0.3447,0.8443,0.4996,A
36,0.49991,1.2,1,0.24162,0.19996,0.49991,36,1.71635,-0.45,-0.22496,0.27495,5,3U1D,1.0,False,1.458,0,False,left,0.0,0.2461,0.5224,0.2762,1.0219,1.5223,0.5004,V
37,0.49991,1.2,1,0.26662,0.29994,0.60822,37,1.72468,-0.9,-0.44992,0.04999,5,lapse_rate,2.0,True,0.258,0,False,right,0.0,0.2763,0.3261,0.0499,0.9338,1.4347,0.5008,A
38,0.49991,0.1,2,0.3416,0.27495,0.39993,38,2.24959,0.474,0.23329,0.7332,5,2D1U,1.0,False,0.625,2,True,left,0.0,1.2468,1.9801,0.7333,0.3469,0.848,0.501,A
39,0.49991,1.2,1,0.27495,0.38326,0.41659,39,1.81633,-0.51,-0.25829,0.24162,5,3U1D,2.0,True,0.408,1,True,right,0.0,0.2835,0.5248,0.2413,0.9419,1.442,0.5,A
40,0.49991,0.1,2,0.41659,0.33327,0.81651,40,2.35789,-0.41,-0.20829,0.29161,5,2U1D,1.0,True,0.392,1,True,left,0.0,1.7411,2.0342,0.2931,0.4258,0.9255,0.4998,A
41,0.49991,1.2,2,0.32494,0.27495,0.80818,41,2.63284,0.45,0.22496,0.72486,5,3D1U,2.0,True,0.491,0,False,right,0.0,1.6401,2.3646,0.7245,0.3316,0.8314,0.4997,A
42,0.49991,0.1,1,0.38326,0.25829,0.7332,42,2.63285,0.51,0.25829,0.75819,5,2D1U,1.0,True,0.909,3,True,left,0.0,0.3929,1.1518,0.7589,1.8844,2.3853,0.501,A
43,0.49991,1.2,2,0.44158,0.38326,0.81651,43,2.86612,0.45,0.22496,0.72486,5,3D1U,2.0,True,0.2,0,False,right,0.0,1.767,2.4923,0.7253,0.4505,0.9495,0.4991,A
44,0.49991,0.1,2,0.41659,0.28328,0.71653,44,2.86613,0.9,0.44992,0.94982,5,lapse_rate,2.0,True,5.35,0,False,right,0.0,1.6429,2.5927,0.9498,0.4271,0.9273,0.5002,V
45,0.49991,0.1,2,0.39159,0.22496,0.84151,45,2.19959,-0.51,-0.25829,0.24162,5,3U1D,1.0,True,1.626,1,True,left,0.0,1.7391,1.9814,0.2423,0.398,0.8981,0.5001,A
46,0.49991,1.2,2,0.21663,0.39159,0.56656,46,1.9913,-0.374,-0.1833,0.31661,5,2U1D,2.0,False,0.992,2,True,right,0.0,1.2905,1.6072,0.3168,0.224,0.7238,0.4998,A
47,0.49991,0.1,1,0.26662,0.44992,0.66654,47,2.1746,-0.41,-0.20829,0.29161,5,2U1D,2.0,True,1.525,3,True,right,0.0,0.2727,0.5652,0.2926,1.2317,1.7315,0.4998,V
48,0.49991,1.2,2,0.31661,0.32494,0.87484,48,2.25792,-0.51,-0.25829,0.24162,5,3U1D,1.0,True,0.242,1,True,left,0.0,1.6964,1.9379,0.2415,0.3209,0.8215,0.5005,V
49,0.49991,0.1,1,0.22496,0.22496,0.68321,49,2.39123,0.51,0.25829,0.75819,5,2D1U,2.0,False,0.501,3,True,right,0.0,0.2332,0.9916,0.7584,1.6748,2.1749,0.5001,A
50,0.49991,0.1,2,0.39159,0.34993,0.67487,50,1.96629,-0.9,-0.44992,0.04999,5,lapse_rate,1.0,True,0.284,0,False,left,0.0,1.5743,1.6237,0.0494,0.399,0.8989,0.4999,A
51,0.49991,1.2,2,0.44158,0.31661,0.64155,51,2.57452,0.35,0.17497,0.67487,5,3D1U,2.0,True,0.45,0,False,right,0.0,1.5869,2.2624,0.6755,0.4453,0.9464,0.5012,A
52,0.49991,0.1,2,0.26662,0.39159,0.81651,52,2.6495,0.35,0.17497,0.67487,5,3D1U,2.0,True,0.142,0,False,right,0.0,1.5877,2.2629,0.6752,0.2715,0.7713,0.4998,A
53,0.49991,1.2,2,0.43325,0.38326,0.75819,53,2.84947,0.546,0.27495,0.77486,5,2D1U,1.0,False,0.467,3,False,left,0.0,1.7011,2.4759,0.7747,0.4425,0.9431,0.5006,A
54,0.49991,0.1,2,0.19996,0.20829,0.84151,54,2.04128,-0.41,-0.20829,0.29161,5,2U1D,1.0,True,0.994,3,True,left,0.0,1.547,1.8384,0.2914,0.2054,0.7054,0.5001,V
55,0.49991,0.1,2,0.38326,0.33327,0.82485,55,2.09128,-0.9,-0.44992,0.04999,5,lapse_rate,1.0,True,1.225,0,False,left,0.0,1.7157,1.7665,0.0509,0.3908,0.8905,0.4997,A
56,0.49991,1.2,2,0.26662,0.27495,0.69987,56,2.00797,-0.474,-0.23329,0.26662,5,3U1D,1.0,True,1.242,2,True,left,0.0,1.475,1.7409,0.2659,0.2745,0.7749,0.5004,A
57,0.49991,0.1,1,0.25829,0.25829,0.81651,57,2.50787,0.35,0.17497,0.67487,5,3D1U,2.0,False,1.251,0,False,right,0.0,0.2624,0.9384,0.676,1.7532,2.2533,0.5001,A
58,0.49991,1.2,2,0.29994,0.35827,0.7332,58,1.94131,-0.9,-0.44992,0.04999,5,lapse_rate,1.0,True,1.717,0,False,left,0.0,1.5407,1.5913,0.0506,0.3076,0.8074,0.4998,A
59,0.49991,1.2,2,0.41659,0.3416,0.45825,59,1.98297,-0.474,-0.23329,0.26662,5,3U1D,1.0,True,0.392,2,True,left,0.0,1.3799,1.6464,0.2665,0.4212,0.9222,0.5011,A
60,0.49991,0.1,1,0.44158,0.39993,0.47491,60,2.13294,-0.374,-0.1833,0.31661,5,2U1D,2.0,True,0.15,4,True,right,0.0,0.4462,0.7629,0.3168,1.2377,1.7376,0.5,A
61,0.49991,1.2,1,0.26662,0.24162,0.85817,61,2.65784,0.582,0.29161,0.79152,5,2D1U,1.0,True,0.592,3,False,left,0.0,0.2746,1.066,0.7914,1.9241,2.4246,0.5005,A
62,0.49991,0.1,2,0.34993,0.44992,0.74153,62,2.74949,0.41,0.20829,0.7082,5,3D1U,2.0,True,0.109,1,True,right,0.0,1.6015,2.3096,0.7081,0.3597,0.8598,0.5001,V
63,0.49991,1.2,1,0.39993,0.27495,0.48324,63,1.92465,-0.474,-0.23329,0.26662,5,3U1D,2.0,True,0.334,2,True,right,0.0,0.4043,0.6722,0.2679,1.1546,1.6552,0.5006,V
64,0.49991,1.2,2,0.23329,0.28328,0.48324,64,1.54971,-0.9,-0.44992,0.04999,5,lapse_rate,1.0,True,0.684,0,False,left,0.0,1.2231,1.273,0.0499,0.2396,0.7399,0.5003,V
65,0.49991,0.1,1,0.24162,0.30828,0.72486,65,2.09128,-0.374,-0.1833,0.31661,5,2U1D,2.0,True,0.2,4,True,right,0.0,0.2485,0.5649,0.3164,1.29,1.7895,0.4995,V
66,0.49991,1.2,2,0.3416,0.25829,0.47491,66,2.36623,0.582,0.29161,0.79152,5,2D1U,1.0,False,0.368,3,False,left,0.0,1.3247,2.1149,0.7902,0.3486,0.8493,0.5007,V
67,0.49991,0.1,1,0.39993,0.41659,0.49991,67,2.52454,0.41,0.20829,0.7082,5,3D1U,2.0,False,0.325,1,True,right,0.0,0.4053,1.1129,0.7076,1.6134,2.1128,0.4994,V
68,0.49991,1.2,1,0.27495,0.29161,0.44158,68,1.84132,-0.338,-0.16664,0.33327,5,2U1D,2.0,True,0.758,4,False,right,0.0,0.2806,0.6141,0.3334,1.0557,1.5566,0.5009,A
69,0.49991,0.1,1,0.42492,0.23329,0.80818,69,2.24958,-0.438,-0.21663,0.28328,5,3U1D,2.0,True,1.409,2,False,right,0.0,0.4287,0.7127,0.284,1.5203,2.021,0.5007,V
70,0.49991,1.2,1,0.41659,0.44158,0.48324,70,2.6495,0.618,0.30828,0.80818,5,2D1U,2.0,False,0.752,3,False,right,0.0,0.4226,1.232,0.8095,1.7147,2.2143,0.4996,V
71,0.49991,0.1,2,0.22496,0.42492,0.46658,71,2.56619,0.9,0.44992,0.94982,5,lapse_rate,1.0,False,1.192,0,False,left,0.0,1.1978,2.148,0.9503,0.2316,0.7316,0.5,V
72,0.49991,0.1,1,0.40826,0.44158,0.59156,72,2.89113,0.9,0.44992,0.94982,5,lapse_rate,2.0,False,1.167,0,False,right,0.0,0.419,1.369,0.95,1.961,2.461,0.5,V
73,0.49991,0.1,1,0.25829,0.42492,0.65821,73,2.57453,0.47,0.23329,0.7332,5,3D1U,1.0,True,1.083,1,False,left,0.0,0.2673,1.0,0.7328,1.6581,2.1582,0.5001,V
74,0.49991,1.2,1,0.37493,0.33327,0.56656,74,2.59952,0.654,0.32494,0.82485,5,2D1U,2.0,False,0.717,3,False,right,0.0,0.3794,1.2036,0.8242,1.7705,2.2705,0.4999,V
75,0.49991,0.1,1,0.40826,0.3416,0.79985,75,2.3329,-0.438,-0.21663,0.28328,5,3U1D,2.0,True,1.383,2,False,right,0.0,0.4117,0.6951,0.2834,1.4958,1.996,0.5001,A
76,0.49991,1.2,1,0.41659,0.43325,0.76652,76,2.44954,-0.338,-0.16664,0.33327,5,2U1D,2.0,True,0.451,4,False,right,0.0,0.4253,0.7572,0.3319,1.5236,2.0248,0.5012,V
77,0.49991,0.1,2,0.43325,0.22496,0.60822,77,2.04962,-0.438,-0.21663,0.28328,5,3U1D,1.0,True,0.992,2,False,left,0.0,1.5476,1.8298,0.2822,0.4385,0.939,0.5005,A
78,0.49991,1.2,1,0.20829,0.38326,0.40826,78,1.84965,-0.302,-0.14997,0.34993,5,2U1D,2.0,True,0.374,4,False,right,0.0,0.2181,0.5679,0.3498,0.9771,1.4764,0.4993,V
79,0.49991,0.1,1,0.23329,0.39993,0.77486,79,2.64119,0.47,0.23329,0.7332,5,3D1U,1.0,True,1.218,1,False,left,0.0,0.2386,0.9723,0.7338,1.7476,2.2473,0.4997,V
80,0.49991,1.2,1,0.22496,0.22496,0.57489,80,2.36623,0.69,0.3416,0.84151,5,2D1U,2.0,False,0.451,3,False,right,0.0,0.2272,1.0684,0.8412,1.6448,2.1437,0.4988,A
81,0.49991,0.1,1,0.29161,0.3666,0.62488,81,1.83299,-0.9,-0.44992,0.04999,5,lapse_rate,2.0,True,2.176,0,False,right,0.0,0.3016,0.3517,0.0501,0.9769,1.4765,0.4996,A
82,0.49991,0.1,1,0.41659,0.37493,0.50824,82,2.66618,0.726,0.3666,0.86651,5,2D1U,1.0,True,1.518,3,False,left,0.0,0.426,1.2928,0.8668,1.8008,2.3009,0.5002,A
83,0.49991,1.2,2,0.42492,0.42492,0.62488,83,2.32456,-0.302,-0.14997,0.34993,5,2U1D,1.0,True,0.982,4,False,left,0.0,1.5532,1.9026,0.3494,0.4285,0.9278,0.4993,A
84,0.49991,0.1,2,0.44158,0.34993,0.81651,84,2.40787,-0.402,-0.19996,0.29994,5,3U1D,1.0,True,1.034,2,False,left,0.0,1.7667,2.0664,0.2998,0.4499,0.9507,0.5009,V
85,0.49991,1.2,1,0.20829,0.38326,0.50824,85,2.54952,0.9,0.44992,0.94982,5,lapse_rate,1.0,True,0.693,0,False,left,0.0,0.2129,1.1622,0.9493,1.6707,2.172,0.5013,V
86,0.49991,1.2,2,0.23329,0.31661,0.81651,86,2.59952,0.47,0.23329,0.7332,5,3D1U,2.0,True,1.15,1,False,right,0.0,1.5583,2.2907,0.7324,0.2408,0.741,0.5002,A
87,0.49991,0.1,1,0.41659,0.25829,0.78319,87,2.82449,0.726,0.3666,0.86651,5,2D1U,1.0,True,0.458,3,False,left,0.0,0.4245,1.2914,0.8669,2.0754,2.5754,0.5001,V
88,0.49991,1.2,2,0.24162,0.31661,0.74986,88,2.10794,-0.402,-0.19996,0.29994,5,3U1D,2.0,False,0.859,2,False,right,0.0,1.5001,1.8009,0.3008,0.2504,0.751,0.5006,V
89,0.49991,0.1,2,0.28328,0.21663,0.71653,89,2.43288,0.434,0.21663,0.71653,5,3D1U,2.0,True,0.992,2,True,right,0.0,1.5098,2.227,0.7172,0.2937,0.7932,0.4995,A
90,0.49991,1.2,1,0.25829,0.3416,0.45825,90,1.92465,-0.266,-0.13331,0.3666,5,2U1D,2.0,True,0.242,4,False,right,0.0,0.2666,0.6331,0.3665,1.0917,1.5922,0.5005,V
91,0.49991,1.2,1,0.20829,0.34993,0.62488,91,2.63283,0.9,0.44992,0.94982,5,lapse_rate,2.0,False,0.642,0,False,right,0.0,0.213,1.1638,0.9508,1.7882,2.2879,0.4996,V
92,0.49991,0.1,2,0.43325,0.24162,0.53323,92,1.99129,-0.438,-0.21663,0.28328,5,3U1D,1.0,True,0.649,3,True,left,0.0,1.4713,1.7538,0.2825,0.4372,0.9369,0.4997,A
93,0.49991,1.2,2,0.30828,0.24162,0.7332,93,2.14961,-0.266,-0.13331,0.3666,5,2U1D,1.0,True,0.6,4,False,left,0.0,1.5442,1.9107,0.3666,0.3115,0.8115,0.4999,V
94,0.49991,0.1,2,0.29161,0.3416,0.64155,94,2.61618,0.69,0.3416,0.84151,5,2D1U,2.0,True,0.876,4,True,right,0.0,1.4368,2.2788,0.8421,0.2955,0.7943,0.4988,A
95,0.49991,0.1,1,0.3416,0.32494,0.44992,95,1.66636,-0.9,-0.44992,0.04999,5,lapse_rate,2.0,True,0.541,0,False,right,0.0,0.3478,0.3976,0.0498,0.8486,1.3474,0.4989,V
96,0.49991,1.2,1,0.37493,0.37493,0.44992,96,2.41622,0.434,0.21663,0.71653,5,3D1U,1.0,True,0.9,2,True,left,0.0,0.3781,1.0946,0.7165,1.5455,2.0449,0.4994,V
97,0.49991,0.1,1,0.44158,0.34993,0.69154,97,2.82447,0.69,0.3416,0.84151,5,2D1U,1.0,True,0.408,4,True,left,0.0,0.4491,1.2917,0.8426,1.9834,2.4825,0.4991,A
98,0.49991,0.1,2,0.29161,0.42492,0.44158,98,2.60784,0.9,0.44992,0.94982,5,lapse_rate,2.0,True,0.159,0,False,right,0.0,1.2379,2.1864,0.9485,0.2956,0.7945,0.4988,A
99,0.49991,1.2,2,0.23329,0.42492,0.79152,99,2.3329,-0.23,-0.11664,0.38326,5,2U1D,1.0,True,0.534,4,False,left,0.0,1.53,1.9131,0.383,0.2372,0.7383,0.5011,V
100,0.49991,0.1,2,0.30828,0.29161,0.54157,100,2.3579,0.434,0.21663,0.71653,5,3D1U,2.0,True,0.41,2,True,right,0.0,1.3588,2.0754,0.7166,0.3165,0.8176,0.5011,V
101,0.49991,1.2,2,0.29161,0.25829,0.68321,101,2.0163,-0.438,-0.21663,0.28328,5,3U1D,1.0,True,0.392,3,True,left,0.0,1.4846,1.7679,0.2832,0.3002,0.8005,0.5003,V
102,0.49991,0.1,1,0.29161,0.23329,0.64155,102,2.36623,0.398,0.19996,0.69987,5,3D1U,1.0,True,2.184,2,False,left,0.0,0.3008,1.0001,0.6993,1.641,2.1409,0.4999,A
103,0.49991,0.1,2,0.28328,0.34993,0.85817,103,2.94111,0.9,0.44992,0.94982,5,lapse_rate,2.0,True,0.409,0,False,right,0.0,1.647,2.5974,0.9504,0.2881,0.7889,0.5008,V
104,0.49991,1.2,2,0.26662,0.32494,0.75819,104,2.13294,-0.438,-0.21663,0.28328,5,3U1D,2.0,False,0.991,3,True,right,0.0,1.5279,1.8114,0.2836,0.2695,0.7689,0.4994,A
105,0.49991,0.1,2,0.23329,0.41659,0.59989,105,2.13294,-0.23,-0.11664,0.38326,5,2U1D,1.0,True,0.309,4,False,left,0.0,1.3372,1.7202,0.383,0.2364,0.7375,0.5011,A
106,0.49991,1.2,1,0.33327,0.31661,0.8915,106,2.86614,0.654,0.32494,0.82485,5,2D1U,1.0,True,1.051,4,False,left,0.0,0.338,1.1641,0.8261,2.056,2.555,0.499,A
107,0.49991,0.1,2,0.33327,0.27495,0.7082,107,2.21626,-0.194,-0.09998,0.39993,5,2U1D,1.0,True,2.442,4,False,left,0.0,1.549,1.9497,0.4008,0.3413,0.8417,0.5004,V
108,0.49991,1.2,1,0.43325,0.34993,0.5249,108,2.07461,-0.474,-0.23329,0.26662,5,3U1D,2.0,True,0.893,3,False,right,0.0,0.437,0.7023,0.2653,1.2279,1.7273,0.4994,A
109,0.49991,1.2,2,0.25829,0.22496,0.43325,109,1.4664,-0.9,-0.44992,0.04999,5,lapse_rate,1.0,True,1.067,0,False,left,0.0,1.1963,1.2456,0.0494,0.2629,0.7623,0.4994,A
110,0.49991,0.1,1,0.31661,0.37493,0.62488,110,2.64118,0.654,0.32494,0.82485,5,2D1U,1.0,True,0.251,4,False,left,0.0,0.3234,1.1481,0.8246,1.7732,2.2727,0.4995,V
111,0.49991,1.2,1,0.3416,0.3416,0.45825,111,2.34123,0.398,0.19996,0.69987,5,3D1U,1.0,True,0.268,2,False,left,0.0,0.35,1.0506,0.7006,1.5087,2.0089,0.5002,V
112,0.49991,0.1,2,0.31661,0.21663,0.42492,112,1.72469,-0.474,-0.23329,0.26662,5,3U1D,1.0,True,0.441,3,False,left,0.0,1.2495,1.5162,0.2667,0.3246,0.8246,0.5,A
113,0.49991,1.2,1,0.37493,0.39159,0.84984,113,2.5162,-0.194,-0.09998,0.39993,5,2U1D,2.0,True,0.192,4,False,right,0.0,0.3844,0.7844,0.4,1.6343,2.1352,0.501,A
114,0.49991,0.1,1,0.34993,0.37493,0.59989,114,2.52453,0.398,0.19996,0.69987,5,3D1U,1.0,True,0.534,2,False,left,0.0,0.356,1.056,0.7,1.6552,2.1559,0.5007,A
115,0.49991,1.2,2,0.39993,0.31661,0.87484,115,2.89947,0.618,0.30828,0.80818,5,2D1U,2.0,True,0.184,4,False,right,0.0,1.7845,2.5927,0.8082,0.4104,0.9104,0.4999,V
116,0.49991,0.1,1,0.34993,0.3416,0.68321,116,1.92464,-0.9,-0.44992,0.04999,5,lapse_rate,2.0,True,0.151,0,False,right,0.0,0.3525,0.403,0.0505,1.0868,1.5876,0.5008,A
117,0.49991,0.1,1,0.24995,0.28328,0.44158,117,2.15793,0.362,0.1833,0.68321,5,3D1U,1.0,True,0.551,2,False,left,0.0,0.2546,0.9376,0.683,1.3797,1.8794,0.4997,A
118,0.49991,1.2,2,0.28328,0.38326,0.45825,118,1.89132,-0.474,-0.23329,0.26662,5,3U1D,1.0,True,0.266,3,False,left,0.0,1.2494,1.5179,0.2684,0.2913,0.7922,0.5009,A
119,0.49991,1.2,2,0.23329,0.44158,0.49991,119,2.62451,0.9,0.44992,0.94982,5,lapse_rate,2.0,True,0.609,0,False,right,0.0,1.2438,2.1932,0.9494,0.2433,0.743,0.4997,V
120,0.49991,0.1,2,0.28328,0.35827,0.82485,120,2.39123,-0.158,-0.07499,0.42492,5,2U1D,1.0,True,0.316,4,False,left,0.0,1.6161,2.0411,0.425,0.2909,0.7906,0.4998,A
121,0.49991,1.2,2,0.34993,0.21663,0.79985,121,2.6745,0.618,0.30828,0.80818,5,2D1U,2.0,True,0.2,4,False,right,0.0,1.6581,2.4663,0.8082,0.3589,0.8591,0.5003,A
122,0.49991,1.2,2,0.33327,0.29161,0.49991,122,2.57452,0.9,0.44992,0.94982,5,lapse_rate,2.0,True,0.109,0,False,right,0.0,1.3365,2.2861,0.9496,0.3359,0.8354,0.4995,V
123,0.49991,0.1,2,0.37493,0.42492,0.67487,123,2.25791,-0.438,-0.21663,0.28328,5,3U1D,1.0,True,0.127,4,True,left,0.0,1.5554,1.8375,0.2821,0.3799,0.8791,0.4992,A
124,0.49991,1.2,1,0.44158,0.43325,0.71653,124,2.77448,0.362,0.1833,0.68321,5,3D1U,1.0,True,1.474,2,False,left,0.0,0.4461,1.1298,0.6837,1.8462,2.3457,0.4995,V
125,0.49991,0.1,2,0.35827,0.3666,0.8915,125,2.5412,-0.158,-0.07499,0.42492,5,2U1D,1.0,True,1.29,4,False,left,0.0,1.7519,2.1782,0.4263,0.3614,0.8603,0.4989,V
126,0.49991,1.2,1,0.39993,0.30828,0.63322,126,2.63286,0.582,0.29161,0.79152,5,2D1U,1.0,True,0.542,4,False,left,0.0,0.4032,1.1953,0.7921,1.8278,2.3287,0.5009,V
127,0.49991,1.2,2,0.40826,0.34993,0.68321,127,1.9913,-0.9,-0.44992,0.04999,5,lapse_rate,2.0,False,0.616,0,False,right,0.0,1.5975,1.6483,0.0508,0.4144,0.9154,0.501,V
128,0.49991,0.1,2,0.24995,0.23329,0.5499,128,2.32457,0.582,0.29161,0.79152,5,2D1U,1.0,False,1.243,4,False,left,0.0,1.3033,2.0951,0.7918,0.253,0.7523,0.4993,V
129,0.49991,1.2,2,0.20829,0.28328,0.47491,129,2.1496,0.362,0.1833,0.68321,5,3D1U,2.0,True,0.392,2,False,right,0.0,1.1881,1.8714,0.6833,0.2136,0.7131,0.4994,A
130,0.49991,0.1,1,0.26662,0.3416,0.74153,130,2.29124,-0.122,-0.05832,0.44158,5,2U1D,1.0,False,0.4,4,False,left,0.0,0.2739,0.7162,0.4424,1.4581,1.9574,0.4992,V
131,0.49991,1.2,2,0.44992,0.44992,0.65821,131,2.34124,-0.438,-0.21663,0.28328,5,3U1D,1.0,True,0.108,4,True,left,0.0,1.6139,1.8976,0.2836,0.4552,0.956,0.5008,V
132,0.49991,0.1,1,0.44158,0.21663,0.56656,132,2.1496,-0.158,-0.07499,0.42492,5,2U1D,2.0,True,1.216,5,True,right,0.0,0.4524,0.8765,0.4241,1.4442,1.943,0.4988,A
133,0.49991,1.2,1,0.41659,0.38326,0.63322,133,2.59952,0.326,0.16664,0.66654,5,3D1U,1.0,True,0.784,2,False,left,0.0,0.427,1.0947,0.6677,1.7279,2.2266,0.4988,A
134,0.49991,0.1,1,0.44158,0.29161,0.88317,134,2.92445,0.618,0.30828,0.80818,5,2D1U,1.0,True,0.208,5,True,left,0.0,0.4496,1.2595,0.8099,2.1418,2.6409,0.4991,A
135,0.49991,0.1,1,0.21663,0.29161,0.44992,135,2.40789,0.9,0.44992,0.94982,5,lapse_rate,1.0,True,0.225,0,False,left,0.0,0.2258,1.1751,0.9493,1.6255,2.1245,0.499,A
136,0.49991,1.2,1,0.34993,0.24995,0.72486,136,2.10793,-0.438,-0.21663,0.28328,5,3U1D,2.0,True,0.201,4,True,right,0.0,0.357,0.6405,0.2835,1.3654,1.8668,0.5013,A
137,0.49991,0.1,2,0.29994,0.33327,0.75819,137,2.31623,-0.158,-0.07499,0.42492,5,2U1D,1.0,True,0.243,5,True,left,0.0,1.5624,1.9858,0.4234,0.3036,0.8037,0.5001,A
138,0.49991,1.2,2,0.29161,0.35827,0.44992,138,2.26625,0.326,0.16664,0.66654,5,3D1U,1.0,False,0.684,2,False,left,0.0,1.2447,1.9111,0.6665,0.2946,0.795,0.5004,V
139,0.49991,0.1,2,0.25829,0.41659,0.72486,139,2.70783,0.618,0.30828,0.80818,5,2D1U,2.0,True,0.267,5,True,right,0.0,1.4873,2.2949,0.8076,0.2614,0.7625,0.5011,A
140,0.49991,1.2,2,0.32494,0.40826,0.85817,140,2.39122,-0.402,-0.19996,0.29994,5,3U1D,1.0,True,0.634,4,False,left,0.0,1.6867,1.9867,0.3,0.3293,0.8295,0.5001,A
141,0.49991,0.1,1,0.39159,0.44158,0.8915,141,2.66616,-0.122,-0.05832,0.44158,5,2U1D,2.0,True,0.309,6,True,right,0.0,0.4014,0.8428,0.4413,1.7354,2.2356,0.5002,V
142,0.49991,1.2,1,0.30828,0.39159,0.64988,142,2.29124,-0.122,-0.05832,0.44158,5,2U1D,2.0,True,0.308,6,True,right,0.0,0.312,0.7534,0.4414,1.4038,1.9036,0.4998,A
143,0.49991,0.1,2,0.35827,0.34993,0.86651,143,2.75783,0.362,0.1833,0.68321,5,3D1U,2.0,True,1.4,3,True,right,0.0,1.7308,2.4147,0.6838,0.3644,0.8639,0.4995,V
144,0.49991,1.2,2,0.32494,0.27495,0.41659,144,2.30791,0.582,0.29161,0.79152,5,2D1U,1.0,False,0.741,6,True,left,0.0,1.2503,2.0425,0.7922,0.3342,0.8338,0.4996,V
145,0.49991,0.1,1,0.32494,0.25829,0.5249,145,1.90798,-0.402,-0.19996,0.29994,5,3U1D,2.0,True,0.317,4,False,right,0.0,0.3313,0.6321,0.3008,1.1573,1.6571,0.4998,A
146,0.49991,1.2,2,0.29994,0.26662,0.85817,146,2.38289,-0.086,-0.04166,0.45825,5,2U1D,1.0,True,1.358,6,False,left,0.0,1.6655,2.1238,0.4583,0.3074,0.8074,0.5,V
147,0.49991,0.1,2,0.39993,0.32494,0.60822,147,2.64118,0.618,0.30828,0.80818,5,2D1U,2.0,True,0.273,7,True,right,0.0,1.5146,2.3229,0.8082,0.4058,0.9059,0.5001,V
148,0.49991,1.2,2,0.27495,0.25829,0.69154,148,2.02463,-0.402,-0.19996,0.29994,5,3U1D,1.0,True,0.417,4,False,left,0.0,1.4744,1.7749,0.3004,0.2825,0.7825,0.4999,A
149,0.49991,0.1,2,0.22496,0.3666,0.59989,149,2.00797,-0.366,-0.1833,0.31661,5,3U1D,1.0,True,0.968,4,False,left,0.0,1.3329,1.6507,0.3178,0.2329,0.7341,0.5013,V
150,0.49991,1.2,2,0.37493,0.28328,0.64988,150,2.49121,0.362,0.1833,0.68321,5,3D1U,2.0,True,0.151,3,True,right,0.0,1.5349,2.2182,0.6833,0.3866,0.8855,0.4989,A
151,0.49991,0.1,2,0.42492,0.21663,0.45825,151,2.05796,-0.086,-0.04166,0.45825,5,2U1D,2.0,False,0.457,6,False,right,0.0,1.3912,1.8503,0.4592,0.4327,0.9338,0.5011,A
152,0.49991,1.2,2,0.23329,0.21663,0.86651,152,2.49955,0.362,0.1833,0.68321,5,3D1U,1.0,False,1.174,3,True,left,0.0,1.6088,2.292,0.6832,0.2421,0.7415,0.4994,A
153,0.49991,0.1,2,0.20829,0.20829,0.74986,153,2.36622,0.398,0.19996,0.69987,5,3D1U,2.0,True,1.893,3,False,right,0.0,1.4683,2.1686,0.7003,0.2188,0.7186,0.4998,V
154,0.49991,1.2,1,0.40826,0.3416,0.79985,154,2.4912,-0.122,-0.05832,0.44158,5,2U1D,2.0,True,0.81,7,True,right,0.0,0.4115,0.854,0.4426,1.6541,2.154,0.4999,V
155,0.49991,0.1,2,0.40826,0.25829,0.84151,155,2.81615,0.618,0.30828,0.80818,5,2D1U,2.0,True,1.694,7,True,right,0.0,1.7551,2.5631,0.808,0.4131,0.9122,0.4991,A
156,0.49991,1.2,1,0.38326,0.34993,0.72486,156,2.27457,-0.366,-0.1833,0.31661,5,3U1D,1.0,False,0.593,4,False,left,0.0,0.392,0.7098,0.3177,1.4349,1.9347,0.4998,A
157,0.49991,0.1,1,0.33327,0.33327,0.40826,157,2.27458,0.398,0.19996,0.69987,5,3D1U,1.0,True,0.593,3,False,left,0.0,0.3391,1.0405,0.7013,1.4484,1.9475,0.4992,V
158,0.49991,1.2,1,0.28328,0.43325,0.63322,158,2.64118,0.582,0.29161,0.79152,5,2D1U,1.0,True,0.876,8,True,left,0.0,0.2883,1.08,0.7917,1.7142,2.2132,0.499,A
159,0.49991,0.1,1,0.39993,0.25829,0.43325,159,1.89132,-0.402,-0.19996,0.29994,5,3U1D,2.0,True,1.009,5,True,right,0.0,0.4076,0.7083,0.3007,1.1418,1.6418,0.5,A
160,0.49991,1.2,1,0.3666,0.27495,0.79985,160,2.38289,-0.122,-0.05832,0.44158,5,2U1D,2.0,True,1.008,7,True,right,0.0,0.3744,0.8173,0.4429,1.6162,2.1173,0.5011,V
161,0.49991,0.1,2,0.33327,0.44158,0.53323,161,2.50786,0.398,0.19996,0.69987,5,3D1U,1.0,False,0.334,3,False,left,0.0,1.3696,2.0693,0.6997,0.3358,0.8354,0.4995,A
162,0.49991,1.2,2,0.19996,0.3416,0.61655,162,2.44954,0.582,0.29161,0.79152,5,2D1U,2.0,True,1.81,8,True,right,0.0,1.3282,2.1188,0.7906,0.2108,0.7102,0.4994,A
163,0.49991,0.1,1,0.28328,0.34993,0.78319,163,2.21625,-0.402,-0.19996,0.29994,5,3U1D,2.0,True,0.833,5,True,right,0.0,0.289,0.5899,0.3009,1.3724,1.8727,0.5002,A
164,0.49991,1.2,1,0.26662,0.30828,0.74153,164,2.27459,-0.086,-0.04166,0.45825,5,2U1D,2.0,True,0.326,8,True,right,0.0,0.2713,0.7299,0.4585,1.4717,1.9715,0.4998,A
165,0.49991,0.1,2,0.24995,0.3416,0.59989,165,2.40788,0.434,0.21663,0.71653,5,3D1U,1.0,False,1.275,3,False,left,0.0,1.359,2.0757,0.7168,0.2589,0.7594,0.5005,A
166,0.49991,1.2,1,0.35827,0.29994,0.59156,166,2.48288,0.47,0.23329,0.7332,5,3D1U,1.0,True,0.275,3,False,left,0.0,0.3663,1.0997,0.7334,1.6911,2.1916,0.5005,V
167,0.49991,0.1,1,0.35827,0.40826,0.88317,167,2.88281,0.47,0.23329,0.7332,5,3D1U,1.0,True,2.657,3,False,left,0.0,0.3639,1.0981,0.7342,1.9815,2.4805,0.499,A
168,0.49991,1.2,2,0.25829,0.24162,0.8915,168,2.34957,-0.086,-0.04166,0.45825,5,2U1D,2.0,False,1.242,8,True,right,0.0,1.6598,2.1165,0.4566,0.2668,0.7677,0.5009,A
169,0.49991,0.1,2,0.41659,0.35827,0.5499,169,2.12461,-0.402,-0.19996,0.29994,5,3U1D,1.0,True,1.135,5,True,left,0.0,1.4709,1.7709,0.3,0.4212,0.9199,0.4987,V
170,0.49991,1.2,2,0.25829,0.33327,0.71653,170,2.58286,0.546,0.27495,0.77486,5,2D1U,2.0,True,0.393,8,False,right,0.0,1.4831,2.2597,0.7766,0.2677,0.7664,0.4987,V
171,0.49991,0.1,2,0.43325,0.44992,0.88317,171,2.99945,0.47,0.23329,0.7332,5,3D1U,2.0,True,0.382,3,False,right,0.0,1.8227,2.5552,0.7325,0.4385,0.9394,0.5009,A
172,0.49991,1.2,2,0.38326,0.20829,0.84151,172,2.70783,0.546,0.27495,0.77486,5,2D1U,1.0,False,0.692,8,False,left,0.0,1.7387,2.5144,0.7756,0.3901,0.8973,0.5072,V
173,0.49991,0.1,1,0.27495,0.3416,0.56656,173,1.99963,-0.366,-0.1833,0.31661,5,3U1D,2.0,True,0.233,6,True,right,0.0,0.2791,0.5965,0.3174,1.1623,1.6633,0.501,A
174,0.49991,1.2,2,0.44158,0.33327,0.84151,174,2.8328,0.434,0.21663,0.71653,5,3D1U,2.0,True,0.109,4,True,right,0.0,1.7919,2.5083,0.7165,0.4504,0.9493,0.4989,V
175,0.49991,0.1,1,0.25829,0.19996,0.83318,175,2.23292,-0.122,-0.05832,0.44158,5,2U1D,1.0,False,0.308,9,True,left,0.0,0.2651,0.7072,0.4421,1.541,2.0401,0.4991,A
176,0.49991,1.2,2,0.39993,0.3666,0.42492,176,2.11628,-0.158,-0.07499,0.42492,5,2U1D,1.0,True,0.459,9,False,left,0.0,1.3287,1.754,0.4252,0.4033,0.9032,0.4999,V
177,0.49991,0.1,2,0.44158,0.43325,0.61655,177,2.70782,0.434,0.21663,0.71653,5,3D1U,2.0,True,0.417,4,True,right,0.0,1.5609,2.2775,0.7166,0.4438,0.9448,0.501,A
178,0.49991,1.2,1,0.23329,0.23329,0.55823,178,1.94964,-0.158,-0.07499,0.42492,5,2U1D,2.0,True,0.816,9,False,right,0.0,0.2399,0.6655,0.4256,1.2233,1.724,0.5007,A
179,0.49991,0.1,2,0.23329,0.32494,0.59989,179,1.97464,-0.366,-0.1833,0.31661,5,3U1D,1.0,True,1.534,6,True,left,0.0,1.3395,1.6562,0.3167,0.2384,0.7388,0.5004,V
180,0.49991,1.2,1,0.24995,0.24162,0.84151,180,2.62451,0.582,0.29161,0.79152,5,2D1U,1.0,True,3.716,9,True,left,0.0,0.2589,1.0514,0.7925,1.8924,2.3924,0.5001,V
181,0.49991,0.1,2,0.26662,0.28328,0.84151,181,2.60785,0.434,0.21663,0.71653,5,3D1U,2.0,True,0.3,4,True,right,0.0,1.6113,2.3278,0.7165,0.2694,0.7686,0.4992,A
182,0.49991,1.2,2,0.23329,0.33327,0.53323,182,2.04128,-0.122,-0.05832,0.44158,5,2U1D,1.0,True,2.017,10,True,left,0.0,1.2694,1.7102,0.4407,0.2359,0.7354,0.4994,A
183,0.49991,0.1,2,0.3416,0.20829,0.80818,183,2.17459,-0.366,-0.1833,0.31661,5,3U1D,1.0,True,0.242,6,True,left,0.0,1.6597,1.9764,0.3167,0.3524,0.8522,0.4998,A
184,0.49991,1.2,1,0.40826,0.25829,0.61655,184,2.11628,-0.33,-0.16664,0.33327,5,3U1D,2.0,True,0.126,6,False,right,0.0,0.4124,0.7459,0.3335,1.3619,1.8614,0.4995,A
185,0.49991,0.1,1,0.31661,0.43325,0.54157,185,2.58286,0.582,0.29161,0.79152,5,2D1U,1.0,True,0.11,9,True,left,0.0,0.3196,1.1126,0.793,1.6541,2.1542,0.5001,A
186,0.49991,1.2,2,0.37493,0.30828,0.87484,186,2.75783,0.398,0.19996,0.69987,5,3D1U,2.0,True,0.325,4,False,right,0.0,1.7579,2.4568,0.6988,0.3826,0.8827,0.5001,A
187,0.49991,0.1,2,0.44158,0.27495,0.44992,187,1.99963,-0.33,-0.16664,0.33327,5,3U1D,1.0,True,0.366,6,False,left,0.0,1.3936,1.728,0.3344,0.4448,0.944,0.4992,A
188,0.49991,1.2,2,0.33327,0.35827,0.80818,188,2.77449,0.546,0.27495,0.77486,5,2D1U,1.0,False,0.61,10,True,left,0.0,1.6474,2.4229,0.7755,0.339,0.8394,0.5004,V
189,0.49991,0.1,2,0.40826,0.23329,0.59989,189,2.53287,0.582,0.29161,0.79152,5,2D1U,2.0,True,0.699,11,True,right,0.0,1.5139,2.3054,0.7915,0.4143,0.9137,0.4994,A
190,0.49991,1.2,2,0.35827,0.24995,0.49158,190,2.04129,-0.122,-0.05832,0.44158,5,2U1D,2.0,False,1.517,10,True,right,0.0,1.3549,1.7964,0.4415,0.3634,0.8627,0.4994,A
191,0.49991,0.1,1,0.25829,0.28328,0.88317,191,2.62452,0.398,0.19996,0.69987,5,3D1U,2.0,False,0.783,4,False,right,0.0,0.2643,0.9641,0.6998,1.8469,2.3481,0.5012,V
192,0.49991,1.2,1,0.27495,0.40826,0.7082,192,2.31624,-0.158,-0.07499,0.42492,5,2U1D,1.0,False,1.251,11,True,left,0.0,0.2818,0.7076,0.4258,1.4153,1.9154,0.5001,A
193,0.49991,0.1,2,0.21663,0.28328,0.76652,193,2.55786,0.582,0.29161,0.79152,5,2D1U,2.0,True,1.059,11,True,right,0.0,1.4919,2.2839,0.792,0.2256,0.7251,0.4994,V
194,0.49991,1.2,2,0.19996,0.21663,0.56656,194,2.19959,0.434,0.21663,0.71653,5,3D1U,1.0,False,0.334,5,True,left,0.0,1.2696,1.9865,0.7169,0.203,0.702,0.4989,A
195,0.49991,0.1,2,0.35827,0.23329,0.7082,195,2.13294,-0.33,-0.16664,0.33327,5,3U1D,1.0,True,0.833,6,False,left,0.0,1.5771,1.9095,0.3324,0.3682,0.8688,0.5005,V
196,0.49991,1.2,2,0.23329,0.41659,0.49158,196,1.9913,-0.294,-0.14997,0.34993,5,3U1D,2.0,False,0.659,6,False,right,0.0,1.2318,1.5824,0.3505,0.2406,0.7399,0.4993,A
197,0.49991,0.1,2,0.20829,0.31661,0.49991,197,1.92465,-0.194,-0.09998,0.39993,5,2U1D,1.0,True,0.526,11,False,left,0.0,1.2147,1.6146,0.4,0.214,0.715,0.501,A
198,0.49991,1.2,2,0.33327,0.21663,0.79985,198,2.58286,0.47,0.23329,0.7332,5,3D1U,2.0,True,0.434,5,False,right,0.0,1.6426,2.3758,0.7332,0.3424,0.843,0.5006,V
199,0.49991,0.1,1,0.24162,0.37493,0.77486,199,2.62452,0.47,0.23329,0.7332,5,3D1U,2.0,False,1.742,5,False,right,0.0,0.25,0.9836,0.7336,1.7597,2.2581,0.4985,A
200,0.49991,1.2,2,0.37493,0.31661,0.62488,200,2.59119,0.546,0.27495,0.77486,5,2D1U,1.0,False,0.316,12,True,left,0.0,1.5028,2.2776,0.7748,0.3791,0.8791,0.5,A
201,0.49991,0.1,2,0.41659,0.40826,0.45825,201,2.11628,-0.33,-0.16664,0.33327,5,3U1D,1.0,True,1.359,7,True,left,0.0,1.3841,1.7187,0.3345,0.4259,0.926,0.5002,A
202,0.49991,1.2,1,0.24995,0.29161,0.61655,202,2.40788,0.506,0.24995,0.74986,5,3D1U,1.0,True,0.399,5,False,left,0.0,0.2533,1.0025,0.7492,1.6197,2.12,0.5003,A
203,0.49991,0.1,1,0.40826,0.44158,0.75819,203,2.8578,0.506,0.24995,0.74986,5,3D1U,1.0,True,0.8,5,False,left,0.0,0.4122,1.1623,0.7501,1.9213,2.4208,0.4995,V
204,0.49991,1.2,2,0.24162,0.26662,0.84151,204,2.24959,-0.194,-0.09998,0.39993,5,2U1D,2.0,False,0.567,11,False,right,0.0,1.5911,1.9917,0.4005,0.2495,0.7505,0.501,A
205,0.49991,0.1,1,0.31661,0.23329,0.46658,205,2.30791,0.582,0.29161,0.79152,5,2D1U,2.0,False,1.259,13,True,right,0.0,0.3198,1.1119,0.7921,1.5774,2.0771,0.4997,V
206,0.49991,1.2,1,0.43325,0.21663,0.5499,206,2.03296,-0.33,-0.16664,0.33327,5,3U1D,2.0,True,0.544,7,True,right,0.0,0.4402,0.7741,0.3339,1.3231,1.8236,0.5005,V
207,0.49991,0.1,2,0.31661,0.29161,0.66654,207,2.58285,0.618,0.30828,0.80818,5,2D1U,2.0,True,0.916,13,False,right,0.0,1.4865,2.2937,0.8071,0.3188,0.8198,0.501,A
208,0.49991,1.2,2,0.27495,0.23329,0.79985,208,2.19126,-0.23,-0.11664,0.38326,5,2U1D,1.0,True,0.641,11,False,left,0.0,1.5777,1.9612,0.3836,0.2784,0.7774,0.4991,A
