,standardDur,audNoise,order,preDur,postDur,isiDur,trial_num,totalDur,delta_dur_percents,deltaDurS,testDurS,intensities,current_stair,responses,is_correct,response_rts,stair_num_reversal,stair_is_reversal,response_keys,conflictDur,recordedOnsetVisualTest,recordedOffsetVisualTest,recordedDurVisualTest,recordedOnsetVisualStandard,recordedOffsetVisualStandard,recordedDurVisualStandard,modalityPostCue
0,0.50069,1.2,1,0.28373,0.30876,0.50904,0,1.75243,-0.7,-0.35048,0.15021,5,2U1D,2.0,True,1.031,0,False,right,0.0,0.2903,0.4406,0.1503,0.9479,1.4484,0.5005,A
1,0.50069,0.1,2,0.33379,0.27538,0.55076,1,2.5118,0.7,0.35048,0.85118,5,3D1U,2.0,True,0.233,0,False,right,0.0,1.3866,2.2368,0.8502,0.3363,0.8358,0.4995,V
2,0.50069,1.2,2,0.3171,0.23366,0.85118,2,2.75381,0.7,0.35048,0.85118,5,2D1U,1.0,False,0.283,0,False,left,0.0,1.6733,2.5235,0.8502,0.3224,0.8236,0.5012,V
3,0.50069,0.1,2,0.26704,0.42559,0.69262,3,1.93601,-0.9,-0.45062,0.05007,5,lapse_rate,1.0,True,0.201,0,False,left,0.0,1.4664,1.5162,0.0498,0.274,0.7742,0.5002,V
4,0.50069,0.1,1,0.44228,0.43393,0.80111,4,2.32822,-0.7,-0.35048,0.15021,5,3U1D,2.0,True,0.3,0,False,right,0.0,0.4443,0.5937,0.1494,1.3946,1.8938,0.4992,V
5,0.50069,1.2,1,0.22531,0.45062,0.75104,5,2.77884,0.7,0.35048,0.85118,5,3D1U,1.0,True,0.108,0,False,left,0.0,0.2325,1.0833,0.8509,1.8323,2.3335,0.5012,A
6,0.50069,0.1,2,0.43393,0.29207,0.8929,6,2.2698,-0.7,-0.35048,0.15021,5,2U1D,1.0,True,0.317,0,False,left,0.0,1.8313,1.9811,0.1498,0.4402,0.9396,0.4994,A
7,0.50069,1.2,2,0.37552,0.40055,0.69262,7,2.82056,0.7,0.35048,0.85118,5,3D1U,1.0,False,0.291,0,False,left,0.0,1.5718,2.4209,0.8491,0.3802,0.8792,0.4989,V
8,0.50069,0.1,2,0.39221,0.27538,0.44228,8,2.53684,0.85,0.42559,0.92628,5,2D1U,2.0,True,0.117,0,False,right,0.0,1.344,2.2678,0.9238,0.4012,0.9005,0.4993,V
9,0.50069,1.2,2,0.21697,0.22531,0.726,9,1.89428,-0.55,-0.27538,0.22531,5,2U1D,1.0,True,0.61,0,False,left,0.0,1.4504,1.6738,0.2234,0.2241,0.7248,0.5007,A
10,0.50069,1.2,2,0.41724,0.42559,0.55911,10,2.85394,0.9,0.45062,0.95131,5,lapse_rate,2.0,True,0.25,0,False,right,0.0,1.4819,2.432,0.9501,0.4236,0.9244,0.5008,A
11,0.50069,0.1,1,0.23366,0.36717,0.66759,11,1.91932,-0.7,-0.35048,0.15021,5,3U1D,2.0,True,0.3,0,False,right,0.0,0.2382,0.3881,0.1499,1.0554,1.5557,0.5003,A
12,0.50069,1.2,1,0.42559,0.25869,0.74269,12,2.07787,-0.7,-0.35048,0.15021,5,3U1D,2.0,True,0.251,0,False,right,0.0,0.4328,0.5827,0.1499,1.3245,1.8242,0.4997,A
13,0.50069,0.1,1,0.20028,0.26704,0.59249,13,2.48678,0.85,0.42559,0.92628,5,3D1U,1.0,True,0.249,0,False,left,0.0,0.2068,1.1309,0.9241,1.7236,2.2236,0.5,V
14,0.50069,0.1,2,0.242,0.23366,0.73435,14,2.66201,0.9,0.45062,0.95131,5,lapse_rate,2.0,True,0.116,0,False,right,0.0,1.4816,2.4316,0.95,0.2486,0.7489,0.5003,V
15,0.50069,1.2,2,0.30876,0.3171,0.71766,15,2.06952,-0.55,-0.27538,0.22531,5,2U1D,2.0,False,1.45,0,False,right,0.0,1.531,1.7572,0.2262,0.3155,0.8154,0.5,A
16,0.50069,0.1,1,0.29207,0.33379,0.85118,16,2.90401,0.85,0.42559,0.92628,5,2D1U,2.0,False,35.983,0,False,right,0.0,0.2978,1.2226,0.9248,2.0722,2.5725,0.5003,A
17,0.50069,1.2,2,0.33379,0.43393,0.65924,17,2.15296,-0.55,-0.27538,0.22531,5,3U1D,1.0,True,1.085,0,False,left,0.0,1.4996,1.7237,0.2241,0.3407,0.841,0.5003,A
18,0.50069,0.1,2,0.29207,0.4089,0.42559,18,2.62863,1.0,0.50069,1.00138,5,2D1U,2.0,True,0.368,0,False,right,0.0,1.2226,2.2227,1.0001,0.2974,0.7966,0.4993,A
19,0.50069,1.2,2,0.20862,0.30876,0.65924,19,2.60359,0.85,0.42559,0.92628,5,3D1U,2.0,True,0.292,0,False,right,0.0,1.373,2.2975,0.9245,0.215,0.7138,0.4988,V
20,0.50069,0.1,2,0.32545,0.22531,0.46731,20,1.70235,-0.64,-0.3171,0.18359,5,2U1D,1.0,True,0.334,1,True,left,0.0,1.2969,1.4791,0.1822,0.3296,0.8302,0.5006,V
21,0.50069,0.1,2,0.38386,0.41724,0.90124,21,3.15434,0.9,0.45062,0.95131,5,lapse_rate,2.0,True,0.384,0,False,right,0.0,1.7923,2.7423,0.95,0.3912,0.8925,0.5013,V
22,0.50069,1.2,2,0.36717,0.45062,0.484,22,2.02779,-0.55,-0.27538,0.22531,5,3U1D,1.0,True,0.208,0,False,left,0.0,1.3567,1.5809,0.2242,0.3727,0.8724,0.4997,A
23,0.50069,0.1,1,0.40055,0.36717,0.85952,23,3.07924,0.9,0.45062,0.95131,5,lapse_rate,2.0,False,0.158,0,False,right,0.0,0.4076,1.3575,0.9499,2.2151,2.7167,0.5016,A
24,0.50069,0.1,2,0.28373,0.41724,0.73435,24,2.1196,-0.64,-0.3171,0.18359,5,2U1D,1.0,True,0.608,1,True,left,0.0,1.5259,1.7087,0.1828,0.2933,0.7927,0.4994,A
25,0.50069,1.2,1,0.4089,0.41724,0.41724,25,2.74545,1.0,0.50069,1.00138,5,2D1U,1.0,True,0.302,0,False,left,0.0,0.4193,1.4192,0.9999,1.8349,2.3358,0.5009,A
26,0.50069,0.1,1,0.32545,0.38386,0.53407,26,2.67035,0.85,0.42559,0.92628,5,3D1U,1.0,True,0.293,0,False,left,0.0,0.3341,1.2592,0.9251,1.7924,2.2915,0.4991,V
27,0.50069,1.2,2,0.45062,0.23366,0.60917,27,2.01945,-0.55,-0.27538,0.22531,5,3U1D,1.0,True,0.741,0,False,left,0.0,1.5612,1.7863,0.2251,0.453,0.9536,0.5006,A
28,0.50069,0.1,1,0.41724,0.29207,0.82614,28,2.24476,-0.586,-0.29207,0.20862,5,2U1D,2.0,True,0.141,2,True,right,0.0,0.4242,0.6323,0.208,1.4576,1.9587,0.5011,A
29,0.50069,1.2,1,0.36717,0.41724,0.8178,29,3.05421,0.91,0.45897,0.95131,5,2D1U,2.0,False,0.325,1,True,right,0.0,0.3716,1.3216,0.95,2.1384,2.6383,0.5,V
30,0.50069,1.2,2,0.4089,0.34214,0.55911,30,2.76215,0.9,0.45062,0.95131,5,lapse_rate,2.0,True,0.54,0,False,right,0.0,1.469,2.4193,0.9502,0.412,0.9119,0.4998,A
31,0.50069,0.1,2,0.30041,0.33379,0.45062,31,2.46172,0.76,0.38386,0.87621,5,3D1U,2.0,True,0.301,1,True,right,0.0,1.2567,2.1305,0.8738,0.3071,0.806,0.4988,A
32,0.50069,1.2,2,0.36717,0.25035,0.79276,32,2.21138,-0.4,-0.20028,0.30041,5,3U1D,1.0,True,1.26,0,False,left,0.0,1.6644,1.965,0.3006,0.3734,0.8727,0.4992,V
33,0.50069,0.1,2,0.42559,0.4089,0.47566,33,2.68705,0.76,0.38386,0.87621,5,3D1U,2.0,True,0.591,1,True,right,0.0,1.4087,2.2831,0.8744,0.4334,0.9339,0.5005,A
34,0.50069,1.2,1,0.45062,0.35883,0.83449,34,2.35325,-0.586,-0.29207,0.20862,5,2U1D,2.0,True,0.692,2,True,right,0.0,0.4562,0.6644,0.2083,1.4977,1.9985,0.5008,V
35,0.50069,0.1,2,0.23366,0.22531,0.5758,35,2.52015,0.964,0.484,0.98469,5,2D1U,2.0,True,0.401,2,True,right,0.0,1.3116,2.2949,0.9833,0.2365,0.7379,0.5015,V
36,0.50069,1.2,2,0.38386,0.34214,0.84283,36,2.11959,-0.9,-0.45062,0.05007,5,lapse_rate,2.0,False,1.776,0,False,right,0.0,1.7321,1.7821,0.0501,0.3914,0.8909,0.4995,A
37,0.50069,1.2,1,0.40055,0.30876,0.64255,37,2.15296,-0.4,-0.20028,0.30041,5,3U1D,1.0,False,1.259,0,False,left,0.0,0.4049,0.7044,0.2995,1.3459,1.846,0.5001,A
38,0.50069,0.1,1,0.20862,0.36717,0.66759,38,2.72876,0.964,0.484,0.98469,5,2D1U,1.0,True,79.658,2,True,left,0.0,0.2149,1.1977,0.9828,1.8641,2.3644,0.5004,A
39,0.50069,1.2,1,0.20028,0.40055,0.80111,39,2.77884,0.76,0.38386,0.87621,5,3D1U,1.0,True,0.316,1,True,left,0.0,0.2021,1.0776,0.8754,1.8773,2.377,0.4997,A
40,0.50069,0.1,2,0.37552,0.3171,0.75938,40,2.00276,-0.9,-0.45062,0.05007,5,lapse_rate,1.0,True,0.374,0,False,left,0.0,1.6373,1.6875,0.0502,0.3782,0.879,0.5008,V
41,0.50069,0.1,2,0.30876,0.26704,0.62586,41,1.93601,-0.532,-0.26704,0.23366,5,2U1D,1.0,True,0.384,2,False,left,0.0,1.4366,1.6698,0.2333,0.3124,0.812,0.4997,A
42,0.50069,1.2,2,0.36717,0.44228,0.70097,42,2.24477,-0.532,-0.26704,0.23366,5,2U1D,2.0,False,0.309,2,False,right,0.0,1.5706,1.8035,0.2329,0.3693,0.8703,0.501,V
43,0.50069,0.1,1,0.41724,0.21697,0.50069,43,2.47008,0.67,0.33379,0.83449,5,3D1U,2.0,False,0.268,1,False,right,0.0,0.4223,1.2561,0.8338,1.7561,2.2556,0.4995,A
44,0.50069,1.2,1,0.38386,0.30041,0.43393,44,1.87758,-0.49,-0.242,0.25869,5,3U1D,2.0,True,0.251,1,True,right,0.0,0.3915,0.6496,0.2581,1.0828,1.5828,0.5001,A
45,0.50069,0.1,1,0.20028,0.34214,0.5758,45,2.57022,0.91,0.45897,0.95131,5,2D1U,1.0,True,0.441,3,True,left,0.0,0.2064,1.1563,0.9499,1.7321,2.2308,0.4988,A
46,0.50069,1.2,2,0.28373,0.35883,0.79276,46,1.98608,-0.9,-0.45062,0.05007,5,lapse_rate,1.0,True,0.493,0,False,left,0.0,1.5832,1.633,0.0498,0.2917,0.7909,0.4992,V
47,0.50069,1.2,2,0.25035,0.44228,0.80945,47,2.26146,-0.49,-0.242,0.25869,5,3U1D,2.0,False,0.384,1,True,right,0.0,1.5632,1.8206,0.2575,0.2539,0.7538,0.4999,V
48,0.50069,0.1,2,0.33379,0.34214,0.87621,48,2.91235,0.724,0.35883,0.85952,5,3D1U,2.0,True,0.292,2,True,right,0.0,1.7109,2.5695,0.8587,0.3356,0.8356,0.5,V
49,0.50069,1.2,1,0.25035,0.20862,0.484,49,2.39497,0.9,0.45062,0.95131,5,lapse_rate,2.0,False,0.583,0,False,right,0.0,0.2554,1.2048,0.9494,1.6888,2.1879,0.4991,V
50,0.50069,1.2,2,0.242,0.26704,0.50904,50,2.47008,0.91,0.45897,0.95131,5,2D1U,2.0,True,0.376,3,True,right,0.0,1.2583,2.2086,0.9503,0.2492,0.7494,0.5002,A
51,0.50069,0.1,1,0.40055,0.44228,0.62586,51,2.178,-0.586,-0.29207,0.20862,5,2U1D,2.0,True,0.641,3,True,right,0.0,0.4045,0.6137,0.2092,1.2388,1.7385,0.4997,V
52,0.50069,1.2,2,0.242,0.35048,0.56745,52,2.52014,0.724,0.35883,0.85952,5,3D1U,1.0,False,0.325,2,True,left,0.0,1.3162,2.1751,0.8589,0.2494,0.75,0.5006,V
53,0.50069,0.1,1,0.27538,0.38386,0.50904,53,1.87759,-0.58,-0.29207,0.20862,5,3U1D,2.0,True,1.175,1,False,right,0.0,0.2832,0.4912,0.208,0.9993,1.4993,0.5,A
54,0.50069,1.2,1,0.38386,0.35048,0.67593,54,1.96103,-0.9,-0.45062,0.05007,5,lapse_rate,2.0,True,0.358,0,False,right,0.0,0.3873,0.4377,0.0504,1.1125,1.6123,0.4998,A
55,0.50069,1.2,2,0.34214,0.34214,0.88456,55,2.27815,-0.586,-0.29207,0.20862,5,2U1D,1.0,True,0.401,3,True,left,0.0,1.7279,1.9364,0.2084,0.3444,0.8447,0.5003,V
56,0.50069,0.1,2,0.27538,0.32545,0.6509,56,2.6787,0.856,0.42559,0.92628,5,2D1U,2.0,True,0.959,3,False,right,0.0,1.4283,2.3532,0.9249,0.2785,0.7782,0.4997,A
57,0.50069,1.2,1,0.45062,0.21697,0.53407,57,1.93601,-0.532,-0.26704,0.23366,5,2U1D,1.0,False,0.507,4,True,left,0.0,0.4534,0.6867,0.2333,1.2205,1.7209,0.5005,V
58,0.50069,0.1,2,0.26704,0.25869,0.60917,58,1.84421,-0.58,-0.29207,0.20862,5,3U1D,1.0,True,0.408,1,False,left,0.0,1.3797,1.5868,0.2072,0.2699,0.7702,0.5003,V
59,0.50069,0.1,1,0.33379,0.41724,0.484,59,1.78579,-0.9,-0.45062,0.05007,5,lapse_rate,2.0,True,0.35,0,False,right,0.0,0.3388,0.3887,0.0499,0.8719,1.3713,0.4994,A
60,0.50069,1.2,1,0.23366,0.32545,0.71766,60,2.70374,0.856,0.42559,0.92628,5,2D1U,1.0,True,1.642,3,False,left,0.0,0.2426,1.1676,0.925,1.8838,2.3843,0.5004,V
61,0.50069,0.1,1,0.34214,0.38386,0.58414,61,2.70373,0.778,0.39221,0.8929,5,3D1U,2.0,False,0.333,2,False,right,0.0,0.3495,1.2413,0.8918,1.8251,2.3246,0.4994,A
62,0.50069,1.2,1,0.23366,0.36717,0.64255,62,2.64531,0.802,0.40055,0.90124,5,2D1U,2.0,False,0.591,3,False,right,0.0,0.2386,1.1386,0.9,1.7812,2.2814,0.5002,A
63,0.50069,0.1,2,0.28373,0.42559,0.55076,63,1.96939,-0.586,-0.29207,0.20862,5,2U1D,1.0,True,0.333,5,True,left,0.0,1.3398,1.5474,0.2076,0.29,0.7893,0.4993,V
64,0.50069,1.2,2,0.25035,0.35048,0.5758,64,1.88594,-0.58,-0.29207,0.20862,5,3U1D,2.0,False,0.475,1,False,right,0.0,1.336,1.5437,0.2077,0.2598,0.7608,0.5011,A
65,0.50069,0.1,1,0.30041,0.40055,0.45062,65,1.70234,-0.9,-0.45062,0.05007,5,lapse_rate,2.0,True,0.975,0,False,right,0.0,0.3065,0.3559,0.0494,0.8054,1.3069,0.5015,A
66,0.50069,0.1,2,0.3171,0.32545,0.65924,66,2.72041,0.832,0.41724,0.91793,5,3D1U,2.0,True,0.309,2,False,right,0.0,1.4828,2.3994,0.9166,0.3248,0.8237,0.4989,V
67,0.50069,1.2,2,0.21697,0.25035,0.83449,67,1.85257,-0.9,-0.45062,0.05007,5,lapse_rate,1.0,True,0.942,0,False,left,0.0,1.5567,1.6072,0.0505,0.2234,0.7237,0.5003,A
68,0.50069,1.2,2,0.30041,0.26704,0.68428,68,1.96104,-0.586,-0.29207,0.20862,5,2U1D,1.0,True,3.158,5,True,left,0.0,1.4882,1.6954,0.2072,0.305,0.8038,0.4988,V
69,0.50069,0.1,2,0.4089,0.242,0.90124,69,2.97076,0.832,0.41724,0.91793,5,3D1U,2.0,True,0.143,2,False,right,0.0,1.8118,2.7285,0.9167,0.412,0.9121,0.5002,V
70,0.50069,1.2,2,0.3171,0.43393,0.8929,70,3.0709,0.856,0.42559,0.92628,5,2D1U,2.0,True,0.392,4,True,right,0.0,1.7109,2.6366,0.9256,0.3187,0.8201,0.5014,V
71,0.50069,0.1,2,0.32545,0.30876,0.90124,71,2.20304,-0.67,-0.33379,0.1669,5,3U1D,1.0,True,0.433,1,False,left,0.0,1.7275,1.895,0.1675,0.3284,0.8276,0.4992,A
72,0.50069,1.2,1,0.27538,0.27538,0.4089,72,2.37828,0.832,0.41724,0.91793,5,3D1U,2.0,False,0.426,2,False,right,0.0,0.28,1.1971,0.9171,1.6053,2.1048,0.4995,V
73,0.50069,0.1,2,0.34214,0.39221,0.68428,73,2.8456,0.856,0.42559,0.92628,5,2D1U,2.0,True,0.392,4,True,right,0.0,1.5346,2.4607,0.9261,0.3522,0.8513,0.4991,V
74,0.50069,1.2,2,0.38386,0.20028,0.88456,74,2.9207,0.9,0.45062,0.95131,5,lapse_rate,1.0,False,0.342,0,False,left,0.0,1.7709,2.7205,0.9497,0.3874,0.8882,0.5008,A
75,0.50069,1.2,1,0.43393,0.40055,0.85118,75,2.42001,-0.532,-0.26704,0.23366,5,2U1D,1.0,False,0.368,6,True,left,0.0,0.4436,0.6767,0.2331,1.5266,2.0257,0.4991,V
76,0.50069,0.1,1,0.30876,0.3171,0.726,76,2.01945,-0.67,-0.33379,0.1669,5,3U1D,2.0,True,0.392,1,False,right,0.0,0.3113,0.4787,0.1674,1.2028,1.704,0.5011,A
77,0.50069,1.2,1,0.3171,0.32545,0.8929,77,2.97911,0.886,0.44228,0.94297,5,3D1U,1.0,True,0.959,2,False,left,0.0,0.3258,1.2682,0.9424,2.1602,2.659,0.4988,A
78,0.50069,1.2,1,0.242,0.27538,0.85952,78,1.92766,-0.9,-0.45062,0.05007,5,lapse_rate,2.0,True,1.984,0,False,right,0.0,0.2516,0.3013,0.0496,1.1592,1.6586,0.4994,A
79,0.50069,0.1,2,0.20862,0.32545,0.86787,79,2.06953,-0.67,-0.33379,0.1669,5,3U1D,1.0,True,0.383,1,False,left,0.0,1.5826,1.7497,0.1671,0.2163,0.7155,0.4991,A
80,0.50069,1.2,2,0.44228,0.43393,0.87621,80,2.46173,-0.586,-0.29207,0.20862,5,2U1D,1.0,True,4.233,7,True,left,0.0,1.82,2.0283,0.2083,0.4449,0.945,0.5001,A
81,0.50069,0.1,2,0.25035,0.42559,0.84283,81,2.9207,0.802,0.40055,0.90124,5,2D1U,2.0,True,0.109,5,True,right,0.0,1.5998,2.4993,0.8995,0.2573,0.7582,0.5009,A
82,0.50069,1.2,2,0.35883,0.34214,0.42559,82,1.83587,-0.586,-0.29207,0.20862,5,2U1D,1.0,True,0.991,7,True,left,0.0,1.2904,1.4993,0.2089,0.3656,0.865,0.4993,A
83,0.50069,0.1,2,0.20862,0.36717,0.66759,83,2.68704,0.886,0.44228,0.94297,5,3D1U,2.0,True,0.592,2,False,right,0.0,1.3786,2.3198,0.9412,0.2109,0.7113,0.5004,A
84,0.50069,1.2,2,0.34214,0.3171,0.61752,84,1.96938,-0.616,-0.30876,0.19193,5,3U1D,1.0,True,0.934,2,True,left,0.0,1.4684,1.6599,0.1915,0.3515,0.8521,0.5006,A
85,0.50069,1.2,1,0.28373,0.35883,0.4089,85,2.50346,0.9,0.45062,0.95131,5,lapse_rate,1.0,True,0.301,0,False,left,0.0,0.2853,1.2356,0.9503,1.6448,2.144,0.4992,A
86,0.50069,0.1,1,0.44228,0.30041,0.484,86,2.62862,0.802,0.40055,0.90124,5,2D1U,1.0,True,0.475,5,True,left,0.0,0.4513,1.3514,0.9001,1.8351,2.3346,0.4995,V
87,0.50069,1.2,2,0.34214,0.37552,0.80945,87,2.97077,0.886,0.44228,0.94297,5,3D1U,2.0,True,0.274,2,False,right,0.0,1.6587,2.6006,0.942,0.3501,0.8502,0.5001,V
88,0.50069,0.1,1,0.39221,0.242,0.726,88,2.05283,-0.616,-0.30876,0.19193,5,3U1D,2.0,True,0.418,2,True,right,0.0,0.3944,0.5872,0.1927,1.3118,1.8114,0.4996,A
89,0.50069,1.2,1,0.34214,0.35048,0.4089,89,1.83587,-0.532,-0.26704,0.23366,5,2U1D,1.0,False,0.433,8,True,left,0.0,0.3504,0.5835,0.2331,0.9924,1.4923,0.4999,A
90,0.50069,0.1,2,0.26704,0.26704,0.726,90,2.63698,0.748,0.37552,0.87621,5,2D1U,2.0,True,0.108,5,False,right,0.0,1.4997,2.374,0.8743,0.2757,0.7746,0.4988,A
91,0.50069,0.1,1,0.38386,0.22531,0.86787,91,2.0278,-0.9,-0.45062,0.05007,5,lapse_rate,2.0,True,0.326,0,False,right,0.0,0.3883,0.4375,0.0492,1.305,1.8044,0.4994,V
92,0.50069,1.2,1,0.21697,0.21697,0.80111,92,1.92767,-0.616,-0.30876,0.19193,5,3U1D,1.0,False,0.517,2,True,left,0.0,0.2254,0.4172,0.1918,1.2174,1.7175,0.5001,V
93,0.50069,0.1,1,0.45062,0.4089,0.63421,93,2.20304,-0.586,-0.29207,0.20862,5,2U1D,2.0,True,0.309,9,True,right,0.0,0.4579,0.6664,0.2085,1.3005,1.7997,0.4992,A
94,0.50069,1.2,1,0.21697,0.37552,0.45897,94,2.42836,0.748,0.37552,0.87621,5,2D1U,1.0,True,0.259,5,False,left,0.0,0.2223,1.0977,0.8754,1.5563,2.0559,0.4996,V
95,0.50069,0.1,2,0.38386,0.44228,0.83449,95,3.07925,0.832,0.41724,0.91793,5,3D1U,2.0,True,0.451,3,True,right,0.0,1.7256,2.6422,0.9166,0.392,0.8916,0.4996,A
96,0.50069,0.1,1,0.22531,0.36717,0.60083,96,1.74407,-0.9,-0.45062,0.05007,5,lapse_rate,2.0,True,0.334,0,False,right,0.0,0.2328,0.283,0.0502,0.8833,1.383,0.4998,A
97,0.50069,1.2,2,0.28373,0.27538,0.45062,97,1.71904,-0.586,-0.29207,0.20862,5,2U1D,2.0,False,1.442,9,True,right,0.0,1.2396,1.4481,0.2085,0.29,0.7907,0.5006,A
98,0.50069,0.1,2,0.25869,0.20862,0.80111,98,1.93601,-0.67,-0.33379,0.1669,5,3U1D,1.0,True,0.417,3,True,left,0.0,1.5648,1.7326,0.1678,0.2658,0.7654,0.4996,A
99,0.50069,0.1,2,0.39221,0.40055,0.62586,99,1.96938,-0.9,-0.45062,0.05007,5,lapse_rate,1.0,True,0.349,0,False,left,0.0,1.5202,1.5706,0.0504,0.3952,0.8962,0.5009,V
100,0.50069,1.2,2,0.25869,0.20862,0.61752,100,2.42835,0.694,0.35048,0.84283,5,2D1U,2.0,True,0.266,5,False,right,0.0,1.3783,2.2197,0.8415,0.2616,0.7611,0.4995,A
101,0.50069,0.1,2,0.35883,0.41724,0.50069,101,2.69538,0.832,0.41724,0.91793,5,3D1U,2.0,True,0.116,3,True,right,0.0,1.368,2.2853,0.9173,0.368,0.8679,0.4999,V
102,0.50069,1.2,2,0.26704,0.20862,0.60917,102,1.75242,-0.67,-0.33379,0.1669,5,3U1D,1.0,True,0.4,3,True,left,0.0,1.3796,1.5469,0.1673,0.271,0.772,0.501,A
103,0.50069,1.2,2,0.20862,0.27538,0.78442,103,1.81918,-0.9,-0.45062,0.05007,5,lapse_rate,1.0,True,0.525,0,False,left,0.0,1.4976,1.548,0.0504,0.2153,0.7138,0.4986,V
104,0.50069,0.1,1,0.25869,0.25869,0.47566,104,2.33656,0.694,0.35048,0.84283,5,2D1U,1.0,True,0.35,5,False,left,0.0,0.2629,1.1052,0.8423,1.58,2.0793,0.4993,A
105,0.50069,1.2,2,0.35883,0.40055,0.75104,105,2.1947,-0.64,-0.3171,0.18359,5,2U1D,2.0,False,0.326,9,False,right,0.0,1.6158,1.8001,0.1843,0.3661,0.8657,0.4996,A
106,0.50069,0.1,2,0.30041,0.40055,0.59249,106,2.71207,0.832,0.41724,0.91793,5,3D1U,2.0,True,0.301,3,True,right,0.0,1.4011,2.3178,0.9167,0.3095,0.8083,0.4988,A
107,0.50069,0.1,1,0.29207,0.30876,0.8178,107,2.87063,0.9,0.45062,0.95131,5,lapse_rate,2.0,False,0.258,0,False,right,0.0,0.2966,1.2471,0.9504,2.0632,2.5627,0.4995,V
108,0.50069,1.2,2,0.27538,0.26704,0.67593,108,2.61194,0.778,0.39221,0.8929,5,3D1U,2.0,True,0.275,3,False,right,0.0,1.4579,2.3499,0.892,0.2828,0.7846,0.5017,V
109,0.50069,0.1,2,0.3171,0.28373,0.54242,109,2.46174,0.64,0.3171,0.8178,5,2D1U,2.0,True,0.333,5,False,right,0.0,1.3624,2.1789,0.8165,0.3208,0.8214,0.5006,V
110,0.50069,1.2,1,0.33379,0.44228,0.42559,110,1.86925,-0.67,-0.33379,0.1669,5,3U1D,2.0,True,0.75,3,True,right,0.0,0.3356,0.5032,0.1677,0.9281,1.4275,0.4994,A
111,0.50069,0.1,2,0.37552,0.38386,0.8929,111,2.30318,-0.694,-0.35048,0.15021,5,2U1D,1.0,True,0.167,9,False,left,0.0,1.7753,1.9255,0.1503,0.3837,0.8841,0.5004,A
112,0.50069,1.2,1,0.33379,0.43393,0.42559,112,1.88593,-0.616,-0.30876,0.19193,5,3U1D,1.0,False,0.401,4,True,left,0.0,0.3437,0.5353,0.1915,0.9594,1.4598,0.5004,V
113,0.50069,1.2,2,0.3171,0.4089,0.67593,113,2.85393,0.9,0.45062,0.95131,5,lapse_rate,2.0,True,0.209,0,False,right,0.0,1.4992,2.4492,0.9501,0.3251,0.8244,0.4993,A
114,0.50069,0.1,1,0.34214,0.38386,0.85952,114,2.97911,0.778,0.39221,0.8929,5,3D1U,1.0,True,0.2,3,False,left,0.0,0.347,1.2401,0.8931,2.0969,2.5967,0.4999,V
115,0.50069,1.2,1,0.29207,0.40055,0.85952,115,2.87063,0.64,0.3171,0.8178,5,2D1U,1.0,True,0.334,5,False,left,0.0,0.3013,1.1187,0.8175,1.9772,2.4769,0.4997,V
116,0.50069,0.1,2,0.36717,0.35048,0.51738,116,1.88593,-0.694,-0.35048,0.15021,5,2U1D,1.0,True,0.351,9,False,left,0.0,1.3879,1.538,0.15,0.3712,0.8718,0.5006,A
117,0.50069,0.1,2,0.37552,0.20862,0.62586,117,2.662,0.9,0.45062,0.95131,5,lapse_rate,2.0,True,0.301,0,False,right,0.0,1.5023,2.4533,0.951,0.3781,0.8776,0.4994,A
118,0.50069,1.2,2,0.20028,0.37552,0.8929,118,2.15298,-0.64,-0.3171,0.18359,5,2U1D,1.0,True,0.284,10,True,left,0.0,1.5979,1.781,0.1831,0.2062,0.7056,0.4993,A
119,0.50069,0.1,2,0.28373,0.43393,0.60917,119,2.72042,0.778,0.39221,0.8929,5,3D1U,2.0,True,0.34,3,False,right,0.0,1.3986,2.2895,0.8909,0.2894,0.7907,0.5013,A
120,0.50069,1.2,2,0.20862,0.35883,0.45897,120,1.69401,-0.67,-0.33379,0.1669,5,3U1D,1.0,True,1.017,5,True,left,0.0,1.173,1.3404,0.1674,0.2143,0.7148,0.5004,A
121,0.50069,0.1,2,0.3171,0.37552,0.67593,121,2.662,0.586,0.29207,0.79276,5,2D1U,2.0,True,0.384,5,False,right,0.0,1.4971,2.2894,0.7923,0.3222,0.8212,0.499,A
122,0.50069,1.2,2,0.21697,0.23366,0.47566,122,2.21974,0.586,0.29207,0.79276,5,2D1U,2.0,True,0.292,5,False,right,0.0,1.1966,1.9882,0.7916,0.2214,0.7206,0.4993,V
123,0.50069,0.1,2,0.41724,0.35883,0.42559,123,2.56187,0.724,0.35883,0.85952,5,3D1U,2.0,True,0.475,3,False,right,0.0,1.3453,2.2036,0.8584,0.4201,0.9194,0.4993,A
124,0.50069,0.1,1,0.20862,0.27538,0.52573,124,2.46173,0.9,0.45062,0.95131,5,lapse_rate,1.0,True,0.366,0,False,left,0.0,0.2124,1.1632,0.9508,1.6873,2.1879,0.5006,V
125,0.50069,1.2,1,0.21697,0.45062,0.8929,125,2.24477,-0.64,-0.3171,0.18359,5,2U1D,2.0,True,0.233,10,True,right,0.0,0.2223,0.4047,0.1823,1.297,1.7969,0.4998,A
126,0.50069,0.1,1,0.35048,0.41724,0.87621,126,2.31152,-0.67,-0.33379,0.1669,5,3U1D,2.0,True,0.351,5,True,right,0.0,0.3573,0.5249,0.1676,1.4,1.8991,0.4991,A
127,0.50069,1.2,1,0.32545,0.3171,0.86787,127,2.77884,0.532,0.26704,0.76773,5,2D1U,1.0,True,0.374,5,False,left,0.0,0.3268,1.0936,0.7667,1.9607,2.4608,0.5001,A
128,0.50069,0.1,2,0.44228,0.34214,0.45897,128,1.91098,-0.67,-0.33379,0.1669,5,3U1D,1.0,True,0.242,5,True,left,0.0,1.4097,1.5767,0.167,0.4521,0.9517,0.4995,A
129,0.50069,1.2,2,0.41724,0.40055,0.42559,129,1.95269,-0.586,-0.29207,0.20862,5,2U1D,1.0,True,0.343,10,False,left,0.0,1.345,1.5533,0.2083,0.42,0.921,0.501,V
130,0.50069,0.1,1,0.25035,0.25035,0.8178,130,2.67871,0.724,0.35883,0.85952,5,3D1U,1.0,True,0.366,3,False,left,0.0,0.2594,1.1179,0.8585,1.9343,2.4344,0.5001,V
131,0.50069,1.2,1,0.39221,0.45062,0.66759,131,2.06118,-0.9,-0.45062,0.05007,5,lapse_rate,2.0,True,0.209,0,False,right,0.0,0.3961,0.4457,0.0496,1.1116,1.6128,0.5012,V
132,0.50069,1.2,1,0.33379,0.23366,0.726,132,2.74545,0.9,0.45062,0.95131,5,lapse_rate,2.0,False,0.284,0,False,right,0.0,0.3358,1.2857,0.95,2.0115,2.5108,0.4993,V
133,0.50069,1.2,1,0.42559,0.29207,0.67593,133,2.08621,-0.616,-0.30876,0.19193,5,3U1D,2.0,True,0.267,6,True,right,0.0,0.4317,0.6243,0.1926,1.2995,1.7995,0.5,A
134,0.50069,0.1,2,0.22531,0.43393,0.62586,134,2.55352,0.532,0.26704,0.76773,5,2D1U,2.0,True,0.192,5,False,right,0.0,1.3564,2.1312,0.7747,0.2308,0.73,0.4992,V
135,0.50069,1.2,2,0.34214,0.33379,0.87621,135,2.91235,0.724,0.35883,0.85952,5,3D1U,2.0,True,0.251,3,False,right,0.0,1.7249,2.5833,0.8585,0.3509,0.8499,0.499,V
136,0.50069,0.1,2,0.38386,0.25035,0.84283,136,2.18635,-0.586,-0.29207,0.20862,5,2U1D,1.0,True,0.292,10,False,left,0.0,1.7301,1.9382,0.2082,0.3889,0.8893,0.5004,A
137,0.50069,1.2,1,0.40055,0.37552,0.53407,137,2.55352,0.478,0.242,0.74269,5,2D1U,2.0,False,0.259,5,False,right,0.0,0.4024,1.1437,0.7414,1.677,2.1782,0.5012,A
138,0.50069,0.1,2,0.30876,0.38386,0.79276,138,2.82056,0.67,0.33379,0.83449,5,3D1U,2.0,True,0.225,3,False,right,0.0,1.608,2.4411,0.8331,0.3163,0.816,0.4997,V
139,0.50069,0.1,2,0.3171,0.25869,0.60917,139,2.63696,0.9,0.45062,0.95131,5,lapse_rate,2.0,True,0.317,0,False,right,0.0,1.4294,2.3792,0.9497,0.3209,0.8213,0.5004,V
140,0.50069,1.2,2,0.37552,0.30041,0.4089,140,1.81918,-0.532,-0.26704,0.23366,5,2U1D,1.0,True,0.358,10,False,left,0.0,1.2888,1.5231,0.2342,0.3807,0.8817,0.5011,V
141,0.50069,0.1,2,0.40055,0.242,0.70097,141,2.03614,-0.616,-0.30876,0.19193,5,3U1D,1.0,True,0.384,6,True,left,0.0,1.604,1.7953,0.1913,0.4032,0.903,0.4998,V
142,0.50069,1.2,2,0.22531,0.35048,0.8929,142,2.16131,-0.616,-0.30876,0.19193,5,3U1D,1.0,True,1.001,6,True,left,0.0,1.6236,1.8151,0.1914,0.2313,0.731,0.4997,V
143,0.50069,0.1,1,0.37552,0.242,0.60083,143,1.9527,-0.532,-0.26704,0.23366,5,2U1D,2.0,True,0.334,10,False,right,0.0,0.3843,0.6171,0.2329,1.2165,1.7175,0.501,A
144,0.50069,1.2,1,0.43393,0.30876,0.67593,144,2.68704,0.532,0.26704,0.76773,5,2D1U,1.0,True,1.408,6,True,left,0.0,0.4417,1.2087,0.767,1.8839,2.3833,0.4994,A
145,0.50069,0.1,2,0.3171,0.242,0.75104,145,2.64532,0.67,0.33379,0.83449,5,3D1U,2.0,True,0.326,3,False,right,0.0,1.5719,2.4049,0.833,0.3217,0.8221,0.5004,V
146,0.50069,1.2,1,0.22531,0.44228,0.47566,146,1.90263,-0.478,-0.242,0.25869,5,2U1D,1.0,False,0.483,10,False,left,0.0,0.2341,0.4932,0.2591,0.968,1.4683,0.5003,A
147,0.50069,0.1,1,0.242,0.242,0.60917,147,2.36159,0.532,0.26704,0.76773,5,2D1U,1.0,True,0.391,6,True,left,0.0,0.2472,1.013,0.7658,1.6212,2.1213,0.5001,A
148,0.50069,1.2,1,0.30041,0.42559,0.74269,148,2.18635,-0.562,-0.28373,0.21697,5,3U1D,2.0,True,0.217,6,False,right,0.0,0.3031,0.5189,0.2158,1.2615,1.7607,0.4992,V
149,0.50069,0.1,1,0.38386,0.37552,0.80111,149,2.89567,0.67,0.33379,0.83449,5,3D1U,1.0,True,0.452,3,False,left,0.0,0.3903,1.2235,0.8332,2.0237,2.5246,0.5008,A
150,0.50069,1.2,1,0.20862,0.25035,0.66759,150,1.86091,-0.532,-0.26704,0.23366,5,2U1D,1.0,False,1.783,11,True,left,0.0,0.2123,0.4441,0.2318,1.1123,1.611,0.4987,A
151,0.50069,0.1,1,0.30876,0.22531,0.85952,151,2.63697,0.478,0.242,0.74269,5,2D1U,2.0,False,0.317,7,True,right,0.0,0.3122,1.0549,0.7427,1.912,2.413,0.501,A
152,0.50069,1.2,2,0.38386,0.20862,0.45062,152,2.35324,0.616,0.30876,0.80945,5,3D1U,1.0,False,0.383,3,False,left,0.0,1.3366,2.1447,0.8081,0.3852,0.8863,0.5012,A
153,0.50069,0.1,1,0.38386,0.26704,0.63421,153,1.99442,-0.586,-0.29207,0.20862,5,2U1D,2.0,True,0.293,11,False,right,0.0,0.3917,0.5989,0.2073,1.2332,1.7323,0.4991,A
154,0.50069,1.2,1,0.25035,0.22531,0.55911,154,2.30319,0.532,0.26704,0.76773,5,2D1U,1.0,True,0.501,8,True,left,0.0,0.2554,1.023,0.7676,1.5806,2.0806,0.5001,A
155,0.50069,0.1,2,0.32545,0.25035,0.726,155,2.01946,-0.562,-0.28373,0.21697,5,3U1D,1.0,True,0.374,6,False,left,0.0,1.5562,1.7728,0.2166,0.3311,0.8319,0.5008,A
156,0.50069,1.2,1,0.30041,0.43393,0.40055,156,1.85255,-0.562,-0.28373,0.21697,5,3U1D,1.0,False,0.625,6,False,left,0.0,0.3053,0.5221,0.2168,0.9213,1.4223,0.501,V
157,0.50069,0.1,1,0.42559,0.35048,0.41724,157,1.88593,-0.616,-0.30876,0.19193,5,3U1D,2.0,True,0.352,7,True,right,0.0,0.4331,0.6241,0.1909,1.0406,1.5417,0.5011,A
158,0.50069,1.2,2,0.35883,0.30876,0.70931,158,2.06952,-0.616,-0.30876,0.19193,5,3U1D,1.0,True,0.357,7,True,left,0.0,1.5696,1.761,0.1914,0.3621,0.8607,0.4986,A
159,0.50069,0.1,2,0.27538,0.41724,0.45897,159,1.8609,-0.586,-0.29207,0.20862,5,2U1D,1.0,True,0.601,11,False,left,0.0,1.2378,1.4455,0.2077,0.2795,0.7782,0.4986,V
160,0.50069,1.2,2,0.35048,0.35048,0.69262,160,2.662,0.532,0.26704,0.76773,5,2D1U,2.0,True,0.343,8,True,right,0.0,1.5538,2.3184,0.7647,0.3602,0.8603,0.5001,V
161,0.50069,0.1,2,0.39221,0.41724,0.70097,161,2.8456,0.67,0.33379,0.83449,5,3D1U,1.0,False,0.458,4,True,left,0.0,1.5962,2.4299,0.8336,0.3959,0.8969,0.5011,A
162,0.50069,1.2,2,0.25869,0.32545,0.50069,162,2.32821,0.478,0.242,0.74269,5,2D1U,2.0,True,0.292,9,True,right,0.0,1.2641,2.0057,0.7416,0.2639,0.7628,0.4989,V
163,0.50069,0.1,1,0.39221,0.25869,0.55911,163,2.57022,0.724,0.35883,0.85952,5,3D1U,1.0,True,0.399,4,False,left,0.0,0.4016,1.2594,0.8577,1.8174,2.3183,0.5009,A
164,0.50069,1.2,2,0.3171,0.41724,0.73435,164,2.8289,0.724,0.35883,0.85952,5,3D1U,2.0,True,0.285,4,False,right,0.0,1.5563,2.4155,0.8592,0.3233,0.823,0.4997,A
165,0.50069,0.1,1,0.20028,0.25035,0.88456,165,2.02781,-0.616,-0.30876,0.19193,5,3U1D,2.0,True,0.358,7,True,right,0.0,0.2083,0.4001,0.1918,1.2831,1.7833,0.5001,V
166,0.50069,1.2,2,0.26704,0.43393,0.45897,166,1.89429,-0.532,-0.26704,0.23366,5,2U1D,2.0,False,1.025,12,True,right,0.0,1.2283,1.4612,0.2328,0.2686,0.7686,0.5,A
167,0.50069,0.1,2,0.34214,0.3171,0.47566,167,1.84421,-0.586,-0.29207,0.20862,5,2U1D,1.0,True,0.352,13,True,left,0.0,1.3271,1.5354,0.2083,0.3526,0.8519,0.4993,A
168,0.50069,1.2,2,0.32545,0.36717,0.45897,168,1.86925,-0.562,-0.28373,0.21697,5,3U1D,2.0,False,0.818,8,True,right,0.0,1.2897,1.506,0.2164,0.3315,0.8324,0.5009,A
169,0.50069,0.1,1,0.28373,0.242,0.88456,169,2.65367,0.478,0.242,0.74269,5,2D1U,1.0,True,0.41,9,True,left,0.0,0.2921,1.0341,0.742,1.9176,2.4167,0.4992,A
170,0.50069,1.2,2,0.242,0.34214,0.484,170,2.42835,0.724,0.35883,0.85952,5,3D1U,2.0,True,0.342,4,False,right,0.0,1.2344,2.0927,0.8582,0.2516,0.7517,0.5001,A
171,0.50069,0.1,2,0.27538,0.25035,0.49235,171,2.35326,0.67,0.33379,0.83449,5,3D1U,2.0,True,0.326,5,True,right,0.0,1.2712,2.1039,0.8326,0.2788,0.7798,0.501,A
172,0.50069,1.2,2,0.20862,0.37552,0.87621,172,2.15297,-0.616,-0.30876,0.19193,5,3U1D,1.0,True,0.325,9,True,left,0.0,1.5896,1.7812,0.1916,0.214,0.7147,0.5006,A
173,0.50069,0.1,2,0.41724,0.44228,0.726,173,2.29483,-0.586,-0.29207,0.20862,5,2U1D,1.0,True,0.2,13,True,left,0.0,1.6498,1.8585,0.2086,0.4245,0.9248,0.5003,V
174,0.50069,1.2,2,0.4089,0.23366,0.50069,174,2.47843,0.67,0.33379,0.83449,5,3D1U,2.0,True,1.149,5,True,right,0.0,1.4134,2.2466,0.8331,0.4137,0.9128,0.4992,A
175,0.50069,0.1,2,0.36717,0.21697,0.76773,175,2.56187,0.424,0.20862,0.70931,5,2D1U,2.0,True,0.841,9,False,right,0.0,1.638,2.3458,0.7079,0.3709,0.8714,0.5005,V
176,0.50069,1.2,1,0.27538,0.29207,0.61752,176,2.39497,0.424,0.20862,0.70931,5,2D1U,1.0,True,0.468,9,False,left,0.0,0.2815,0.9901,0.7086,1.6058,2.1065,0.5007,A
177,0.50069,0.1,1,0.41724,0.35883,0.45062,177,2.56187,0.67,0.33379,0.83449,5,3D1U,1.0,True,0.225,5,True,left,0.0,0.4196,1.2538,0.8341,1.7026,2.2034,0.5009,V
178,0.50069,1.2,2,0.4089,0.32545,0.55076,178,2.59525,0.616,0.30876,0.80945,5,3D1U,1.0,False,0.634,5,False,left,0.0,1.4609,2.2696,0.8087,0.4108,0.9106,0.4997,V
179,0.50069,0.1,2,0.38386,0.37552,0.53407,179,1.98607,-0.616,-0.30876,0.19193,5,3U1D,1.0,True,0.234,9,True,left,0.0,1.423,1.6152,0.1922,0.391,0.8902,0.4992,V
180,0.50069,1.2,2,0.30876,0.30041,0.60917,180,2.40331,0.37,0.18359,0.68428,5,2D1U,2.0,True,0.325,9,False,right,0.0,1.4218,2.1048,0.683,0.3137,0.8135,0.4998,A
181,0.50069,0.1,2,0.23366,0.30041,0.71766,181,1.98608,-0.532,-0.26704,0.23366,5,2U1D,1.0,True,0.3,14,True,left,0.0,1.4554,1.6885,0.2331,0.2387,0.7381,0.4994,A
182,0.50069,1.2,2,0.25869,0.20862,0.45897,182,1.66063,-0.532,-0.26704,0.23366,5,2U1D,1.0,True,2.008,14,True,left,0.0,1.2207,1.4559,0.2352,0.2629,0.7636,0.5007,A
183,0.50069,0.1,1,0.23366,0.40055,0.65924,183,2.47842,0.37,0.18359,0.68428,5,2D1U,1.0,True,0.342,9,False,left,0.0,0.2393,0.9223,0.683,1.5816,2.0816,0.5,V
184,0.50069,1.2,2,0.36717,0.28373,0.75938,184,2.1029,-0.616,-0.30876,0.19193,5,3U1D,1.0,True,0.375,9,True,left,0.0,1.6315,1.8232,0.1917,0.3724,0.8724,0.5,V
185,0.50069,0.1,2,0.23366,0.36717,0.50904,185,2.44505,0.67,0.33379,0.83449,5,3D1U,2.0,True,0.267,6,True,right,0.0,1.2443,2.078,0.8338,0.2356,0.7357,0.5001,A
186,0.50069,1.2,2,0.25869,0.42559,0.58414,186,2.0278,-0.478,-0.242,0.25869,5,2U1D,1.0,True,0.599,14,False,left,0.0,1.3449,1.6022,0.2573,0.2614,0.7605,0.4991,V
187,0.50069,0.1,1,0.23366,0.27538,0.63421,187,2.47843,0.67,0.33379,0.83449,5,3D1U,1.0,True,0.201,6,True,left,0.0,0.2417,1.0761,0.8344,1.7085,2.2095,0.501,V
188,0.50069,1.2,1,0.32545,0.25869,0.87621,188,2.21973,-0.478,-0.242,0.25869,5,2U1D,2.0,True,0.384,14,False,right,0.0,0.3287,0.5877,0.259,1.4628,1.9622,0.4994,A
189,0.50069,0.1,1,0.20028,0.20862,0.71766,189,1.84422,-0.562,-0.28373,0.21697,5,3U1D,2.0,True,0.599,10,True,right,0.0,0.2085,0.4255,0.217,1.142,1.6425,0.5005,V
190,0.50069,1.2,2,0.26704,0.30876,0.75938,190,2.49511,0.316,0.15855,0.65924,5,2D1U,1.0,False,0.375,9,False,left,0.0,1.5333,2.1925,0.6593,0.2755,0.7751,0.4996,A
191,0.50069,0.1,2,0.39221,0.40055,0.49235,191,2.62029,0.67,0.33379,0.83449,5,3D1U,2.0,True,0.351,6,True,right,0.0,1.3889,2.2229,0.8339,0.3975,0.8977,0.5003,A
192,0.50069,1.2,1,0.40055,0.25869,0.70931,192,2.08621,-0.562,-0.28373,0.21697,5,3U1D,2.0,True,0.634,10,True,right,0.0,0.4053,0.6224,0.2171,1.3303,1.8311,0.5008,A
193,0.50069,0.1,1,0.38386,0.37552,0.70931,193,2.26145,-0.424,-0.20862,0.29207,5,2U1D,2.0,True,0.743,14,False,right,0.0,0.3895,0.6809,0.2914,1.3888,1.8886,0.4998,V
194,0.50069,1.2,1,0.20862,0.28373,0.76773,194,2.44505,0.37,0.18359,0.68428,5,2D1U,2.0,False,0.584,10,True,right,0.0,0.2162,0.9005,0.6843,1.6671,2.1664,0.4993,V
195,0.50069,0.1,2,0.23366,0.25869,0.60083,195,2.40332,0.616,0.30876,0.80945,5,3D1U,1.0,False,0.392,7,True,left,0.0,1.3386,2.1462,0.8076,0.2379,0.7381,0.5003,A
196,0.50069,1.2,1,0.36717,0.4089,0.8178,196,2.31153,-0.562,-0.28373,0.21697,5,3U1D,2.0,True,0.392,10,True,right,0.0,0.3742,0.5912,0.217,1.4081,1.9067,0.4987,A
197,0.50069,0.1,2,0.242,0.36717,0.53407,197,1.936,-0.424,-0.20862,0.29207,5,2U1D,1.0,True,0.275,14,False,left,0.0,1.2815,1.5734,0.2919,0.2484,0.7487,0.5004,A
198,0.50069,1.2,1,0.20862,0.3171,0.70931,198,1.97772,-0.508,-0.25035,0.242,5,3U1D,1.0,False,0.542,10,False,left,0.0,0.216,0.4579,0.2419,1.167,1.666,0.4991,A
199,0.50069,0.1,1,0.22531,0.22531,0.44228,199,2.1029,0.424,0.20862,0.70931,5,2D1U,1.0,True,0.343,10,False,left,0.0,0.2285,0.9359,0.7074,1.3785,1.8774,0.4989,A
200,0.50069,1.2,1,0.43393,0.42559,0.75104,200,2.82056,0.424,0.20862,0.70931,5,2D1U,2.0,False,0.425,10,False,right,0.0,0.4416,1.1498,0.7082,1.901,2.3997,0.4988,A
201,0.50069,0.1,2,0.29207,0.23366,0.726,201,2.58691,0.67,0.33379,0.83449,5,3D1U,2.0,True,0.309,8,True,right,0.0,1.5276,2.3605,0.8328,0.3022,0.8015,0.4992,V
202,0.50069,1.2,2,0.33379,0.21697,0.56745,202,1.83587,-0.562,-0.28373,0.21697,5,3U1D,1.0,True,0.451,11,True,left,0.0,1.4048,1.6208,0.216,0.3383,0.8374,0.4991,V
203,0.50069,0.1,2,0.22531,0.35048,0.45897,203,1.75242,-0.562,-0.28373,0.21697,5,3U1D,1.0,True,0.8,11,True,left,0.0,1.1923,1.4093,0.217,0.2338,0.7337,0.5,A
204,0.50069,1.2,1,0.38386,0.34214,0.50904,204,2.57022,0.67,0.33379,0.83449,5,3D1U,2.0,False,0.267,8,True,right,0.0,0.3908,1.2241,0.8333,1.7325,2.2329,0.5005,A
205,0.50069,0.1,1,0.44228,0.43393,0.66759,205,2.78718,0.478,0.242,0.74269,5,2D1U,1.0,True,0.293,10,False,left,0.0,0.4493,1.1909,0.7417,1.8578,2.3574,0.4997,A
206,0.50069,1.2,1,0.242,0.21697,0.484,206,1.76076,-0.37,-0.18359,0.3171,5,2U1D,2.0,True,0.433,14,False,right,0.0,0.2491,0.566,0.3169,1.0488,1.5487,0.4999,V
207,0.50069,0.1,1,0.26704,0.42559,0.40055,207,1.81084,-0.562,-0.28373,0.21697,5,3U1D,2.0,True,0.292,11,True,right,0.0,0.2739,0.4907,0.2168,0.8909,1.3914,0.5005,V
208,0.50069,1.2,1,0.22531,0.40055,0.75938,208,2.62862,0.478,0.242,0.74269,5,2D1U,2.0,False,0.301,10,False,right,0.0,0.2324,0.974,0.7416,1.7331,2.2322,0.4991,V
209,0.50069,0.1,2,0.36717,0.30876,0.726,209,2.76214,0.724,0.35883,0.85952,5,3D1U,2.0,True,0.284,8,False,right,0.0,1.5975,2.4561,0.8585,0.3738,0.8727,0.4989,A
210,0.50069,1.2,1,0.30876,0.30876,0.50904,210,1.94435,-0.37,-0.18359,0.3171,5,2U1D,2.0,True,0.268,14,False,right,0.0,0.3121,0.6296,0.3175,1.1378,1.6379,0.5001,A
211,0.50069,0.1,1,0.35883,0.22531,0.40055,211,1.82752,-0.316,-0.15855,0.34214,5,2U1D,2.0,True,0.391,14,False,right,0.0,0.3629,0.7052,0.3422,1.1044,1.6056,0.5012,A
212,0.50069,1.2,2,0.30041,0.20028,0.61752,212,2.38663,0.532,0.26704,0.76773,5,2D1U,2.0,True,0.291,10,False,right,0.0,1.4246,2.1909,0.7663,0.3074,0.8075,0.5001,V
213,0.50069,0.1,1,0.3171,0.22531,0.71766,213,2.52849,0.532,0.26704,0.76773,5,2D1U,1.0,True,0.433,10,False,left,0.0,0.3248,1.0902,0.7655,1.807,2.3079,0.5009,V
214,0.50069,1.2,2,0.38386,0.37552,0.66759,214,2.16966,-0.508,-0.25035,0.242,5,3U1D,1.0,True,0.258,12,True,left,0.0,1.5558,1.7971,0.2414,0.3885,0.8891,0.5006,V
215,0.50069,0.1,1,0.25035,0.27538,0.87621,215,2.76215,0.724,0.35883,0.85952,5,3D1U,1.0,True,0.116,8,False,left,0.0,0.2555,1.1136,0.8581,1.9889,2.4895,0.5006,V
216,0.50069,1.2,2,0.20028,0.30041,0.43393,216,1.77745,-0.316,-0.15855,0.34214,5,2U1D,1.0,True,1.192,14,False,left,0.0,1.1372,1.4803,0.3431,0.2037,0.7046,0.5008,A
217,0.50069,0.1,2,0.23366,0.36717,0.66759,217,2.01111,-0.508,-0.25035,0.242,5,3U1D,1.0,True,0.333,12,True,left,0.0,1.4047,1.6462,0.2414,0.2388,0.7385,0.4997,V
218,0.50069,1.2,1,0.35048,0.25869,0.53407,218,1.88593,-0.508,-0.25035,0.242,5,3U1D,2.0,True,0.45,12,True,right,0.0,0.3539,0.5964,0.2425,1.1291,1.6297,0.5006,A
219,0.50069,0.1,1,0.25869,0.30876,0.74269,219,2.178,-0.262,-0.13352,0.36717,5,2U1D,2.0,True,0.201,14,False,right,0.0,0.2616,0.6277,0.3662,1.3704,1.8706,0.5002,A
220,0.50069,1.2,1,0.34214,0.28373,0.44228,220,2.31153,0.478,0.242,0.74269,5,2D1U,2.0,False,0.633,11,True,right,0.0,0.348,1.0898,0.7418,1.5324,2.0315,0.4991,A
221,0.50069,0.1,2,0.21697,0.21697,0.76773,221,2.56188,0.724,0.35883,0.85952,5,3D1U,2.0,True,0.341,8,False,right,0.0,1.4938,2.3519,0.858,0.227,0.7265,0.4995,V
222,0.50069,1.2,1,0.32545,0.38386,0.64255,222,2.21972,-0.262,-0.13352,0.36717,5,2U1D,1.0,False,0.583,14,False,left,0.0,0.3345,0.7005,0.366,1.3426,1.8421,0.4995,V
223,0.50069,0.1,1,0.34214,0.44228,0.55911,223,2.18636,-0.316,-0.15855,0.34214,5,2U1D,2.0,True,0.266,15,True,right,0.0,0.3504,0.692,0.3416,1.2509,1.7503,0.4994,V
224,0.50069,1.2,1,0.42559,0.28373,0.69262,224,2.67036,0.532,0.26704,0.76773,5,2D1U,2.0,False,0.383,12,True,right,0.0,0.4318,1.1976,0.7659,1.8895,2.39,0.5005,V
225,0.50069,0.1,2,0.4089,0.25869,0.52573,225,1.96939,-0.454,-0.22531,0.27538,5,3U1D,1.0,True,0.45,12,False,left,0.0,1.4428,1.7181,0.2753,0.4189,0.9182,0.4993,V
226,0.50069,1.2,2,0.4089,0.32545,0.6509,226,2.72043,0.67,0.33379,0.83449,5,3D1U,2.0,True,0.201,9,True,right,0.0,1.5691,2.4019,0.8327,0.4183,0.919,0.5007,V
227,0.50069,0.1,2,0.29207,0.32545,0.79276,227,2.70373,0.586,0.29207,0.79276,5,2D1U,2.0,True,0.333,12,False,right,0.0,1.593,2.3851,0.7921,0.3008,0.8015,0.5007,V
228,0.50069,1.2,2,0.25869,0.28373,0.69262,228,2.01111,-0.454,-0.22531,0.27538,5,3U1D,1.0,True,0.583,12,False,left,0.0,1.4574,1.7317,0.2743,0.267,0.7648,0.4978,A
229,0.50069,0.1,1,0.21697,0.39221,0.78442,229,2.23643,-0.316,-0.15855,0.34214,5,2U1D,2.0,True,0.217,15,True,right,0.0,0.2242,0.5658,0.3416,1.3489,1.8484,0.4994,A
230,0.50069,1.2,2,0.33379,0.35048,0.44228,230,2.46173,0.67,0.33379,0.83449,5,3D1U,2.0,True,0.267,9,True,right,0.0,1.2829,2.1164,0.8336,0.3419,0.8415,0.4996,A
231,0.50069,0.1,2,0.22531,0.39221,0.4089,231,2.31987,0.586,0.29207,0.79276,5,2D1U,2.0,True,0.167,12,False,right,0.0,1.138,1.9293,0.7914,0.2288,0.7288,0.5,V
232,0.50069,1.2,1,0.44228,0.36717,0.75938,232,2.90401,0.67,0.33379,0.83449,5,3D1U,1.0,True,0.367,9,True,left,0.0,0.4466,1.2797,0.8331,2.0384,2.5385,0.5001,V
233,0.50069,0.1,2,0.32545,0.40055,0.82614,233,2.32821,-0.454,-0.22531,0.27538,5,3U1D,1.0,True,0.259,12,False,left,0.0,1.6547,1.9297,0.275,0.3292,0.8289,0.4996,V
234,0.50069,1.2,1,0.34214,0.22531,0.71766,234,2.15297,-0.262,-0.13352,0.36717,5,2U1D,2.0,True,0.275,16,True,right,0.0,0.3485,0.7159,0.3674,1.4321,1.9316,0.4995,V
235,0.50069,0.1,2,0.40055,0.30041,0.55911,235,2.12793,-0.262,-0.13352,0.36717,5,2U1D,1.0,True,0.599,16,True,left,0.0,1.4631,1.8297,0.3666,0.4054,0.9047,0.4993,V
236,0.50069,1.2,1,0.39221,0.40055,0.55076,236,2.61194,0.532,0.26704,0.76773,5,2D1U,1.0,True,0.342,13,True,left,0.0,0.4009,1.1676,0.7667,1.7174,2.2181,0.5008,V
237,0.50069,0.1,2,0.3171,0.37552,0.484,237,2.44504,0.532,0.26704,0.76773,5,2D1U,2.0,True,0.242,13,True,right,0.0,1.3014,2.0693,0.7679,0.3182,0.8192,0.501,A
238,0.50069,1.2,1,0.26704,0.3171,0.69262,238,2.07786,-0.4,-0.20028,0.30041,5,3U1D,2.0,True,0.467,12,False,right,0.0,0.2767,0.576,0.2993,1.2684,1.7677,0.4992,V
239,0.50069,0.1,1,0.43393,0.33379,0.41724,239,2.07786,-0.208,-0.10014,0.39221,5,2U1D,2.0,True,0.584,16,False,right,0.0,0.4372,0.8279,0.3907,1.2446,1.7447,0.5001,A
240,0.50069,1.2,1,0.242,0.20862,0.42559,240,1.76911,-0.208,-0.10014,0.39221,5,2U1D,2.0,True,0.358,16,False,right,0.0,0.2449,0.6361,0.3911,1.0605,1.5606,0.5001,A
241,0.50069,0.1,1,0.35048,0.4089,0.55076,241,2.62028,0.616,0.30876,0.80945,5,3D1U,1.0,True,0.517,9,False,left,0.0,0.3556,1.1639,0.8082,1.7139,2.214,0.5001,A
242,0.50069,1.2,2,0.39221,0.3171,0.60917,242,2.62862,0.616,0.30876,0.80945,5,3D1U,2.0,True,0.25,9,False,right,0.0,1.5074,2.3174,0.81,0.3999,0.8992,0.4992,V
243,0.50069,0.1,2,0.4089,0.32545,0.50904,243,2.16967,-0.154,-0.0751,0.42559,5,2U1D,2.0,False,0.5,16,False,right,0.0,1.4268,1.8514,0.4246,0.4185,0.9181,0.4997,A
244,0.50069,1.2,2,0.3171,0.32545,0.76773,244,2.65366,0.478,0.242,0.74269,5,2D1U,1.0,False,0.583,13,False,left,0.0,1.5921,2.3333,0.7412,0.3252,0.825,0.4998,V
245,0.50069,0.1,1,0.25869,0.20028,0.60917,245,2.33656,0.532,0.26704,0.76773,5,2D1U,1.0,True,0.492,14,True,left,0.0,0.2686,1.0345,0.7659,1.6428,2.1429,0.5001,V
246,0.50069,1.2,2,0.44228,0.4089,0.49235,246,2.14463,-0.4,-0.20028,0.30041,5,3U1D,1.0,True,1.375,12,False,left,0.0,1.4421,1.7427,0.3006,0.4509,0.9512,0.5003,V
247,0.50069,0.1,1,0.26704,0.25035,0.52573,247,2.31154,0.532,0.26704,0.76773,5,2D1U,1.0,True,0.342,14,True,left,0.0,0.2748,1.0411,0.7664,1.5656,2.0659,0.5002,V
248,0.50069,1.2,1,0.26704,0.25035,0.43393,248,1.75242,-0.4,-0.20028,0.30041,5,3U1D,2.0,True,0.368,12,False,right,0.0,0.2737,0.5727,0.299,1.0062,1.5066,0.5004,A
249,0.50069,0.1,2,0.43393,0.28373,0.79276,249,2.33656,-0.346,-0.17524,0.32545,5,3U1D,1.0,True,0.534,12,False,left,0.0,1.7326,2.0577,0.3251,0.4404,0.94,0.4996,A
250,0.50069,1.2,2,0.27538,0.20862,0.53407,250,2.32821,0.616,0.30876,0.80945,5,3D1U,2.0,True,0.285,9,False,right,0.0,1.3157,2.1246,0.8089,0.2825,0.7825,0.5,V
251,0.50069,0.1,1,0.44228,0.30876,0.5758,251,2.21974,-0.208,-0.10014,0.39221,5,2U1D,2.0,True,0.266,17,True,right,0.0,0.4461,0.8377,0.3916,1.413,1.9129,0.4999,V
252,0.50069,1.2,2,0.26704,0.33379,0.51738,252,2.36159,0.478,0.242,0.74269,5,2D1U,2.0,True,0.208,15,True,right,0.0,1.2889,2.0306,0.7417,0.2714,0.7714,0.5,V
253,0.50069,0.1,2,0.25869,0.29207,0.80111,253,2.17801,-0.346,-0.17524,0.32545,5,3U1D,1.0,True,0.351,12,False,left,0.0,1.5647,1.8897,0.325,0.2653,0.7662,0.5009,V
254,0.50069,1.2,1,0.4089,0.37552,0.86787,254,2.47843,-0.346,-0.17524,0.32545,5,3U1D,2.0,True,0.217,12,False,right,0.0,0.4108,0.7357,0.3248,1.602,2.1026,0.5006,A
255,0.50069,0.1,1,0.42559,0.40055,0.56745,255,2.28649,-0.208,-0.10014,0.39221,5,2U1D,2.0,True,0.309,17,True,right,0.0,0.4271,0.819,0.3919,1.3854,1.8865,0.5011,V
256,0.50069,1.2,2,0.39221,0.32545,0.82614,256,2.82891,0.562,0.28373,0.78442,5,3D1U,2.0,True,0.266,9,False,right,0.0,1.7249,2.5071,0.7822,0.3995,0.8998,0.5003,V
257,0.50069,0.1,2,0.3171,0.4089,0.8178,257,2.78718,0.478,0.242,0.74269,5,2D1U,2.0,True,0.241,15,True,right,0.0,1.6381,2.3788,0.7408,0.3207,0.8215,0.5009,A
258,0.50069,1.2,1,0.25869,0.38386,0.66759,258,2.23642,-0.154,-0.0751,0.42559,5,2U1D,2.0,True,0.442,18,True,right,0.0,0.2681,0.6926,0.4245,1.3583,1.8587,0.5003,V
259,0.50069,0.1,1,0.25035,0.40055,0.41724,259,2.35325,0.562,0.28373,0.78442,5,3D1U,1.0,True,0.326,9,False,left,0.0,0.2536,1.0366,0.783,1.4537,1.9529,0.4992,A
260,0.50069,1.2,2,0.33379,0.25869,0.66759,260,2.54518,0.562,0.28373,0.78442,5,3D1U,2.0,True,0.192,9,False,right,0.0,1.5072,2.2905,0.7833,0.3394,0.8396,0.5002,A
261,0.50069,0.1,2,0.4089,0.21697,0.8178,261,2.29484,-0.292,-0.14186,0.35048,5,3U1D,1.0,True,0.442,12,False,left,0.0,1.7291,2.0798,0.3507,0.4136,0.9127,0.4991,A
262,0.50069,1.2,1,0.20028,0.28373,0.84283,262,2.57857,0.508,0.25035,0.75104,5,3D1U,2.0,False,0.333,9,False,right,0.0,0.2086,0.9585,0.7498,1.8009,2.3,0.4991,V
263,0.50069,0.1,2,0.37552,0.30876,0.45062,263,2.42001,0.562,0.28373,0.78442,5,3D1U,2.0,True,0.108,10,True,right,0.0,1.3301,2.1133,0.7832,0.3806,0.8801,0.4995,A
264,0.50069,1.2,1,0.45062,0.30041,0.70097,264,2.662,0.424,0.20862,0.70931,5,2D1U,2.0,False,0.525,15,False,right,0.0,0.4576,1.1655,0.7079,1.8662,2.3655,0.4993,V
265,0.50069,0.1,2,0.33379,0.25869,0.78442,265,2.22807,-0.292,-0.14186,0.35048,5,3U1D,1.0,True,0.425,12,False,left,0.0,1.6251,1.9747,0.3497,0.3417,0.8415,0.4998,V
266,0.50069,1.2,2,0.33379,0.23366,0.59249,266,2.08622,-0.154,-0.0751,0.42559,5,2U1D,2.0,False,0.367,18,True,right,0.0,1.4339,1.8586,0.4247,0.3417,0.8416,0.5,V
267,0.50069,0.1,2,0.27538,0.29207,0.75104,267,2.21139,-0.208,-0.10014,0.39221,5,2U1D,1.0,True,0.275,19,True,left,0.0,1.534,1.9249,0.3909,0.283,0.784,0.501,V
268,0.50069,1.2,1,0.20028,0.26704,0.63421,268,1.9527,-0.292,-0.14186,0.35048,5,3U1D,2.0,True,0.317,12,False,right,0.0,0.2102,0.5594,0.3492,1.1929,1.6926,0.4997,A
269,0.50069,0.1,2,0.41724,0.38386,0.8178,269,2.50345,-0.238,-0.11683,0.38386,5,3U1D,1.0,True,0.226,12,False,left,0.0,1.7367,2.1206,0.3838,0.4195,0.92,0.5005,A
270,0.50069,1.2,2,0.39221,0.30041,0.83449,270,2.77049,0.478,0.242,0.74269,5,2D1U,2.0,True,0.199,16,True,right,0.0,1.7335,2.4763,0.7428,0.4013,0.9005,0.4992,A
271,0.50069,0.1,1,0.30041,0.44228,0.8929,271,2.9207,0.562,0.28373,0.78442,5,3D1U,1.0,True,0.568,10,True,left,0.0,0.3053,1.0888,0.7836,1.9804,2.4811,0.5007,A
272,0.50069,1.2,1,0.41724,0.42559,0.56745,272,2.65366,0.478,0.242,0.74269,5,2D1U,2.0,False,0.917,16,True,right,0.0,0.4215,1.1633,0.7418,1.7306,2.23,0.4994,A
273,0.50069,0.1,1,0.35048,0.28373,0.79276,273,2.71208,0.562,0.28373,0.78442,5,3D1U,1.0,True,0.383,10,True,left,0.0,0.353,1.1367,0.7837,1.9278,2.4278,0.5,A
274,0.50069,1.2,2,0.25869,0.35048,0.60083,274,2.1029,-0.208,-0.10014,0.39221,5,2U1D,2.0,False,0.535,19,True,right,0.0,1.3614,1.7534,0.392,0.2613,0.7621,0.5008,V
275,0.50069,0.1,1,0.41724,0.4089,0.484,275,2.178,-0.262,-0.13352,0.36717,5,2U1D,2.0,True,0.267,19,False,right,0.0,0.4263,0.7927,0.3664,1.2762,1.7761,0.4999,A
276,0.50069,1.2,2,0.25035,0.30041,0.55911,276,1.99442,-0.238,-0.11683,0.38386,5,3U1D,2.0,False,0.867,12,False,right,0.0,1.3183,1.7019,0.3836,0.2597,0.7598,0.5002,V
277,0.50069,0.1,2,0.22531,0.44228,0.85952,277,2.79553,0.532,0.26704,0.76773,5,2D1U,2.0,True,0.301,16,False,right,0.0,1.592,2.3586,0.7667,0.2339,0.7337,0.4998,V
278,0.50069,1.2,2,0.20028,0.44228,0.56745,278,2.47843,0.532,0.26704,0.76773,5,2D1U,1.0,False,1.249,16,False,left,0.0,1.2764,2.0424,0.766,0.2092,0.7093,0.5001,A
279,0.50069,0.1,2,0.30876,0.30041,0.86787,279,2.32821,-0.292,-0.14186,0.35048,5,3U1D,1.0,True,0.375,13,True,left,0.0,1.6803,2.0303,0.35,0.3138,0.8143,0.5005,A
280,0.50069,1.2,1,0.36717,0.36717,0.41724,280,2.40331,0.508,0.25035,0.75104,5,3D1U,2.0,False,0.434,11,True,right,0.0,0.3732,1.1231,0.7499,1.5397,2.0398,0.5001,A
281,0.50069,0.1,2,0.28373,0.45062,0.484,281,2.08621,-0.262,-0.13352,0.36717,5,2U1D,2.0,False,4.309,19,False,right,0.0,1.2728,1.6399,0.3671,0.2894,0.79,0.5006,V
282,0.50069,1.2,1,0.43393,0.3171,0.50069,282,2.54517,0.586,0.29207,0.79276,5,2D1U,2.0,False,0.317,16,False,right,0.0,0.4385,1.231,0.7926,1.7299,2.2314,0.5016,V
283,0.50069,0.1,2,0.39221,0.3171,0.55076,283,2.11124,-0.292,-0.14186,0.35048,5,3U1D,1.0,True,0.358,13,True,left,0.0,1.4517,1.8012,0.3495,0.4019,0.9019,0.5,A
284,0.50069,1.2,1,0.23366,0.20862,0.6509,284,1.93601,-0.316,-0.15855,0.34214,5,2U1D,2.0,True,0.393,19,False,right,0.0,0.2437,0.5852,0.3414,1.236,1.7353,0.4993,A
285,0.50069,0.1,2,0.242,0.37552,0.88456,285,2.78719,0.562,0.28373,0.78442,5,3D1U,2.0,True,0.251,12,True,right,0.0,1.632,2.4146,0.7826,0.2478,0.7485,0.5006,V
286,0.50069,1.2,2,0.23366,0.35048,0.84283,286,2.74546,0.64,0.3171,0.8178,5,2D1U,1.0,False,0.842,16,False,left,0.0,1.5826,2.4,0.8174,0.2411,0.7411,0.5,A
287,0.50069,0.1,1,0.28373,0.42559,0.50069,287,2.06118,-0.292,-0.14186,0.35048,5,3U1D,2.0,True,0.242,13,True,right,0.0,0.2909,0.6415,0.3505,1.1408,1.6417,0.5008,V
288,0.50069,1.2,1,0.37552,0.44228,0.76773,288,2.42836,-0.316,-0.15855,0.34214,5,2U1D,1.0,False,0.392,19,False,left,0.0,0.3831,0.7262,0.343,1.4921,1.9926,0.5005,V
289,0.50069,0.1,2,0.20862,0.33379,0.52573,289,2.41166,0.694,0.35048,0.84283,5,2D1U,2.0,True,0.317,16,False,right,0.0,1.2373,2.0797,0.8425,0.212,0.7128,0.5008,V
290,0.50069,1.2,2,0.3171,0.40055,0.84283,290,2.904,0.694,0.35048,0.84283,5,2D1U,2.0,True,0.308,16,False,right,0.0,1.6664,2.5069,0.8405,0.3238,0.8249,0.5011,V
291,0.50069,0.1,2,0.25869,0.29207,0.51738,291,2.35325,0.562,0.28373,0.78442,5,3D1U,2.0,True,0.325,12,True,right,0.0,1.2783,2.061,0.7827,0.2621,0.7609,0.4988,A
292,0.50069,1.2,1,0.21697,0.27538,0.65924,292,2.47008,0.64,0.3171,0.8178,5,2D1U,1.0,True,0.392,17,True,left,0.0,0.2253,1.042,0.8167,1.7013,2.2011,0.4998,V
293,0.50069,0.1,1,0.35883,0.37552,0.42559,293,1.97773,-0.37,-0.18359,0.3171,5,2U1D,2.0,True,0.218,19,False,right,0.0,0.3638,0.6798,0.316,1.1045,1.6063,0.5018,V
294,0.50069,1.2,2,0.30876,0.3171,0.64255,294,2.15296,-0.238,-0.11683,0.38386,5,3U1D,2.0,False,0.425,14,True,right,0.0,1.4596,1.8436,0.3839,0.3178,0.8185,0.5007,V
295,0.50069,0.1,2,0.25869,0.20862,0.46731,295,2.21973,0.562,0.28373,0.78442,5,3D1U,2.0,True,0.408,12,True,right,0.0,1.2314,2.0149,0.7835,0.2653,0.7646,0.4993,V
296,0.50069,1.2,1,0.20862,0.34214,0.41724,296,2.28649,0.64,0.3171,0.8178,5,2D1U,2.0,False,0.759,17,True,right,0.0,0.211,1.0266,0.8156,1.4441,1.9441,0.5,A
297,0.50069,0.1,2,0.25035,0.32545,0.726,297,2.11959,-0.37,-0.18359,0.3171,5,2U1D,1.0,True,0.424,19,False,left,0.0,1.4853,1.8025,0.3173,0.2601,0.7609,0.5008,A
298,0.50069,1.2,1,0.23366,0.34214,0.82614,298,2.65367,0.508,0.25035,0.75104,5,3D1U,2.0,False,0.858,13,True,right,0.0,0.2427,0.9927,0.75,1.8168,2.3174,0.5006,A
299,0.50069,0.1,2,0.26704,0.35883,0.50069,299,2.47008,0.694,0.35048,0.84283,5,2D1U,2.0,True,0.217,18,True,right,0.0,1.2702,2.1121,0.8418,0.2711,0.7705,0.4995,A
300,0.50069,1.2,2,0.32545,0.45062,0.84283,300,2.47007,-0.292,-0.14186,0.35048,5,3U1D,1.0,True,0.366,15,True,left,0.0,1.6746,2.0238,0.3492,0.3327,0.8325,0.4998,V
301,0.50069,0.1,2,0.28373,0.3171,0.80945,301,2.26145,-0.292,-0.14186,0.35048,5,3U1D,2.0,False,0.326,15,True,right,0.0,1.5971,1.9464,0.3492,0.288,0.7886,0.5006,V
302,0.50069,1.2,1,0.25035,0.20028,0.65924,302,2.39498,0.562,0.28373,0.78442,5,3D1U,1.0,True,0.684,14,True,left,0.0,0.2578,1.0411,0.7833,1.7001,2.1996,0.4995,A
303,0.50069,0.1,2,0.20028,0.4089,0.42559,303,1.8776,-0.316,-0.15855,0.34214,5,2U1D,1.0,True,0.243,20,True,left,0.0,1.1339,1.4754,0.3414,0.2078,0.7084,0.5006,V
304,0.50069,1.2,1,0.32545,0.44228,0.42559,304,2.03615,-0.316,-0.15855,0.34214,5,2U1D,2.0,True,0.508,20,True,right,0.0,0.3312,0.6724,0.3412,1.0976,1.5974,0.4997,A
305,0.50069,0.1,2,0.32545,0.38386,0.63421,305,2.16966,-0.346,-0.17524,0.32545,5,3U1D,2.0,False,0.117,15,False,right,0.0,1.4661,1.7913,0.3252,0.3324,0.833,0.5007,A
306,0.50069,1.2,1,0.26704,0.34214,0.70097,306,2.59526,0.562,0.28373,0.78442,5,3D1U,1.0,True,1.133,14,True,left,0.0,0.2696,1.0528,0.7832,1.7525,2.2523,0.4998,V
307,0.50069,0.1,1,0.29207,0.30041,0.44228,307,2.31987,0.562,0.28373,0.78442,5,3D1U,1.0,True,0.259,14,True,left,0.0,0.3007,1.0839,0.7832,1.5261,2.0256,0.4994,V
