,standardDur,audNoise,order,preDur,postDur,isiDur,trial_num,totalDur,delta_dur_percents,deltaDurS,testDurS,intensities,current_stair,responses,is_correct,response_rts,stair_num_reversal,stair_is_reversal,response_keys,conflictDur,recordedOnsetVisualTest,recordedOffsetVisualTest,recordedDurVisualTest,recordedOnsetVisualStandard,recordedOffsetVisualStandard,recordedDurVisualStandard,modalityPostCue
0,0.50267,1.2,1,0.34349,0.43565,0.40214,0,1.85989,-0.65,-0.32674,0.17594,5,3U1D,2.0,True,0.173,0,False,right,0.0,0.3488,0.5238,0.1751,0.9238,1.4245,0.5007,A
1,0.50267,0.1,2,0.20945,0.44403,0.65347,1,1.98556,-0.65,-0.32674,0.17594,5,2U1D,1.0,True,0.9,0,False,left,0.0,1.3635,1.5395,0.176,0.2137,0.7135,0.4998,V
2,0.50267,1.2,2,0.24296,0.21782,0.82103,2,1.96042,-0.65,-0.32674,0.17594,5,3U1D,1.0,True,0.634,0,False,left,0.0,1.5605,1.7352,0.1746,0.2438,0.7437,0.4998,A
3,0.50267,0.1,1,0.33512,0.41889,0.73725,3,2.0442,-0.9,-0.45241,0.05027,5,lapse_rate,2.0,True,0.642,0,False,right,0.0,0.3391,0.389,0.05,1.1223,1.6225,0.5001,V
4,0.50267,0.1,2,0.28485,0.2262,0.57807,4,1.76773,-0.65,-0.32674,0.17594,5,2U1D,1.0,True,1.076,0,False,left,0.0,1.3654,1.5405,0.1751,0.2902,0.7917,0.5016,V
5,0.50267,1.2,1,0.31836,0.35187,0.57807,5,2.572,0.65,0.32674,0.82103,5,2D1U,1.0,True,0.108,0,False,left,0.0,0.3266,1.1435,0.817,1.7182,2.218,0.4999,V
6,0.50267,0.1,1,0.39376,0.40214,0.88806,6,3.00766,0.65,0.32674,0.82103,5,3D1U,1.0,True,3.967,0,False,left,0.0,0.3941,1.2113,0.8172,2.094,2.5941,0.5001,V
7,0.50267,1.2,1,0.20945,0.24296,0.8713,7,2.64741,0.65,0.32674,0.82103,5,2D1U,2.0,False,0.425,0,False,right,0.0,0.2169,1.0337,0.8169,1.9004,2.4,0.4997,A
8,0.50267,0.1,2,0.25971,0.29323,0.47754,8,2.47985,0.9,0.45241,0.9467,5,lapse_rate,2.0,True,2.001,0,False,right,0.0,1.2411,2.1837,0.9425,0.2668,0.7657,0.4989,V
9,0.50267,0.1,1,0.40214,0.38538,0.7959,9,2.31229,-0.55,-0.27647,0.2262,5,2U1D,2.0,True,0.542,0,False,right,0.0,0.404,0.6298,0.2259,1.4214,1.9212,0.4998,A
10,0.50267,1.2,2,0.2262,0.21782,0.55294,10,1.67557,-0.65,-0.32674,0.17594,5,3U1D,1.0,True,0.608,0,False,left,0.0,1.2812,1.4555,0.1743,0.2303,0.7305,0.5003,A
11,0.50267,0.1,1,0.30998,0.32674,0.45241,11,2.41283,0.65,0.32674,0.82103,5,3D1U,2.0,False,0.917,0,False,right,0.0,0.3163,1.1335,0.8172,1.5829,2.0829,0.5,V
12,0.50267,1.2,1,0.32674,0.29323,0.67861,12,2.02745,-0.55,-0.27647,0.2262,5,2U1D,2.0,True,0.617,0,False,right,0.0,0.3324,0.5573,0.2249,1.2323,1.7325,0.5002,A
13,0.50267,0.1,1,0.25971,0.25134,0.6451,13,1.88502,-0.55,-0.27647,0.2262,5,3U1D,2.0,True,0.133,0,False,right,0.0,0.2657,0.4905,0.2248,1.1327,1.6323,0.4996,A
14,0.50267,1.2,2,0.36863,0.38538,0.67861,14,1.98556,-0.9,-0.45241,0.05027,5,lapse_rate,1.0,True,0.484,0,False,left,0.0,1.5449,1.5955,0.0506,0.3701,0.8706,0.5005,A
15,0.50267,1.2,1,0.32674,0.20107,0.67023,15,2.57201,0.75,0.377,0.8713,5,3D1U,1.0,True,0.325,0,False,left,0.0,0.3308,1.1983,0.8675,1.8651,2.3641,0.499,V
16,0.50267,0.1,1,0.30998,0.27647,0.86292,16,2.82334,0.75,0.377,0.8713,5,2D1U,1.0,True,0.401,0,False,left,0.0,0.3179,1.1847,0.8667,2.0431,2.5426,0.4995,V
17,0.50267,1.2,2,0.41889,0.30998,0.88806,17,2.9909,0.75,0.377,0.8713,5,2D1U,2.0,True,0.809,0,False,right,0.0,1.8062,2.6728,0.8666,0.4237,0.9228,0.4991,V
18,0.50267,0.1,1,0.25134,0.24296,0.69536,18,1.91853,-0.55,-0.27647,0.2262,5,3U1D,2.0,True,0.467,0,False,right,0.0,0.2582,0.4838,0.2256,1.1742,1.6748,0.5006,A
19,0.50267,1.2,1,0.41889,0.2262,0.85454,19,2.8736,0.75,0.377,0.8713,5,3D1U,2.0,False,1.442,0,False,right,0.0,0.4254,1.2921,0.8667,2.1427,2.6419,0.4992,V
20,0.50267,0.1,1,0.28485,0.32674,0.6451,20,2.70606,0.9,0.45241,0.9467,5,lapse_rate,1.0,True,0.192,0,False,left,0.0,0.288,1.2296,0.9416,1.8707,2.3706,0.4999,V
21,0.50267,0.1,2,0.31836,0.41889,0.74563,21,2.26202,-0.45,-0.2262,0.27647,5,2U1D,1.0,True,0.358,0,False,left,0.0,1.5686,1.8432,0.2747,0.3266,0.8264,0.4998,A
22,0.50267,1.2,2,0.41889,0.38538,0.51943,22,2.05257,-0.55,-0.27647,0.2262,5,3U1D,2.0,False,0.725,0,False,right,0.0,1.4412,1.6659,0.2247,0.4252,0.9245,0.4993,A
23,0.50267,0.1,1,0.23458,0.43565,0.46916,23,1.91853,-0.45,-0.2262,0.27647,5,2U1D,2.0,True,0.109,0,False,right,0.0,0.2406,0.5157,0.2751,0.9823,1.4824,0.5001,V
24,0.50267,0.1,2,0.3016,0.21782,0.61996,24,2.58875,0.9,0.45241,0.9467,5,lapse_rate,2.0,True,1.284,0,False,right,0.0,1.423,2.3647,0.9417,0.3068,0.8066,0.4998,V
25,0.50267,1.2,1,0.27647,0.20945,0.84617,25,2.68093,0.69,0.34349,0.84617,5,2D1U,2.0,False,0.276,1,True,right,0.0,0.2768,1.1196,0.8428,1.9602,2.46,0.4998,A
26,0.50267,0.1,2,0.26809,0.24296,0.82941,26,2.7647,0.85,0.42727,0.92157,5,3D1U,2.0,True,0.517,0,False,right,0.0,1.5962,2.5129,0.9167,0.2711,0.7713,0.5003,V
27,0.50267,1.2,2,0.31836,0.36025,0.49429,27,2.00231,-0.35,-0.17594,0.32674,5,2U1D,1.0,True,0.351,0,False,left,0.0,1.311,1.636,0.3251,0.3198,0.8194,0.4996,V
28,0.50267,0.1,1,0.27647,0.42727,0.83779,28,2.23689,-0.61,-0.3016,0.19269,5,3U1D,2.0,True,0.474,1,True,right,0.0,0.2824,0.4736,0.1913,1.3074,1.8077,0.5003,A
29,0.50267,1.2,1,0.26809,0.35187,0.66185,29,2.73118,0.9,0.45241,0.9467,5,lapse_rate,1.0,True,0.842,0,False,left,0.0,0.2758,1.2181,0.9423,1.8759,2.3763,0.5004,A
30,0.50267,1.2,2,0.39376,0.36863,0.50267,30,2.63065,0.726,0.36025,0.86292,5,2D1U,2.0,True,0.298,2,True,right,0.0,1.401,2.2589,0.8579,0.4006,0.8995,0.4989,V
31,0.50267,0.1,2,0.33512,0.36025,0.47754,31,2.59715,0.85,0.42727,0.92157,5,3D1U,1.0,False,1.409,0,False,left,0.0,1.3167,2.232,0.9154,0.3409,0.8403,0.4993,V
32,0.50267,0.1,2,0.35187,0.23458,0.54456,32,1.68395,-0.9,-0.45241,0.05027,5,lapse_rate,1.0,True,5.076,0,False,left,0.0,1.3954,1.4455,0.0501,0.3544,0.854,0.4995,A
33,0.50267,1.2,2,0.31836,0.20107,0.76239,33,1.97718,-0.61,-0.3016,0.19269,5,3U1D,1.0,True,1.05,1,True,left,0.0,1.584,1.7759,0.1919,0.3263,0.8268,0.5005,V
34,0.50267,0.1,1,0.34349,0.27647,0.85454,34,2.949,0.95,0.47754,0.97183,5,3D1U,1.0,True,0.7,0,False,left,0.0,0.3484,1.3149,0.9665,2.1652,2.6652,0.5,A
35,0.50267,1.2,2,0.3016,0.35187,0.68699,35,2.16987,-0.35,-0.17594,0.32674,5,2U1D,1.0,True,0.216,0,False,left,0.0,1.4905,1.816,0.3255,0.3074,0.8073,0.4999,V
36,0.50267,0.1,2,0.25134,0.21782,0.50267,36,2.33742,0.726,0.36025,0.86292,5,2D1U,2.0,True,0.116,2,True,right,0.0,1.2534,2.1122,0.8588,0.253,0.7528,0.4999,V
37,0.50267,1.2,2,0.25971,0.25971,0.50267,37,2.49659,0.95,0.47754,0.97183,5,3D1U,2.0,True,0.11,0,False,right,0.0,1.2652,2.2318,0.9666,0.2652,0.7658,0.5006,A
38,0.50267,0.1,2,0.28485,0.21782,0.58645,38,1.96879,-0.25,-0.12567,0.377,5,2U1D,1.0,True,1.9,0,False,left,0.0,1.3692,1.7445,0.3753,0.2861,0.7855,0.4995,V
39,0.50267,1.2,1,0.24296,0.33512,0.53618,39,2.4631,0.69,0.34349,0.84617,5,2D1U,1.0,True,0.226,3,True,left,0.0,0.2514,1.0938,0.8423,1.6272,2.1263,0.4991,V
40,0.50267,0.1,2,0.34349,0.377,0.89643,40,2.31228,-0.61,-0.3016,0.19269,5,3U1D,1.0,True,0.592,1,True,left,0.0,1.7439,1.9356,0.1917,0.3512,0.8512,0.4999,V
41,0.50267,1.2,2,0.3016,0.42727,0.49429,41,2.67253,0.9,0.45241,0.9467,5,lapse_rate,2.0,True,0.118,0,False,right,0.0,1.2989,2.2406,0.9417,0.3074,0.8082,0.5008,V
42,0.50267,1.2,2,0.3016,0.28485,0.82941,42,1.9688,-0.9,-0.45241,0.05027,5,lapse_rate,1.0,True,0.65,0,False,left,0.0,1.6341,1.6853,0.0511,0.3096,0.8104,0.5009,V
43,0.50267,1.2,2,0.377,0.25971,0.75401,43,2.27039,-0.25,-0.12567,0.377,5,2U1D,2.0,False,1.766,0,False,right,0.0,1.6284,2.003,0.3746,0.3774,0.8783,0.5008,V
44,0.50267,0.1,1,0.377,0.23458,0.49429,44,1.81799,-0.574,-0.28485,0.20945,5,3U1D,2.0,True,0.159,2,True,right,0.0,0.3797,0.5887,0.2089,1.079,1.5798,0.5009,A
45,0.50267,1.2,1,0.41052,0.36025,0.41052,45,2.53013,0.69,0.34349,0.84617,5,2D1U,2.0,False,4.283,3,True,right,0.0,0.4115,1.2532,0.8417,1.6615,2.1615,0.5,A
46,0.50267,0.1,1,0.36863,0.41052,0.46078,46,2.71443,0.95,0.47754,0.97183,5,3D1U,1.0,True,1.083,0,False,left,0.0,0.3716,1.3382,0.9665,1.7964,2.2974,0.501,A
47,0.50267,1.2,2,0.33512,0.31836,0.77914,47,2.27878,-0.31,-0.15918,0.34349,5,2U1D,2.0,False,0.402,1,True,right,0.0,1.6157,1.9558,0.3401,0.3398,0.8392,0.4994,A
48,0.50267,0.1,2,0.27647,0.23458,0.57807,48,1.80124,-0.574,-0.28485,0.20945,5,3U1D,1.0,True,1.225,2,True,left,0.0,1.3578,1.5657,0.2079,0.2819,0.7833,0.5014,A
49,0.50267,1.2,1,0.27647,0.26809,0.67861,49,2.67254,0.89,0.44403,0.9467,5,3D1U,2.0,False,0.984,1,True,right,0.0,0.2817,1.2239,0.9422,1.8993,2.3992,0.4999,A
50,0.50267,1.2,1,0.30998,0.39376,0.70374,50,2.85685,0.9,0.45241,0.9467,5,lapse_rate,1.0,True,0.501,0,False,left,0.0,0.3176,1.2588,0.9412,1.9593,2.4594,0.5001,A
51,0.50267,0.1,2,0.26809,0.36863,0.55294,51,2.55525,0.726,0.36025,0.86292,5,2D1U,2.0,True,0.185,4,True,right,0.0,1.3211,2.18,0.8589,0.2715,0.7722,0.5007,A
52,0.50267,1.2,2,0.29323,0.41889,0.52781,52,1.79287,-0.9,-0.45241,0.05027,5,lapse_rate,1.0,True,1.501,0,False,left,0.0,1.325,1.3749,0.0499,0.2995,0.7993,0.4998,A
53,0.50267,1.2,2,0.31836,0.23458,0.82941,53,2.84848,0.926,0.46078,0.96346,5,3D1U,2.0,True,2.583,2,True,right,0.0,1.6502,2.6092,0.959,0.3251,0.8251,0.5,V
54,0.50267,0.1,1,0.44403,0.377,0.8713,54,2.51336,-0.37,-0.18431,0.31836,5,2U1D,2.0,True,0.116,1,False,right,0.0,0.4481,0.7643,0.3162,1.6306,2.1303,0.4998,A
55,0.50267,1.2,2,0.31836,0.41052,0.89643,55,2.9909,0.726,0.36025,0.86292,5,2D1U,2.0,True,0.384,4,True,right,0.0,1.711,2.5699,0.8589,0.3202,0.8194,0.4991,A
56,0.50267,0.1,2,0.35187,0.41052,0.43565,56,1.91016,-0.574,-0.28485,0.20945,5,3U1D,1.0,True,5.233,2,True,left,0.0,1.2871,1.4954,0.2082,0.3538,0.8543,0.5005,V
57,0.50267,1.2,2,0.38538,0.29323,0.85454,57,2.2704,-0.538,-0.26809,0.23458,5,3U1D,1.0,True,1.059,2,False,left,0.0,1.7408,1.9732,0.2324,0.3908,0.8899,0.4992,V
58,0.50267,0.1,1,0.33512,0.36025,0.6451,58,2.8066,0.926,0.46078,0.96346,5,3D1U,2.0,False,0.309,2,True,right,0.0,0.3406,1.2992,0.9586,1.9405,2.4406,0.5001,V
59,0.50267,1.2,1,0.44403,0.32674,0.83779,59,2.42959,-0.37,-0.18431,0.31836,5,2U1D,1.0,False,0.384,1,False,left,0.0,0.4472,0.7635,0.3163,1.5981,2.0973,0.4993,V
60,0.50267,0.1,1,0.35187,0.41889,0.77914,60,2.89874,0.69,0.34349,0.84617,5,2D1U,1.0,True,1.725,5,True,left,0.0,0.3587,1.2002,0.8415,1.9756,2.4755,0.4999,A
61,0.50267,0.1,1,0.36025,0.25134,0.84617,61,2.0107,-0.9,-0.45241,0.05027,5,lapse_rate,2.0,True,0.166,0,False,right,0.0,0.3668,0.4165,0.0497,1.2585,1.7593,0.5008,V
62,0.50267,1.2,1,0.39376,0.42727,0.56132,62,2.1196,-0.538,-0.26809,0.23458,5,3U1D,2.0,True,0.617,2,False,right,0.0,0.3985,0.6322,0.2337,1.1908,1.6905,0.4997,V
63,0.50267,1.2,1,0.41052,0.25971,0.73725,63,2.85685,0.9,0.45241,0.9467,5,lapse_rate,2.0,False,0.833,0,False,right,0.0,0.4149,1.3574,0.9425,2.0901,2.5901,0.5,A
64,0.50267,0.1,2,0.24296,0.34349,0.67023,64,2.73956,0.962,0.47754,0.98021,5,3D1U,2.0,True,0.967,2,False,right,0.0,1.4155,2.3905,0.975,0.2488,0.7491,0.5002,V
65,0.50267,1.2,2,0.34349,0.36863,0.50267,65,2.56363,0.69,0.34349,0.84617,5,2D1U,2.0,True,1.041,5,True,right,0.0,1.3503,2.1929,0.8426,0.3501,0.8509,0.5007,V
66,0.50267,0.1,1,0.27647,0.3016,0.5697,66,1.93529,-0.43,-0.21782,0.28485,5,2U1D,2.0,True,1.126,1,False,right,0.0,0.282,0.5652,0.2831,1.132,1.6318,0.4998,V
67,0.50267,1.2,2,0.25134,0.30998,0.51943,67,2.41283,0.654,0.32674,0.82941,5,2D1U,2.0,True,0.334,5,False,right,0.0,1.2768,2.1034,0.8266,0.26,0.7607,0.5008,V
68,0.50267,0.1,2,0.25971,0.20107,0.85454,68,2.10284,-0.43,-0.21782,0.28485,5,2U1D,1.0,True,1.376,1,False,left,0.0,1.6172,1.9015,0.2842,0.2672,0.7673,0.5001,A
69,0.50267,1.2,2,0.41052,0.24296,0.65347,69,2.78983,0.962,0.47754,0.98021,5,3D1U,2.0,True,0.726,2,False,right,0.0,1.5646,2.5396,0.975,0.4146,0.9137,0.4991,V
70,0.50267,0.1,2,0.38538,0.31836,0.5697,70,2.01069,-0.538,-0.26809,0.23458,5,3U1D,1.0,True,4.977,2,False,left,0.0,1.4559,1.6895,0.2336,0.3884,0.8891,0.5007,V
71,0.50267,1.2,2,0.21782,0.38538,0.62834,71,1.78448,-0.9,-0.45241,0.05027,5,lapse_rate,2.0,False,1.116,0,False,right,0.0,1.3453,1.3946,0.0493,0.2197,0.7206,0.5008,V
72,0.50267,1.2,2,0.34349,0.3016,0.67861,72,2.12797,-0.394,-0.20107,0.3016,5,2U1D,2.0,False,0.527,2,True,right,0.0,1.5194,1.82,0.3006,0.3442,0.8446,0.5005,A
73,0.50267,1.2,2,0.33512,0.43565,0.61159,73,1.9353,-0.9,-0.45241,0.05027,5,lapse_rate,2.0,False,2.416,0,False,right,0.0,1.4483,1.4981,0.0498,0.3404,0.8406,0.5002,V
74,0.50267,0.1,2,0.20107,0.20945,0.50267,74,2.24527,0.654,0.32674,0.82941,5,2D1U,1.0,False,4.892,5,False,left,0.0,1.2093,2.0335,0.8242,0.2087,0.7084,0.4996,V
75,0.50267,1.2,2,0.39376,0.30998,0.77076,75,2.22851,-0.502,-0.25134,0.25134,5,3U1D,2.0,False,0.908,2,False,right,0.0,1.6646,1.9148,0.2502,0.3978,0.8979,0.5001,V
76,0.50267,0.1,2,0.27647,0.36025,0.59483,76,2.71443,0.962,0.47754,0.98021,5,3D1U,2.0,True,0.158,2,False,right,0.0,1.3756,2.3508,0.9752,0.2838,0.7843,0.5005,V
77,0.50267,1.2,1,0.25971,0.40214,0.42727,77,2.55525,0.926,0.46078,0.96346,5,3D1U,1.0,True,0.892,3,True,left,0.0,0.2623,1.2206,0.9582,1.6464,2.1455,0.4991,V
78,0.50267,1.2,1,0.36863,0.33512,0.74563,78,2.89875,0.9,0.45241,0.9467,5,lapse_rate,1.0,True,2.326,0,False,left,0.0,0.3767,1.3187,0.942,2.0597,2.5593,0.4996,V
79,0.50267,0.1,1,0.38538,0.24296,0.80428,79,2.22014,-0.43,-0.21782,0.28485,5,2U1D,2.0,True,0.343,3,True,right,0.0,0.3884,0.6728,0.2844,1.4724,1.9719,0.4995,V
80,0.50267,1.2,2,0.25971,0.35187,0.61996,80,1.96879,-0.538,-0.26809,0.23458,5,3U1D,1.0,True,0.8,3,True,left,0.0,1.3816,1.6146,0.233,0.2653,0.7651,0.4998,V
81,0.50267,0.1,1,0.35187,0.21782,0.61159,81,2.53012,0.69,0.34349,0.84617,5,2D1U,1.0,True,3.001,6,True,left,0.0,0.3532,1.1942,0.841,1.803,2.3035,0.5005,V
82,0.50267,1.2,1,0.40214,0.38538,0.49429,82,2.01906,-0.538,-0.26809,0.23458,5,3U1D,2.0,True,0.142,3,True,right,0.0,0.407,0.6407,0.2337,1.1313,1.6316,0.5003,V
83,0.50267,0.1,2,0.26809,0.28485,0.80428,83,2.70606,0.69,0.34349,0.84617,5,2D1U,2.0,True,0.309,6,True,right,0.0,1.5711,2.4134,0.8423,0.2719,0.771,0.4991,V
84,0.50267,0.1,2,0.38538,0.35187,0.41889,84,1.70908,-0.9,-0.45241,0.05027,5,lapse_rate,1.0,True,0.159,0,False,left,0.0,1.306,1.3561,0.05,0.3899,0.8903,0.5004,V
85,0.50267,1.2,2,0.40214,0.40214,0.8713,85,2.4631,-0.43,-0.21782,0.28485,5,2U1D,1.0,True,0.726,3,True,left,0.0,1.7766,2.0603,0.2836,0.4091,0.9101,0.501,V
86,0.50267,0.1,2,0.43565,0.35187,0.45241,86,2.70606,0.926,0.46078,0.96346,5,3D1U,2.0,True,0.118,3,True,right,0.0,1.3909,2.3495,0.9587,0.4408,0.9406,0.4998,A
87,0.50267,1.2,1,0.36863,0.2262,0.51105,87,2.43796,0.654,0.32674,0.82941,5,2D1U,1.0,True,0.117,7,True,left,0.0,0.3737,1.198,0.8243,1.7065,2.206,0.4996,A
88,0.50267,0.1,1,0.25134,0.43565,0.77076,88,2.92388,0.926,0.46078,0.96346,5,3D1U,1.0,True,0.458,3,True,left,0.0,0.2526,1.2111,0.9586,1.9778,2.4785,0.5006,A
89,0.50267,0.1,2,0.31836,0.2262,0.57807,89,2.572,0.9,0.45241,0.9467,5,lapse_rate,2.0,True,0.116,0,False,right,0.0,1.4009,2.343,0.9421,0.3267,0.826,0.4993,A
90,0.50267,1.2,1,0.38538,0.20107,0.56132,90,1.88502,-0.538,-0.26809,0.23458,5,3U1D,2.0,True,0.217,3,True,right,0.0,0.3861,0.62,0.2339,1.1785,1.6781,0.4997,V
91,0.50267,0.1,1,0.44403,0.20945,0.81265,91,2.2704,-0.394,-0.20107,0.3016,5,2U1D,2.0,True,0.217,4,True,right,0.0,0.4458,0.7455,0.2997,1.5543,2.054,0.4998,V
92,0.50267,1.2,2,0.23458,0.43565,0.53618,92,2.65578,0.89,0.44403,0.9467,5,3D1U,2.0,True,0.193,3,False,right,0.0,1.2692,2.2118,0.9426,0.2353,0.7358,0.5005,V
93,0.50267,0.1,2,0.38538,0.20107,0.67861,93,2.06933,-0.394,-0.20107,0.3016,5,2U1D,1.0,True,0.226,4,True,left,0.0,1.5617,1.8624,0.3006,0.3875,0.8866,0.4991,A
94,0.50267,1.2,1,0.27647,0.36863,0.46078,94,1.65882,-0.9,-0.45241,0.05027,5,lapse_rate,2.0,True,0.309,0,False,right,0.0,0.2818,0.3323,0.0505,0.7902,1.2911,0.501,V
95,0.50267,1.2,1,0.31836,0.31836,0.84617,95,2.2369,-0.502,-0.25134,0.25134,5,3U1D,2.0,True,0.159,4,True,right,0.0,0.3234,0.5733,0.2499,1.4155,1.9151,0.4996,V
96,0.50267,0.1,2,0.38538,0.28485,0.75401,96,2.75632,0.654,0.32674,0.82941,5,2D1U,2.0,True,0.2,7,True,right,0.0,1.6425,2.4672,0.8247,0.3924,0.8918,0.4995,V
97,0.50267,0.1,2,0.38538,0.33512,0.88806,97,3.05793,0.9,0.45241,0.9467,5,lapse_rate,2.0,True,0.117,0,False,right,0.0,1.7747,2.7165,0.9418,0.3913,0.8913,0.4999,V
98,0.50267,1.2,1,0.34349,0.3016,0.46078,98,1.85988,-0.502,-0.25134,0.25134,5,3U1D,1.0,False,0.709,4,True,left,0.0,0.3489,0.5988,0.2499,1.0576,1.5576,0.5,V
99,0.50267,0.1,2,0.377,0.23458,0.48592,99,2.54687,0.89,0.44403,0.9467,5,3D1U,2.0,True,0.108,3,False,right,0.0,1.3688,2.3104,0.9415,0.3851,0.8854,0.5003,V
100,0.50267,1.2,1,0.41052,0.38538,0.83779,100,2.45472,-0.358,-0.17594,0.31836,5,2U1D,2.0,True,0.192,4,False,right,0.0,0.4144,0.731,0.3166,1.5644,2.064,0.4996,V
101,0.50267,0.1,1,0.25971,0.33512,0.41889,101,2.32904,0.618,0.30998,0.81265,5,2D1U,1.0,True,0.126,7,False,left,0.0,0.2683,1.0761,0.8078,1.4939,1.9928,0.499,A
102,0.50267,1.2,1,0.38538,0.25971,0.60321,102,2.56362,0.618,0.30998,0.81265,5,2D1U,1.0,True,0.158,7,False,left,0.0,0.3918,1.2009,0.8091,1.8003,2.3001,0.4998,A
103,0.50267,0.1,1,0.40214,0.41052,0.46078,103,2.09447,-0.358,-0.17594,0.31836,5,2U1D,2.0,True,0.134,4,False,right,0.0,0.4068,0.723,0.3162,1.1816,1.6822,0.5006,A
104,0.50267,1.2,2,0.35187,0.36025,0.54456,104,2.70605,0.89,0.44403,0.9467,5,3D1U,2.0,True,0.258,3,False,right,0.0,1.3973,2.338,0.9407,0.3548,0.8558,0.501,A
105,0.50267,0.1,2,0.38538,0.33512,0.78752,105,2.06096,-0.9,-0.45241,0.05027,5,lapse_rate,1.0,True,0.125,0,False,left,0.0,1.67,1.7197,0.0497,0.3869,0.8857,0.4988,A
106,0.50267,0.1,1,0.20945,0.35187,0.57807,106,1.87664,-0.538,-0.26809,0.23458,5,3U1D,2.0,True,0.166,5,True,right,0.0,0.2132,0.4455,0.2323,1.0214,1.5205,0.4992,A
107,0.50267,1.2,2,0.27647,0.3016,0.89643,107,2.76469,0.582,0.29323,0.78752,5,2D1U,2.0,True,0.174,7,False,right,0.0,1.6753,2.4578,0.7825,0.2828,0.784,0.5012,A
108,0.50267,1.2,1,0.44403,0.20945,0.41052,108,2.51337,0.9,0.45241,0.9467,5,lapse_rate,1.0,True,0.384,0,False,left,0.0,0.4485,1.3892,0.9406,1.7982,2.2975,0.4993,V
109,0.50267,0.1,1,0.2262,0.26809,0.75401,109,1.98555,-0.538,-0.26809,0.23458,5,3U1D,2.0,True,0.116,5,True,right,0.0,0.2289,0.4621,0.2332,1.212,1.7134,0.5014,A
110,0.50267,1.2,2,0.36025,0.44403,0.85454,110,3.09143,0.854,0.42727,0.92994,5,3D1U,2.0,True,0.117,3,False,right,0.0,1.7136,2.6383,0.9247,0.3632,0.8627,0.4994,V
111,0.50267,0.1,1,0.25971,0.30998,0.73725,111,2.14473,-0.322,-0.15918,0.33512,5,2U1D,1.0,False,0.199,4,False,left,0.0,0.2629,0.5958,0.3328,1.3299,1.8297,0.4998,V
112,0.50267,1.2,2,0.36025,0.36025,0.62834,112,2.08609,-0.538,-0.26809,0.23458,5,3U1D,1.0,True,0.234,5,True,left,0.0,1.4895,1.7238,0.2344,0.3648,0.8655,0.5007,A
113,0.50267,0.1,1,0.30998,0.43565,0.8713,113,3.0663,0.9,0.45241,0.9467,5,lapse_rate,1.0,True,0.175,0,False,left,0.0,0.3171,1.2591,0.942,2.126,2.6249,0.4989,V
114,0.50267,0.1,1,0.36025,0.36025,0.68699,114,2.22852,-0.358,-0.17594,0.31836,5,2U1D,2.0,True,0.11,5,True,right,0.0,0.3631,0.6798,0.3167,1.3625,1.8631,0.5006,V
115,0.50267,1.2,2,0.32674,0.44403,0.83779,115,3.04117,0.854,0.42727,0.92994,5,3D1U,2.0,True,0.109,3,False,right,0.0,1.6656,2.591,0.9253,0.3328,0.8324,0.4996,A
116,0.50267,0.1,1,0.43565,0.34349,0.82941,116,2.89874,0.582,0.29323,0.78752,5,2D1U,1.0,True,0.575,7,False,left,0.0,0.439,1.222,0.7829,2.0476,2.547,0.4994,A
117,0.50267,1.2,1,0.44403,0.20107,0.48592,117,1.88503,-0.502,-0.25134,0.25134,5,3U1D,2.0,True,0.324,6,True,right,0.0,0.4487,0.6986,0.2499,1.1823,1.6819,0.4996,V
118,0.50267,0.1,1,0.3016,0.26809,0.43565,118,1.55828,-0.9,-0.45241,0.05027,5,lapse_rate,2.0,True,0.118,0,False,right,0.0,0.3049,0.3548,0.0498,0.7891,1.2882,0.4991,V
119,0.50267,0.1,1,0.30998,0.29323,0.77076,119,2.6474,0.546,0.27647,0.77076,5,2D1U,1.0,True,0.659,7,False,left,0.0,0.3162,1.0838,0.7676,1.8499,2.3497,0.4998,V
120,0.50267,1.2,1,0.43565,0.40214,0.8713,120,2.53012,-0.358,-0.17594,0.31836,5,2U1D,2.0,True,0.151,5,True,right,0.0,0.4419,0.7592,0.3173,1.6262,2.1257,0.4996,A
121,0.50267,0.1,2,0.21782,0.41052,0.60321,121,2.66416,0.854,0.42727,0.92994,5,3D1U,2.0,True,0.109,3,False,right,0.0,1.3246,2.2504,0.9258,0.2255,0.7247,0.4992,V
122,0.50267,1.2,1,0.34349,0.43565,0.76239,122,2.29554,-0.502,-0.25134,0.25134,5,3U1D,2.0,True,0.908,6,True,right,0.0,0.3497,0.5998,0.2501,1.3578,1.8586,0.5008,V
123,0.50267,0.1,2,0.40214,0.38538,0.42727,123,2.63065,0.818,0.41052,0.91319,5,3D1U,2.0,True,0.484,3,False,right,0.0,1.3333,2.2412,0.9079,0.4084,0.9086,0.5002,A
124,0.50267,0.1,1,0.33512,0.27647,0.73725,124,1.90178,-0.9,-0.45241,0.05027,5,lapse_rate,2.0,True,0.108,0,False,right,0.0,0.3422,0.3926,0.0504,1.1253,1.625,0.4997,V
125,0.50267,1.2,2,0.40214,0.26809,0.66185,125,2.16987,-0.322,-0.15918,0.33512,5,2U1D,1.0,True,0.324,6,True,left,0.0,1.5673,1.9008,0.3336,0.4096,0.9093,0.4997,A
126,0.50267,0.1,2,0.35187,0.36863,0.66185,126,2.65578,0.546,0.27647,0.77076,5,2D1U,2.0,True,0.15,7,False,right,0.0,1.5185,2.2852,0.7667,0.3601,0.8593,0.4992,A
127,0.50267,1.2,1,0.3016,0.2262,0.7959,127,2.07771,-0.502,-0.25134,0.25134,5,3U1D,2.0,True,0.934,6,True,right,0.0,0.31,0.5609,0.2509,1.3522,1.8514,0.4992,A
128,0.50267,0.1,2,0.44403,0.31836,0.58645,128,2.18663,-0.322,-0.15918,0.33512,5,2U1D,1.0,True,0.633,6,True,left,0.0,1.5276,1.8605,0.3328,0.4446,0.9437,0.4991,V
129,0.50267,0.1,2,0.20945,0.27647,0.53618,129,2.47147,0.9,0.45241,0.9467,5,lapse_rate,2.0,True,0.15,0,False,right,0.0,1.2479,2.1889,0.941,0.2137,0.7137,0.5,A
130,0.50267,1.2,1,0.31836,0.25134,0.71212,130,2.69768,0.818,0.41052,0.91319,5,3D1U,2.0,False,0.692,3,False,right,0.0,0.3239,1.233,0.909,1.9409,2.4406,0.4997,A
131,0.50267,0.1,2,0.27647,0.31836,0.51943,131,2.37094,0.51,0.25134,0.75401,5,2D1U,2.0,True,0.108,7,False,right,0.0,1.3019,2.0519,0.75,0.2854,0.7859,0.5005,V
132,0.50267,1.2,2,0.34349,0.41889,0.80428,132,2.42958,-0.286,-0.14242,0.36025,5,2U1D,1.0,True,1.542,6,False,left,0.0,1.6494,2.0087,0.3593,0.3494,0.8493,0.4999,A
133,0.50267,0.1,2,0.32674,0.25971,0.82103,133,2.84009,0.854,0.42727,0.92994,5,3D1U,2.0,True,0.226,4,True,right,0.0,1.6511,2.576,0.9249,0.3341,0.8342,0.5001,V
134,0.50267,1.2,1,0.20945,0.35187,0.81265,134,1.92691,-0.9,-0.45241,0.05027,5,lapse_rate,2.0,True,0.825,0,False,right,0.0,0.2162,0.2665,0.0503,1.0754,1.5739,0.4985,A
135,0.50267,1.2,2,0.31836,0.23458,0.84617,135,2.16987,-0.466,-0.23458,0.26809,5,3U1D,1.0,True,0.209,6,False,left,0.0,1.6646,1.9312,0.2666,0.3224,0.8232,0.5008,V
136,0.50267,0.1,1,0.20107,0.39376,0.77076,136,2.62227,0.51,0.25134,0.75401,5,2D1U,1.0,True,0.801,7,False,left,0.0,0.2041,0.9543,0.7501,1.721,2.2214,0.5004,V
137,0.50267,1.2,1,0.24296,0.3016,0.68699,137,2.00231,-0.466,-0.23458,0.26809,5,3U1D,2.0,True,0.275,6,False,right,0.0,0.2437,0.5101,0.2663,1.1937,1.694,0.5003,A
138,0.50267,0.1,2,0.25134,0.23458,0.88806,138,2.2369,-0.286,-0.14242,0.36025,5,2U1D,1.0,True,0.358,6,False,left,0.0,1.6407,1.9993,0.3586,0.2572,0.7574,0.5003,V
139,0.50267,1.2,2,0.23458,0.41052,0.82103,139,2.9155,0.9,0.45241,0.9467,5,lapse_rate,2.0,True,0.108,0,False,right,0.0,1.5553,2.4978,0.9425,0.2389,0.7398,0.5009,V
140,0.50267,1.2,1,0.35187,0.34349,0.73725,140,2.67253,0.474,0.23458,0.73725,5,2D1U,2.0,False,0.326,7,False,right,0.0,0.3527,1.0868,0.7342,1.8194,2.3217,0.5022,A
141,0.50267,0.1,2,0.21782,0.25134,0.80428,141,2.70605,0.854,0.42727,0.92994,5,3D1U,2.0,True,0.117,4,True,right,0.0,1.5265,2.4521,0.9256,0.2269,0.7269,0.4999,A
142,0.50267,1.2,1,0.24296,0.20945,0.53618,142,1.75935,-0.466,-0.23458,0.26809,5,3U1D,2.0,True,0.701,6,False,right,0.0,0.2475,0.5135,0.266,1.0477,1.5469,0.4992,V
143,0.50267,0.1,1,0.25134,0.41052,0.67023,143,2.21176,-0.25,-0.12567,0.377,5,2U1D,2.0,True,0.109,6,False,right,0.0,0.2527,0.6287,0.3761,1.2942,1.7955,0.5013,A
144,0.50267,1.2,2,0.33512,0.25971,0.44403,144,2.29554,0.51,0.25134,0.75401,5,2D1U,2.0,True,0.342,8,True,right,0.0,1.2788,2.0295,0.7508,0.3374,0.8377,0.5003,V
145,0.50267,0.1,2,0.36025,0.39376,0.78752,145,2.97414,0.854,0.42727,0.92994,5,3D1U,2.0,True,0.141,4,True,right,0.0,1.6453,2.5701,0.9248,0.3619,0.8619,0.5,A
146,0.50267,1.2,2,0.44403,0.40214,0.78752,146,3.04955,0.818,0.41052,0.91319,5,3D1U,2.0,True,0.242,5,True,right,0.0,1.73,2.6374,0.9074,0.4456,0.9466,0.501,V
147,0.50267,0.1,2,0.36863,0.28485,0.77076,147,2.8401,0.818,0.41052,0.91319,5,3D1U,2.0,True,0.108,5,True,right,0.0,1.6365,2.5454,0.9089,0.3701,0.8702,0.5001,V
148,0.50267,1.2,2,0.41052,0.39376,0.41889,148,2.47985,0.51,0.25134,0.75401,5,2D1U,2.0,True,0.751,8,True,right,0.0,1.335,2.0843,0.7493,0.418,0.9175,0.4995,V
149,0.50267,0.1,2,0.21782,0.377,0.81265,149,2.19499,-0.43,-0.21782,0.28485,5,3U1D,1.0,True,0.108,6,False,left,0.0,1.532,1.8163,0.2843,0.2237,0.7242,0.5005,A
150,0.50267,1.2,2,0.25134,0.28485,0.48592,150,1.90178,-0.25,-0.12567,0.377,5,2U1D,1.0,True,1.867,6,False,left,0.0,1.2371,1.6133,0.3762,0.2541,0.7544,0.5003,V
151,0.50267,0.1,1,0.31836,0.24296,0.51105,151,2.48823,0.818,0.41052,0.91319,5,3D1U,1.0,True,0.275,5,True,left,0.0,0.3199,1.2285,0.9085,1.737,2.2366,0.4996,V
152,0.50267,1.2,1,0.35187,0.40214,0.72888,152,2.72281,0.474,0.23458,0.73725,5,2D1U,1.0,True,0.117,9,True,left,0.0,0.3538,1.0876,0.7337,1.8127,2.312,0.4993,V
153,0.50267,0.1,1,0.24296,0.35187,0.73725,153,2.22851,-0.214,-0.10891,0.39376,5,2U1D,2.0,True,0.108,6,False,right,0.0,0.2453,0.6372,0.3919,1.3702,1.8712,0.501,V
154,0.50267,1.2,2,0.24296,0.25134,0.68699,154,2.57202,0.782,0.39376,0.88806,5,3D1U,2.0,True,0.15,5,False,right,0.0,1.4328,2.3165,0.8836,0.2499,0.7492,0.4993,V
155,0.50267,0.1,1,0.30998,0.42727,0.45241,155,1.97718,-0.43,-0.21782,0.28485,5,3U1D,2.0,True,0.109,6,False,right,0.0,0.312,0.5961,0.2841,1.0453,1.5461,0.5008,V
156,0.50267,1.2,1,0.28485,0.3016,0.57807,156,2.40444,0.474,0.23458,0.73725,5,2D1U,2.0,False,0.375,9,True,right,0.0,0.2878,1.0222,0.7344,1.5963,2.0967,0.5004,V
157,0.50267,0.1,1,0.31836,0.39376,0.54456,157,2.51336,0.51,0.25134,0.75401,5,2D1U,1.0,True,0.142,10,True,left,0.0,0.3222,1.0713,0.7491,1.613,2.1148,0.5018,A
158,0.50267,1.2,1,0.23458,0.35187,0.72888,158,2.21176,-0.214,-0.10891,0.39376,5,2U1D,2.0,True,0.217,6,False,right,0.0,0.239,0.6299,0.391,1.3558,1.8549,0.4991,A
159,0.50267,0.1,2,0.41889,0.34349,0.61996,159,2.16986,-0.43,-0.21782,0.28485,5,3U1D,1.0,True,0.743,6,False,left,0.0,1.5445,1.8275,0.283,0.4263,0.9274,0.501,V
160,0.50267,1.2,2,0.20945,0.36025,0.6451,160,2.60553,0.782,0.39376,0.88806,5,3D1U,2.0,True,0.117,5,False,right,0.0,1.353,2.2353,0.8823,0.2103,0.7114,0.5011,A
161,0.50267,0.1,1,0.21782,0.45241,0.60321,161,2.53012,0.51,0.25134,0.75401,5,2D1U,1.0,True,0.958,10,True,left,0.0,0.2259,0.9765,0.7506,1.5768,2.0759,0.4991,V
162,0.50267,1.2,1,0.25971,0.20945,0.77076,162,2.47984,0.474,0.23458,0.73725,5,2D1U,2.0,False,0.417,11,True,right,0.0,0.2633,0.9968,0.7336,1.7637,2.2645,0.5008,V
163,0.50267,0.1,2,0.32674,0.41889,0.55294,163,2.10284,-0.394,-0.20107,0.3016,5,3U1D,1.0,True,0.758,6,False,left,0.0,1.3836,1.6844,0.3008,0.3335,0.8335,0.5,V
164,0.50267,1.2,1,0.40214,0.32674,0.54456,164,2.07771,-0.394,-0.20107,0.3016,5,3U1D,2.0,True,1.224,6,False,right,0.0,0.4052,0.7061,0.3009,1.2469,1.7474,0.5006,A
165,0.50267,0.1,2,0.3016,0.36863,0.57807,165,2.63903,0.782,0.39376,0.88806,5,3D1U,2.0,True,0.225,5,False,right,0.0,1.3778,2.2607,0.8829,0.3025,0.8021,0.4997,V
166,0.50267,1.2,1,0.43565,0.42727,0.49429,166,2.2704,-0.178,-0.09216,0.41052,5,2U1D,2.0,True,0.176,6,False,right,0.0,0.4375,0.8448,0.4073,1.3366,1.8367,0.5001,V
167,0.50267,0.1,1,0.28485,0.36863,0.43565,167,2.4631,0.746,0.377,0.8713,5,3D1U,1.0,True,0.875,5,False,left,0.0,0.2905,1.1575,0.867,1.5908,2.091,0.5002,V
168,0.50267,1.2,2,0.45241,0.44403,0.41052,168,2.11123,-0.394,-0.20107,0.3016,5,3U1D,1.0,True,1.067,6,False,left,0.0,1.3607,1.6609,0.3002,0.4525,0.9525,0.5,A
169,0.50267,0.1,2,0.38538,0.36863,0.80428,169,2.37932,-0.358,-0.17594,0.31836,5,3U1D,2.0,False,1.934,6,False,right,0.0,1.6923,2.0098,0.3175,0.3931,0.8927,0.4995,V
170,0.50267,1.2,1,0.40214,0.27647,0.46916,170,2.06096,-0.178,-0.09216,0.41052,5,2U1D,1.0,False,2.392,6,False,left,0.0,0.4092,0.8176,0.4084,1.2849,1.7841,0.4992,A
171,0.50267,0.1,2,0.23458,0.30998,0.80428,171,2.60552,0.51,0.25134,0.75401,5,2D1U,2.0,True,2.708,12,True,right,0.0,1.5408,2.29,0.7491,0.2399,0.7407,0.5008,V
172,0.50267,1.2,2,0.42727,0.27647,0.67861,172,2.63903,0.51,0.25134,0.75401,5,2D1U,2.0,True,0.309,12,True,right,0.0,1.6063,2.3563,0.75,0.4316,0.9313,0.4997,A
173,0.50267,0.1,1,0.36863,0.36025,0.46916,173,2.00231,-0.394,-0.20107,0.3016,5,3U1D,2.0,True,0.158,7,True,right,0.0,0.3733,0.6733,0.3,1.1402,1.6397,0.4996,V
174,0.50267,1.2,1,0.43565,0.28485,0.51943,174,2.13636,-0.214,-0.10891,0.39376,5,2U1D,2.0,True,0.175,7,True,right,0.0,0.4431,0.8353,0.3923,1.3509,1.8524,0.5015,A
175,0.50267,0.1,1,0.36025,0.25971,0.41889,175,2.41282,0.746,0.377,0.8713,5,3D1U,1.0,True,0.893,5,False,left,0.0,0.366,1.233,0.8671,1.6489,2.15,0.5011,A
176,0.50267,1.2,2,0.30998,0.2262,0.58645,176,2.4966,0.746,0.377,0.8713,5,3D1U,2.0,True,0.21,5,False,right,0.0,1.3986,2.2661,0.8674,0.315,0.8162,0.5012,V
177,0.50267,0.1,1,0.42727,0.31836,0.6451,177,2.195,-0.394,-0.20107,0.3016,5,3U1D,2.0,True,0.108,7,True,right,0.0,0.4317,0.7319,0.3002,1.3729,1.8743,0.5013,A
178,0.50267,1.2,1,0.38538,0.42727,0.88806,178,3.05792,0.71,0.35187,0.85454,5,3D1U,1.0,True,0.815,5,False,left,0.0,0.3909,1.2414,0.8505,2.1246,2.624,0.4993,A
179,0.50267,0.1,2,0.39376,0.43565,0.82941,179,2.55525,-0.214,-0.10891,0.39376,5,2U1D,1.0,True,0.727,7,True,left,0.0,1.7221,2.1137,0.3915,0.3973,0.8971,0.4998,A
180,0.50267,1.2,1,0.40214,0.32674,0.53618,180,2.50498,0.474,0.23458,0.73725,5,2D1U,2.0,False,0.25,13,True,right,0.0,0.4052,1.1385,0.7333,1.6726,2.1729,0.5003,V
181,0.50267,0.1,2,0.28485,0.377,0.77914,181,2.69767,0.51,0.25134,0.75401,5,2D1U,2.0,True,0.709,14,True,right,0.0,1.5626,2.3121,0.7494,0.2878,0.7876,0.4999,A
182,0.50267,1.2,2,0.42727,0.28485,0.42727,182,1.94366,-0.394,-0.20107,0.3016,5,3U1D,1.0,True,0.184,7,True,left,0.0,1.3556,1.6561,0.3005,0.4309,0.9306,0.4997,V
183,0.50267,0.1,1,0.40214,0.42727,0.82941,183,2.47985,-0.358,-0.17594,0.31836,5,3U1D,2.0,True,0.109,8,True,right,0.0,0.4068,0.723,0.3162,1.5481,2.0482,0.5002,A
184,0.50267,1.2,1,0.40214,0.32674,0.81265,184,2.89874,0.71,0.35187,0.85454,5,3D1U,1.0,True,1.833,5,False,left,0.0,0.4065,1.2563,0.8498,2.0653,2.5651,0.4999,A
185,0.50267,0.1,1,0.2262,0.27647,0.61159,185,2.02745,-0.178,-0.09216,0.41052,5,2U1D,2.0,True,0.476,8,True,right,0.0,0.2281,0.6369,0.4088,1.2446,1.7446,0.5001,V
186,0.50267,1.2,2,0.43565,0.23458,0.60321,186,2.53012,0.51,0.25134,0.75401,5,2D1U,2.0,True,0.725,14,True,right,0.0,1.5407,2.2903,0.7496,0.4404,0.9404,0.5,A
187,0.50267,0.1,2,0.3016,0.29323,0.8713,187,2.28716,-0.358,-0.17594,0.31836,5,3U1D,1.0,True,1.142,8,True,left,0.0,1.6687,1.9854,0.3168,0.3023,0.8023,0.5,V
188,0.50267,1.2,2,0.41889,0.25134,0.55294,188,2.0442,-0.358,-0.17594,0.31836,5,3U1D,1.0,True,0.334,8,True,left,0.0,1.4741,1.7905,0.3164,0.424,0.9237,0.4997,V
189,0.50267,0.1,2,0.21782,0.30998,0.44403,189,2.21175,0.474,0.23458,0.73725,5,2D1U,2.0,True,0.249,15,True,right,0.0,1.1655,1.8992,0.7337,0.2243,0.7235,0.4992,V
190,0.50267,1.2,2,0.40214,0.44403,0.67023,190,2.87361,0.71,0.35187,0.85454,5,3D1U,2.0,True,0.108,5,False,right,0.0,1.5698,2.4201,0.8503,0.4033,0.9028,0.4995,V
191,0.50267,0.1,2,0.36863,0.3016,0.59483,191,2.17825,-0.178,-0.09216,0.41052,5,2U1D,1.0,True,0.659,8,True,left,0.0,1.4663,1.8757,0.4095,0.375,0.8745,0.4995,A
192,0.50267,1.2,2,0.27647,0.44403,0.82103,192,2.88199,0.674,0.33512,0.83779,5,3D1U,2.0,True,0.426,5,False,right,0.0,1.5974,2.4307,0.8333,0.2814,0.7808,0.4994,A
193,0.50267,0.1,2,0.36025,0.20945,0.45241,193,2.36257,0.674,0.33512,0.83779,5,3D1U,2.0,True,0.45,5,False,right,0.0,1.3184,2.1517,0.8333,0.369,0.8691,0.5001,A
194,0.50267,1.2,2,0.42727,0.41889,0.50267,194,2.58875,0.474,0.23458,0.73725,5,2D1U,2.0,True,0.116,15,True,right,0.0,1.4292,2.1624,0.7332,0.4292,0.9286,0.4994,V
195,0.50267,0.1,2,0.43565,0.23458,0.53618,195,2.13635,-0.142,-0.06702,0.42727,5,2U1D,1.0,True,1.967,8,False,left,0.0,1.4757,1.9,0.4244,0.441,0.9409,0.4999,V
196,0.50267,1.2,1,0.27647,0.2262,0.59483,196,1.93529,-0.322,-0.15918,0.33512,5,3U1D,2.0,True,0.575,8,False,right,0.0,0.2842,0.618,0.3337,1.2096,1.709,0.4995,V
197,0.50267,0.1,1,0.30998,0.45241,0.70374,197,2.6893,0.438,0.21782,0.7205,5,2D1U,1.0,True,1.542,15,False,left,0.0,0.3181,1.0344,0.7163,1.735,2.2347,0.4997,V
198,0.50267,1.2,1,0.36863,0.20107,0.41889,198,1.82638,-0.322,-0.15918,0.33512,5,3U1D,2.0,True,0.675,8,False,right,0.0,0.3717,0.7049,0.3332,1.122,1.6215,0.4994,V
199,0.50267,0.1,2,0.43565,0.40214,0.48592,199,2.66417,0.674,0.33512,0.83779,5,3D1U,2.0,True,0.459,5,False,right,0.0,1.4205,2.2536,0.8331,0.4374,0.937,0.4996,V
200,0.50267,1.2,1,0.24296,0.31836,0.44403,200,1.93529,-0.142,-0.06702,0.42727,5,2U1D,2.0,True,1.816,8,False,right,0.0,0.2464,0.6711,0.4248,1.1131,1.6132,0.5001,A
201,0.50267,0.1,1,0.42727,0.42727,0.63672,201,2.71443,0.438,0.21782,0.7205,5,2D1U,1.0,True,0.325,15,False,left,0.0,0.43,1.1473,0.7173,1.7795,2.2803,0.5008,A
202,0.50267,1.2,2,0.40214,0.36025,0.77914,202,2.37932,-0.322,-0.15918,0.33512,5,3U1D,1.0,True,0.517,8,False,left,0.0,1.6841,2.0168,0.3327,0.4089,0.909,0.5001,V
203,0.50267,0.1,2,0.34349,0.35187,0.63672,203,2.195,-0.286,-0.14242,0.36025,5,3U1D,1.0,True,0.383,8,False,left,0.0,1.4844,1.8431,0.3587,0.3508,0.8507,0.4999,A
204,0.50267,1.2,2,0.35187,0.36863,0.77914,204,2.70605,0.402,0.20107,0.70374,5,2D1U,2.0,True,0.492,15,False,right,0.0,1.6323,2.3326,0.7003,0.357,0.8581,0.501,V
205,0.50267,0.1,2,0.2262,0.2262,0.6451,205,2.0442,-0.106,-0.05027,0.44403,5,2U1D,1.0,True,0.992,8,False,left,0.0,1.3754,1.8161,0.4407,0.2332,0.7334,0.5002,V
206,0.50267,1.2,2,0.29323,0.25134,0.51105,206,2.37932,0.638,0.31836,0.82103,5,3D1U,2.0,True,0.142,5,False,right,0.0,1.3097,2.1261,0.8164,0.3011,0.8013,0.5002,V
207,0.50267,0.1,1,0.31836,0.20945,0.51943,207,1.99394,-0.106,-0.05027,0.44403,5,2U1D,2.0,True,0.508,8,False,right,0.0,0.3266,0.769,0.4424,1.2847,1.7861,0.5014,A
208,0.50267,1.2,1,0.2262,0.21782,0.75401,208,2.40444,0.402,0.20107,0.70374,5,2D1U,1.0,True,0.251,15,False,left,0.0,0.2328,0.9335,0.7007,1.6822,2.1826,0.5004,A
209,0.50267,0.1,2,0.377,0.34349,0.41052,209,2.45471,0.638,0.31836,0.82103,5,3D1U,2.0,True,0.108,5,False,right,0.0,1.2893,2.1056,0.8163,0.3808,0.8803,0.4994,A
210,0.50267,1.2,1,0.26809,0.31836,0.66185,210,2.11122,-0.286,-0.14242,0.36025,5,3U1D,1.0,False,0.191,8,False,left,0.0,0.2765,0.6348,0.3583,1.2932,1.7929,0.4997,A
211,0.50267,0.1,2,0.33512,0.26809,0.86292,211,2.43796,-0.07,-0.03351,0.46916,5,2U1D,1.0,True,0.2,8,False,left,0.0,1.6949,2.1612,0.4662,0.3361,0.8365,0.5003,A
212,0.50267,1.2,2,0.42727,0.23458,0.63672,212,2.48823,0.366,0.18431,0.68699,5,2D1U,1.0,False,0.15,15,False,left,0.0,1.5652,2.2494,0.6842,0.4318,0.9325,0.5007,A
213,0.50267,0.1,2,0.29323,0.25134,0.43565,213,2.18663,0.402,0.20107,0.70374,5,2D1U,2.0,True,0.134,16,True,right,0.0,1.2337,1.9339,0.7002,0.3006,0.7998,0.4992,V
214,0.50267,1.2,2,0.30998,0.41889,0.89643,214,2.949,0.638,0.31836,0.82103,5,3D1U,2.0,True,0.108,5,False,right,0.0,1.7032,2.5189,0.8157,0.3116,0.8121,0.5005,V
215,0.50267,0.1,1,0.35187,0.29323,0.76239,215,2.24528,-0.322,-0.15918,0.33512,5,3U1D,2.0,True,0.117,9,True,right,0.0,0.3577,0.6908,0.3331,1.4496,1.9488,0.4992,A
216,0.50267,1.2,1,0.41889,0.33512,0.49429,216,2.22013,-0.07,-0.03351,0.46916,5,2U1D,1.0,False,0.468,8,False,left,0.0,0.4197,0.8874,0.4677,1.3785,1.8788,0.5003,A
217,0.50267,0.1,2,0.41889,0.25134,0.68699,217,2.19501,-0.322,-0.15918,0.33512,5,3U1D,1.0,True,0.718,9,True,left,0.0,1.6084,1.9416,0.3332,0.4244,0.9241,0.4997,A
218,0.50267,1.2,2,0.41052,0.36863,0.47754,218,2.20339,-0.106,-0.05027,0.44403,5,2U1D,2.0,False,0.867,9,True,right,0.0,1.3923,1.8344,0.4421,0.4173,0.9176,0.5003,A
219,0.50267,0.1,1,0.21782,0.33512,0.50267,219,1.98555,-0.142,-0.06702,0.42727,5,2U1D,1.0,False,0.85,9,False,left,0.0,0.2206,0.6455,0.4249,1.1457,1.6462,0.5005,A
220,0.50267,1.2,1,0.43565,0.20107,0.77076,220,2.71443,0.602,0.3016,0.80428,5,3D1U,2.0,False,1.55,5,False,right,0.0,0.4371,1.238,0.8009,2.0036,2.5036,0.5,A
221,0.50267,0.1,2,0.33512,0.32674,0.84617,221,2.71444,0.402,0.20107,0.70374,5,2D1U,1.0,False,1.866,16,True,left,0.0,1.6851,2.3853,0.7002,0.3434,0.8441,0.5007,A
222,0.50267,1.2,2,0.33512,0.40214,0.73725,222,2.69768,0.438,0.21782,0.7205,5,2D1U,2.0,True,0.108,16,False,right,0.0,1.5702,2.2871,0.7168,0.337,0.8367,0.4996,V
223,0.50267,0.1,1,0.36863,0.40214,0.53618,223,2.63065,0.638,0.31836,0.82103,5,3D1U,1.0,True,0.519,6,True,left,0.0,0.3768,1.1941,0.8174,1.7267,2.2268,0.5001,V
224,0.50267,1.2,1,0.40214,0.32674,0.42727,224,1.99394,-0.322,-0.15918,0.33512,5,3U1D,2.0,True,0.25,9,True,right,0.0,0.4097,0.744,0.3343,1.1679,1.6686,0.5007,V
225,0.50267,0.1,2,0.33512,0.24296,0.70374,225,2.14474,-0.286,-0.14242,0.36025,5,3U1D,1.0,True,0.659,10,True,left,0.0,1.5355,1.894,0.3585,0.3363,0.8365,0.5002,A
226,0.50267,1.2,2,0.31836,0.41889,0.80428,226,2.45472,-0.178,-0.09216,0.41052,5,2U1D,2.0,False,0.61,9,False,right,0.0,1.6235,2.0315,0.408,0.3242,0.8233,0.4991,V
227,0.50267,0.1,1,0.32674,0.25134,0.76239,227,2.20339,-0.286,-0.14242,0.36025,5,3U1D,2.0,True,0.425,10,True,right,0.0,0.3305,0.6884,0.3579,1.4466,1.9474,0.5008,A
228,0.50267,1.2,1,0.21782,0.43565,0.70374,228,2.22013,-0.286,-0.14242,0.36025,5,3U1D,1.0,False,0.542,10,True,left,0.0,0.2204,0.578,0.3576,1.2779,1.7786,0.5007,V
229,0.50267,0.1,1,0.45241,0.40214,0.46078,229,2.5385,0.438,0.21782,0.7205,5,2D1U,2.0,False,0.817,16,False,right,0.0,0.4566,1.1738,0.7172,1.6315,2.1322,0.5007,A
230,0.50267,1.2,2,0.38538,0.34349,0.56132,230,2.18662,-0.214,-0.10891,0.39376,5,2U1D,2.0,False,0.435,9,False,right,0.0,1.4455,1.8365,0.391,0.3874,0.8868,0.4994,A
231,0.50267,0.1,1,0.377,0.35187,0.88806,231,2.94063,0.638,0.31836,0.82103,5,3D1U,1.0,True,0.933,6,True,left,0.0,0.3852,1.2015,0.8164,2.0847,2.5845,0.4998,V
232,0.50267,1.2,2,0.42727,0.40214,0.87968,232,3.03279,0.638,0.31836,0.82103,5,3D1U,2.0,True,0.234,6,True,right,0.0,1.803,2.6191,0.8161,0.4287,0.9282,0.4995,V
233,0.50267,0.1,1,0.43565,0.3016,0.74563,233,2.32067,-0.322,-0.15918,0.33512,5,3U1D,2.0,True,0.951,11,True,right,0.0,0.4416,0.775,0.3334,1.5167,2.0162,0.4995,A
234,0.50267,1.2,2,0.43565,0.41889,0.88806,234,2.98252,0.474,0.23458,0.73725,5,2D1U,2.0,True,1.593,16,False,right,0.0,1.8205,2.5528,0.7323,0.4371,0.9365,0.4994,V
235,0.50267,0.1,1,0.2262,0.42727,0.8713,235,2.76469,0.474,0.23458,0.73725,5,2D1U,1.0,True,0.275,16,False,left,0.0,0.229,0.9632,0.7342,1.8289,2.3288,0.4999,A
236,0.50267,1.2,1,0.41052,0.31836,0.72888,236,2.33743,-0.25,-0.12567,0.377,5,2U1D,2.0,True,1.134,9,False,right,0.0,0.4108,0.7857,0.3748,1.5108,2.0105,0.4998,V
237,0.50267,0.1,1,0.25134,0.44403,0.88806,237,2.4631,-0.25,-0.12567,0.377,5,2U1D,1.0,False,1.75,9,False,left,0.0,0.2595,0.6342,0.3747,1.518,2.0182,0.5002,V
238,0.50267,1.2,2,0.25971,0.44403,0.86292,238,2.87361,0.602,0.3016,0.80428,5,3D1U,2.0,True,0.585,7,True,right,0.0,1.6233,2.4234,0.8001,0.2644,0.7649,0.5006,A
239,0.50267,0.1,2,0.38538,0.29323,0.41889,239,2.32067,0.438,0.21782,0.7205,5,2D1U,2.0,True,0.158,17,True,right,0.0,1.307,2.0237,0.7166,0.3904,0.8896,0.4992,V
240,0.50267,1.2,1,0.39376,0.41052,0.61159,240,2.25366,-0.322,-0.15918,0.33512,5,3U1D,2.0,True,0.609,11,True,right,0.0,0.3985,0.7312,0.3327,1.339,1.8395,0.5004,V
241,0.50267,0.1,2,0.34349,0.40214,0.5697,241,2.17825,-0.286,-0.14242,0.36025,5,2U1D,1.0,True,0.209,9,False,left,0.0,1.412,1.7704,0.3585,0.3453,0.8453,0.5,V
242,0.50267,1.2,1,0.24296,0.377,0.84617,242,2.30392,-0.322,-0.15918,0.33512,5,3U1D,2.0,True,0.508,11,True,right,0.0,0.2505,0.5834,0.3328,1.4249,1.9247,0.4998,A
243,0.50267,0.1,1,0.26809,0.35187,0.43565,243,2.27878,0.438,0.21782,0.7205,5,2D1U,1.0,True,3.517,17,True,left,0.0,0.274,0.9905,0.7165,1.424,1.9239,0.4999,A
244,0.50267,1.2,2,0.24296,0.25971,0.72888,244,2.5385,0.602,0.3016,0.80428,5,3D1U,2.0,True,0.909,7,True,right,0.0,1.4705,2.2707,0.8003,0.2456,0.7454,0.4998,A
245,0.50267,0.1,2,0.31836,0.41889,0.43565,245,2.03582,-0.286,-0.14242,0.36025,5,2U1D,1.0,True,1.025,9,False,left,0.0,1.2582,1.6163,0.3581,0.3252,0.825,0.4999,A
246,0.50267,1.2,2,0.25971,0.31836,0.50267,246,1.96041,-0.25,-0.12567,0.377,5,2U1D,2.0,False,1.358,10,True,right,0.0,1.2627,1.6372,0.3745,0.2625,0.7629,0.5004,V
247,0.50267,0.1,1,0.44403,0.44403,0.8713,247,2.96577,0.402,0.20107,0.70374,5,2D1U,1.0,True,0.784,17,False,left,0.0,0.4464,1.1462,0.6997,2.0131,2.5132,0.5002,V
248,0.50267,1.2,2,0.23458,0.36863,0.82103,248,2.73119,0.602,0.3016,0.80428,5,3D1U,2.0,True,0.183,7,True,right,0.0,1.5583,2.3584,0.8,0.242,0.7419,0.4999,V
249,0.50267,0.1,2,0.30998,0.23458,0.57807,249,1.98555,-0.286,-0.14242,0.36025,5,2U1D,1.0,True,1.05,11,True,left,0.0,1.3918,1.7499,0.3582,0.3168,0.8173,0.5006,A
250,0.50267,1.2,2,0.27647,0.24296,0.81265,250,2.195,-0.286,-0.14242,0.36025,5,3U1D,2.0,False,1.951,12,True,right,0.0,1.59,1.9481,0.3581,0.2818,0.7824,0.5006,A
251,0.50267,0.1,2,0.377,0.24296,0.55294,251,2.37931,0.402,0.20107,0.70374,5,2D1U,2.0,True,0.134,17,False,right,0.0,1.4294,2.1297,0.7003,0.3793,0.8793,0.5,V
252,0.50267,1.2,2,0.30998,0.36025,0.41889,252,2.27878,0.366,0.18431,0.68699,5,2D1U,2.0,True,0.159,17,False,right,0.0,1.23,1.913,0.683,0.3131,0.8131,0.5,V
253,0.50267,0.1,2,0.23458,0.41889,0.68699,253,2.53012,0.366,0.18431,0.68699,5,2D1U,2.0,True,2.074,17,False,right,0.0,1.4217,2.1045,0.6829,0.2383,0.7379,0.4996,V
254,0.50267,1.2,2,0.3016,0.30998,0.58645,254,2.06095,-0.286,-0.14242,0.36025,5,2U1D,1.0,True,3.626,11,True,left,0.0,1.3912,1.7496,0.3584,0.3082,0.8078,0.4996,A
255,0.50267,0.1,1,0.36025,0.32674,0.43565,255,2.40445,0.566,0.28485,0.77914,5,3D1U,1.0,True,0.759,7,False,left,0.0,0.3649,1.1393,0.7744,1.5725,2.0732,0.5007,V
256,0.50267,1.2,1,0.41889,0.29323,0.56132,256,2.11123,-0.322,-0.15918,0.33512,5,3U1D,2.0,True,0.259,13,True,right,0.0,0.4195,0.7535,0.3339,1.3109,1.8115,0.5006,V
257,0.50267,0.1,2,0.44403,0.29323,0.75401,257,2.65579,0.33,0.16756,0.66185,5,2D1U,1.0,False,1.851,17,False,left,0.0,1.6947,2.3531,0.6585,0.4454,0.9447,0.4993,A
258,0.50267,1.2,2,0.38538,0.34349,0.67023,258,2.23689,-0.322,-0.15918,0.33512,5,3U1D,1.0,True,0.85,13,True,left,0.0,1.5532,1.8856,0.3324,0.3861,0.8853,0.4993,V
259,0.50267,0.1,1,0.35187,0.38538,0.47754,259,2.09446,-0.25,-0.12567,0.377,5,2U1D,2.0,True,0.11,12,True,right,0.0,0.3549,0.729,0.3741,1.204,1.704,0.4999,A
260,0.50267,1.2,1,0.23458,0.377,0.53618,260,2.42957,0.566,0.28485,0.77914,5,3D1U,1.0,True,2.025,7,False,left,0.0,0.2372,1.012,0.7748,1.5463,2.0454,0.4991,A
261,0.50267,0.1,1,0.35187,0.21782,0.47754,261,2.32904,0.566,0.28485,0.77914,5,3D1U,1.0,True,1.918,7,False,left,0.0,0.355,1.1313,0.7763,1.6047,2.1056,0.5008,V
262,0.50267,1.2,1,0.41889,0.39376,0.61996,262,2.69767,0.53,0.26809,0.76239,5,3D1U,2.0,False,0.616,7,False,right,0.0,0.4265,1.1846,0.7581,1.8015,2.3009,0.4995,A
263,0.50267,0.1,1,0.30998,0.34349,0.89643,263,2.73956,0.366,0.18431,0.68699,5,2D1U,1.0,True,0.617,18,True,left,0.0,0.3115,0.9949,0.6834,1.8866,2.3862,0.4996,A
264,0.50267,1.2,2,0.43565,0.32674,0.76239,264,2.36257,-0.322,-0.15918,0.33512,5,3U1D,2.0,False,0.85,13,True,right,0.0,1.6983,2.0316,0.3333,0.4406,0.9401,0.4995,A
265,0.50267,0.1,1,0.25134,0.31836,0.50267,265,1.95204,-0.25,-0.12567,0.377,5,2U1D,2.0,True,0.109,12,True,right,0.0,0.2544,0.6291,0.3747,1.1284,1.6285,0.5001,A
266,0.50267,1.2,2,0.36863,0.2262,0.57807,266,2.45471,0.566,0.28485,0.77914,5,3D1U,2.0,True,0.25,8,True,right,0.0,1.4482,2.2232,0.775,0.3731,0.8734,0.5002,A
267,0.50267,0.1,1,0.20107,0.33512,0.67023,267,2.39608,0.366,0.18431,0.68699,5,2D1U,1.0,True,0.459,18,True,left,0.0,0.2076,0.8909,0.6833,1.5577,2.0579,0.5002,V
268,0.50267,1.2,2,0.38538,0.25971,0.49429,268,1.96041,-0.358,-0.17594,0.31836,5,3U1D,2.0,False,0.783,13,False,right,0.0,1.3799,1.6967,0.3168,0.3882,0.8891,0.5009,A
269,0.50267,0.1,1,0.3016,0.28485,0.49429,269,1.97717,-0.214,-0.10891,0.39376,5,2U1D,2.0,True,1.109,12,False,right,0.0,0.3021,0.6945,0.3923,1.186,1.6857,0.4997,V
270,0.50267,1.2,1,0.41889,0.44403,0.7959,270,2.94063,0.566,0.28485,0.77914,5,3D1U,1.0,True,0.808,8,True,left,0.0,0.4215,1.1972,0.7757,1.9882,2.4882,0.5001,A
271,0.50267,0.1,1,0.40214,0.20945,0.75401,271,2.53012,0.33,0.16756,0.66185,5,2D1U,1.0,True,1.526,19,True,left,0.0,0.4059,1.0643,0.6584,1.8142,2.3142,0.5,A
272,0.50267,1.2,2,0.28485,0.24296,0.77076,272,2.46309,0.33,0.16756,0.66185,5,2D1U,2.0,True,0.325,19,True,right,0.0,1.5554,2.2131,0.6577,0.2882,0.7881,0.4999,A
273,0.50267,0.1,1,0.26809,0.36863,0.77076,273,2.30391,-0.214,-0.10891,0.39376,5,2U1D,1.0,False,1.692,12,False,left,0.0,0.2703,0.6619,0.3916,1.4286,1.9289,0.5003,A
274,0.50267,1.2,1,0.31836,0.44403,0.45241,274,2.09447,-0.25,-0.12567,0.377,5,2U1D,2.0,True,0.133,13,True,right,0.0,0.3216,0.6965,0.3749,1.1463,1.6461,0.4997,V
275,0.50267,0.1,1,0.21782,0.43565,0.59483,275,2.05257,-0.394,-0.20107,0.3016,5,3U1D,2.0,True,0.108,13,False,right,0.0,0.2223,0.522,0.2997,1.1139,1.6134,0.4996,V
276,0.50267,1.2,2,0.377,0.3016,0.72888,276,2.68929,0.566,0.28485,0.77914,5,3D1U,2.0,True,0.292,8,True,right,0.0,1.6027,2.3776,0.7749,0.3779,0.8776,0.4997,V
277,0.50267,0.1,2,0.24296,0.40214,0.65347,277,2.56363,0.53,0.26809,0.76239,5,3D1U,2.0,True,3.101,9,True,right,0.0,1.3982,2.1565,0.7582,0.2478,0.7479,0.5002,A
278,0.50267,1.2,2,0.39376,0.21782,0.66185,278,2.4212,0.294,0.1508,0.6451,5,2D1U,2.0,True,0.725,19,False,right,0.0,1.5581,2.2002,0.6421,0.4002,0.8999,0.4997,V
279,0.50267,0.1,1,0.20945,0.32674,0.47754,279,1.818,-0.394,-0.20107,0.3016,5,3U1D,2.0,True,1.133,13,False,right,0.0,0.2172,0.517,0.2998,0.992,1.492,0.5,V
280,0.50267,1.2,2,0.26809,0.3016,0.81265,280,2.26201,-0.25,-0.12567,0.377,5,2U1D,1.0,True,1.533,13,True,left,0.0,1.585,1.9598,0.3748,0.2761,0.7763,0.5002,V
281,0.50267,0.1,2,0.39376,0.31836,0.77914,281,2.75632,0.53,0.26809,0.76239,5,3D1U,2.0,True,1.809,9,True,right,0.0,1.672,2.4302,0.7582,0.397,0.8973,0.5003,V
282,0.50267,1.2,2,0.24296,0.43565,0.55294,282,2.49661,0.53,0.26809,0.76239,5,3D1U,1.0,False,7.342,9,True,left,0.0,1.2973,2.0559,0.7585,0.2475,0.7473,0.4998,A
283,0.50267,0.1,1,0.41889,0.36025,0.63672,283,2.31229,-0.214,-0.10891,0.39376,5,2U1D,2.0,True,2.742,14,True,right,0.0,0.4226,0.8147,0.3921,1.4477,1.9479,0.5002,A
284,0.50267,1.2,1,0.3016,0.2262,0.48592,284,2.16149,0.294,0.1508,0.6451,5,2D1U,1.0,True,0.433,19,False,left,0.0,0.31,0.9514,0.6414,1.4355,1.935,0.4995,V
285,0.50267,0.1,1,0.44403,0.29323,0.77076,285,2.31229,-0.394,-0.20107,0.3016,5,3U1D,2.0,True,0.117,13,False,right,0.0,0.4507,0.7502,0.2995,1.5165,2.0163,0.4998,A
286,0.50267,1.2,1,0.26809,0.23458,0.42727,286,1.75097,-0.358,-0.17594,0.31836,5,3U1D,2.0,True,0.217,14,True,right,0.0,0.273,0.5895,0.3165,1.0145,1.5146,0.5,V
287,0.50267,0.1,1,0.2262,0.41052,0.78752,287,2.32067,-0.214,-0.10891,0.39376,5,2U1D,1.0,False,2.124,14,True,left,0.0,0.2349,0.6276,0.3927,1.4104,1.9102,0.4998,A
288,0.50267,1.2,1,0.25134,0.41052,0.46916,288,2.41283,0.566,0.28485,0.77914,5,3D1U,1.0,True,1.644,10,True,left,0.0,0.2539,1.0296,0.7757,1.4953,1.9961,0.5008,A
289,0.50267,0.1,2,0.377,0.34349,0.59483,289,2.13635,-0.358,-0.17594,0.31836,5,3U1D,2.0,False,1.725,14,True,right,0.0,1.4765,1.7929,0.3164,0.3852,0.8848,0.4996,A
290,0.50267,1.2,1,0.27647,0.25971,0.72888,290,2.39607,0.258,0.12567,0.62834,5,2D1U,1.0,True,3.717,19,False,left,0.0,0.2825,0.9068,0.6244,1.6332,2.1318,0.4986,A
291,0.50267,0.1,1,0.36025,0.41052,0.61159,291,2.51337,0.258,0.12567,0.62834,5,2D1U,1.0,True,0.392,19,False,left,0.0,0.3608,0.9862,0.6254,1.5938,2.0937,0.4999,V
292,0.50267,1.2,1,0.25134,0.36863,0.62834,292,2.36257,0.222,0.10891,0.61159,5,2D1U,2.0,False,0.867,19,False,right,0.0,0.2541,0.8625,0.6084,1.4873,1.9874,0.5001,V
293,0.50267,0.1,1,0.32674,0.27647,0.45241,293,2.33743,0.566,0.28485,0.77914,5,3D1U,1.0,True,0.108,10,True,left,0.0,0.3292,1.1046,0.7754,1.5546,2.0539,0.4993,V
294,0.50267,1.2,1,0.26809,0.21782,0.44403,294,1.73421,-0.394,-0.20107,0.3016,5,3U1D,2.0,True,0.142,15,True,right,0.0,0.2723,0.5726,0.3003,1.0148,1.5138,0.499,A
295,0.50267,0.1,2,0.44403,0.33512,0.57807,295,2.23689,-0.25,-0.12567,0.377,5,2U1D,1.0,True,0.468,15,True,left,0.0,1.5224,1.8974,0.375,0.4475,0.9473,0.4998,A
296,0.50267,1.2,1,0.24296,0.3016,0.8713,296,2.54687,0.258,0.12567,0.62834,5,2D1U,1.0,True,0.434,20,True,left,0.0,0.2507,0.876,0.6253,1.7417,2.242,0.5003,V
297,0.50267,0.1,2,0.42727,0.25971,0.76239,297,2.73118,0.566,0.28485,0.77914,5,3D1U,2.0,True,2.333,10,True,right,0.0,1.6944,2.4687,0.7743,0.4357,0.9353,0.4996,V
298,0.50267,1.2,2,0.39376,0.34349,0.8713,298,2.87361,0.53,0.26809,0.76239,5,3D1U,2.0,True,0.184,11,True,right,0.0,1.7616,2.5197,0.7581,0.3947,0.8949,0.5002,A
299,0.50267,0.1,1,0.25971,0.3016,0.47754,299,1.84312,-0.394,-0.20107,0.3016,5,3U1D,1.0,False,0.192,15,True,left,0.0,0.268,0.5678,0.2997,1.043,1.5436,0.5006,V
300,0.50267,1.2,2,0.30998,0.42727,0.76239,300,2.37931,-0.25,-0.12567,0.377,5,2U1D,1.0,True,0.333,15,True,left,0.0,1.5767,1.9503,0.3736,0.3177,0.8176,0.5,V
301,0.50267,0.1,2,0.40214,0.33512,0.60321,301,2.2369,-0.214,-0.10891,0.39376,5,2U1D,1.0,True,0.175,16,True,left,0.0,1.5028,1.8947,0.3919,0.4026,0.9034,0.5008,A
302,0.50267,1.2,1,0.25971,0.35187,0.50267,302,2.37931,0.53,0.26809,0.76239,5,3D1U,2.0,False,0.517,11,True,right,0.0,0.2678,1.0263,0.7586,1.5263,2.0263,0.5,A
303,0.50267,0.1,1,0.31836,0.43565,0.65347,303,2.30391,-0.214,-0.10891,0.39376,5,2U1D,2.0,True,1.95,16,True,right,0.0,0.3263,0.7178,0.3915,1.3681,1.8671,0.4991,A
304,0.50267,1.2,2,0.42727,0.36025,0.41052,304,1.98556,-0.43,-0.21782,0.28485,5,3U1D,1.0,True,0.193,15,False,left,0.0,1.3407,1.6242,0.2835,0.4326,0.9326,0.5,A
305,0.50267,0.1,1,0.28485,0.31836,0.69536,305,2.58038,0.566,0.28485,0.77914,5,3D1U,2.0,False,0.501,12,True,right,0.0,0.2944,1.0683,0.774,1.7598,2.2609,0.5011,A
306,0.50267,1.2,2,0.30998,0.20945,0.87968,306,2.3123,-0.178,-0.09216,0.41052,5,2U1D,1.0,True,2.367,16,False,left,0.0,1.6905,2.0994,0.4089,0.3154,0.8156,0.5002,V
307,0.50267,0.1,2,0.41889,0.20107,0.50267,307,2.03582,-0.178,-0.09216,0.41052,5,2U1D,1.0,True,1.409,16,False,left,0.0,1.4235,1.832,0.4085,0.4236,0.9239,0.5003,A
