,standardDur,riseDur,order,preDur,postDur,isiDur,trial_num,totalDur,delta_dur_percents,deltaDurS,testDurS,intensities,current_stair,responses,is_correct,response_rts,stair_num_reversal,stair_is_reversal,response_keys,conflictDur,recordedOnsetVisualTest,recordedOffsetVisualTest,recordedDurVisualTest,recordedOnsetAudio,recordedOffsetAudio,recordedDurAudio,modalityPostCue
0,0.5002,0.0,1,0.6003,0.5586,0.0834,0,2.5679,0.65,0.3252,0.8254,5,1D1U,1.0,True,0.264,0,False,left,0.0,0.586422599999878,1.4113750999999866,0.8249525000001086,1.48662319999994,1.9864340999999968,0.4998109000000568,
1,0.5002,0.0,2,0.5419,0.5336,0.1501,1,2.6763,0.9,0.4502,0.9505,5,lapse_rate,2.0,True,0.533,0,False,right,0.0,1.1812660000000506,2.1400590000000648,0.9587930000000142,0.5315656000000217,1.0311526000000413,0.49958700000001954,
2,0.5002,0.0,2,0.4919,0.617,0.3835,2,2.1677,-0.65,-0.3252,0.1751,5,2U1D,1.0,True,0.758,0,False,left,0.0,1.3665942999998606,1.5497556999998778,0.18316140000001724,0.4830035999998472,0.9830400999999256,0.5000365000000784,
3,0.5002,0.0,1,0.4419,0.4586,0.8337,3,2.9597,0.45,0.2251,0.7253,5,1D1U,1.0,True,0.416,0,False,left,0.0,0.4310187000000951,1.1640380999999707,0.7330193999998755,1.9809437999999773,2.480777900000021,0.4998341000000437,
4,0.5002,0.0,2,0.4919,0.5336,0.5586,4,2.1343,-0.9,-0.4502,0.05,5,lapse_rate,1.0,True,1.258,0,False,left,0.0,1.540367500000002,1.59037770000009,0.050010200000087934,0.48201300000005176,0.9821306999999706,0.5001176999999188,
5,0.5002,0.0,2,0.5669,0.5002,0.4169,5,2.8096,0.65,0.3252,0.8254,5,2D1U,2.0,True,0.199,0,False,right,0.0,1.473888400000078,2.298911999999973,0.8250235999998949,0.5572617000000264,1.0571919999999864,0.49993029999995997,
6,0.5002,0.0,2,0.4919,0.5919,0.0167,6,1.7758,-0.65,-0.3252,0.1751,5,1U1D,1.0,True,1.092,0,False,left,0.0,0.9985016000000542,1.1736574999999903,0.17515589999993608,0.4817470000000412,0.9821071000001211,0.5003601000000799,
7,0.5002,0.0,1,0.4169,0.4586,0.767,7,2.9681,0.65,0.3252,0.8254,5,2D1U,1.0,True,2.566,0,False,left,0.0,0.404825800000026,1.2382915999999113,0.8334657999998853,1.9882888999998158,2.488073699999859,0.4997848000000431,
8,0.5002,0.0,1,0.5169,0.6253,0.2668,8,2.0843,-0.65,-0.3252,0.1751,5,2U1D,2.0,True,0.342,0,False,right,0.0,0.508638400000109,0.6916685999999572,0.18303019999984826,0.9417278000000806,1.4417799000000286,0.500052099999948,
9,0.5002,0.0,2,0.617,0.5252,0.6753,9,2.3677,-0.9,-0.4502,0.05,5,lapse_rate,1.0,True,3.424,0,False,left,0.0,1.7825955000000704,1.83311730000014,0.05052180000006956,0.607526400000097,1.1079171000001224,0.5003907000000254,
10,0.5002,0.0,1,0.617,0.4169,0.2751,10,2.0843,-0.45,-0.2251,0.2751,5,1U1D,2.0,True,0.7,0,False,right,0.0,0.6075726000001396,0.890937200000053,0.2833645999999135,1.1490166000000954,1.6492517000001499,0.5002351000000544,
11,0.5002,0.0,2,0.6336,0.5919,0.5169,11,2.8679,0.25,0.1251,0.6253,5,1D1U,2.0,True,0.233,0,False,right,0.0,1.6376659000000018,2.2630618999999115,0.6253959999999097,0.6214500999999473,1.1212381999998797,0.49978809999993246,
12,0.5002,0.0,1,0.5419,0.5503,0.8838,12,2.8514,-0.25,-0.1251,0.3752,5,1U1D,1.0,False,0.833,0,False,left,0.0,0.5335990000000947,0.9088259000000107,0.375226899999916,1.7834055000000717,2.283793100000139,0.5003876000000673,
13,0.5002,0.0,2,0.5252,0.5753,0.4252,13,2.9764,0.9,0.4502,0.9505,5,lapse_rate,2.0,True,0.163,0,False,right,0.0,1.440444800000023,2.3988601999999446,0.9584153999999216,0.5153545999999096,1.0153381000000081,0.4999835000000985,
14,0.5002,0.0,1,0.617,0.4919,0.8254,14,2.7096,-0.45,-0.2251,0.2751,5,2U1D,2.0,True,2.233,0,False,right,0.0,0.6029102999998486,0.8778247999998712,0.2749145000000226,1.6944240999998783,2.1941154999999526,0.4996914000000743,
15,0.5002,0.0,1,0.5586,0.4335,0.2418,15,2.4594,0.45,0.2251,0.7253,5,2D1U,1.0,True,0.675,0,False,left,0.0,0.5497345999999652,1.2746784000000844,0.7249438000001192,1.5083164000000124,2.0083137000001443,0.4999973000001319,
16,0.5002,0.0,2,0.5919,0.617,0.2835,16,2.5178,0.05,0.025,0.5252,5,1D1U,1.0,False,1.716,0,False,left,0.0,1.365880599999855,1.8911682000000383,0.5252876000001834,0.5829945999998927,1.0825473999998394,0.49955279999994673,
17,0.5002,0.0,1,0.4252,0.5002,0.8754,17,2.8929,0.184,0.0917,0.5919,5,1D1U,2.0,False,0.574,1,True,right,0.0,0.4160604000001058,1.0075319000000036,0.5914714999998978,1.8744474000000082,2.3745698000000175,0.5001224000000093,
18,0.5002,0.0,1,0.6086,0.5419,0.1501,18,2.5261,0.45,0.2251,0.7253,5,2D1U,2.0,False,0.233,0,False,right,0.0,0.597013699999934,1.3217678999999407,0.7247542000000067,1.4636623999999756,1.963931300000013,0.5002689000000373,
19,0.5002,0.0,2,0.642,0.4252,0.4919,19,2.1093,-0.9,-0.4502,0.05,5,lapse_rate,1.0,True,1.016,0,False,left,0.0,1.6242374999999356,1.6662927999998374,0.04205529999990176,0.63257469999985,1.1329533000000538,0.5003786000002037,
20,0.5002,0.0,2,0.6253,0.4085,0.2835,20,2.0926,-0.45,-0.2251,0.2751,5,2U1D,1.0,True,0.599,0,False,left,0.0,1.398660899999868,1.6737516999999116,0.2750908000000436,0.6150268999999753,1.1155914999999368,0.5005645999999615,
21,0.5002,0.0,1,0.6253,0.6003,0.767,21,2.8013,-0.384,-0.1918,0.3085,5,1U1D,2.0,True,1.284,1,True,right,0.0,0.6142075000000204,0.9303013999999621,0.31609389999994164,1.680569099999957,2.180568100000073,0.4999990000001162,
22,0.5002,0.0,2,0.5503,0.4836,0.667,22,2.5763,-0.25,-0.1251,0.3752,5,2U1D,2.0,False,1.058,0,False,right,0.0,1.7067389999999705,2.08984630000009,0.3831073000001197,0.5400999999999385,1.0398827999999867,0.49978280000004816,
23,0.5002,0.0,2,0.4502,0.4502,0.2585,23,2.3177,0.318,0.1584,0.6586,5,1D1U,2.0,True,0.4,1,False,right,0.0,1.1980579999999463,1.8565516999999545,0.6584937000000082,0.4400544000000082,0.9398462999999992,0.4997918999999911,
24,0.5002,0.0,1,0.5419,0.617,0.5503,24,2.5596,-0.2942,-0.1501,0.3502,5,1U1D,2.0,True,0.357,2,True,right,0.0,0.5315861999999925,0.8898997999999665,0.35831359999997403,1.4232701000000816,1.9231776999999965,0.49990759999991496,
25,0.5002,0.0,1,0.5586,0.5252,0.7754,25,3.1514,0.584,0.2918,0.792,5,2D1U,1.0,True,1.091,1,True,left,0.0,0.5471445000000585,1.347066699999914,0.7999221999998554,2.105523200000107,2.605513700000074,0.49999049999996714,
26,0.5002,0.0,2,0.5503,0.4419,0.4836,26,2.9265,0.9,0.4502,0.9505,5,lapse_rate,2.0,True,1.574,0,False,right,0.0,1.52149959999997,2.4883391999999276,0.9668395999999575,0.5382614999998623,1.0382646999998997,0.5000032000000374,
27,0.5002,0.0,2,0.5753,0.4752,0.3668,27,2.7095,0.584,0.2918,0.792,5,2D1U,2.0,True,0.357,1,True,right,0.0,1.4315822000000935,2.23190610000006,0.8003238999999667,0.5654460999999174,1.0649634999999762,0.49951740000005884,
28,0.5002,0.0,1,0.5169,0.5836,0.1167,28,2.0259,-0.384,-0.1918,0.3085,5,2U1D,1.0,False,1.333,1,True,left,0.0,0.5064294999999674,0.8147297000000435,0.3083002000000761,0.9227589000001899,1.4227758000001813,0.5000168999999914,
29,0.5002,0.0,1,0.4752,0.6336,0.7253,29,2.7345,-0.2044,-0.1,0.4002,5,1U1D,1.0,False,0.274,2,False,left,0.0,0.4653376000001117,0.8740399000000707,0.408702299999959,1.5821831000000657,2.082418700000062,0.5002355999999963,
30,0.5002,0.0,1,0.5169,0.4419,0.4586,30,1.9676,-0.9,-0.4502,0.05,5,lapse_rate,2.0,True,1.299,0,False,right,0.0,0.5036654999998973,0.5540244999999686,0.05035900000007132,1.0122251999998753,1.5120542999998179,0.4998290999999426,
31,0.5002,0.0,1,0.5919,0.5086,0.3085,31,2.5262,0.2282,0.1167,0.617,5,1D1U,1.0,True,0.641,2,True,left,0.0,0.582048900000018,1.20738080000001,0.625331899999992,1.498730499999965,1.9991864999999507,0.5004559999999856,
32,0.5002,0.0,2,0.5419,0.4002,0.7504,32,2.4345,-0.518,-0.2585,0.2418,5,2U1D,2.0,False,47.966,1,False,right,0.0,1.7824031999998624,2.0321213999998236,0.24971819999996114,0.5324112999999215,1.0323676000000432,0.4999563000001217,
33,0.5002,0.0,2,0.5503,0.4502,0.2001,33,2.2677,0.1384,0.0667,0.5669,5,1D1U,2.0,True,2.141,2,False,right,0.0,1.2406541000000288,1.807253499999888,0.5665993999998591,0.5405542999999398,1.0406763999999384,0.5001220999999987,
34,0.5002,0.0,2,0.4419,0.5086,0.7587,34,2.9598,0.4942,0.2501,0.7504,5,2D1U,2.0,True,2.783,2,True,right,0.0,1.6890855999999985,2.447325699999965,0.7582400999999663,0.4304783000000043,0.9304692000000614,0.4999909000000571,
35,0.5002,0.0,1,0.4252,0.4335,0.0417,35,1.7508,-0.2942,-0.1501,0.3502,5,1U1D,2.0,True,1.683,3,True,right,0.0,0.41487819999997555,0.7733355999998821,0.35845739999990656,0.7983328999998776,1.2983847999998943,0.5000519000000168,
36,0.5002,0.0,2,0.4586,0.4669,0.1667,36,2.5429,0.9,0.4502,0.9505,5,lapse_rate,2.0,True,0.333,0,False,right,0.0,1.1137670000000526,2.071779099999958,0.9580120999999053,0.4468421000001399,0.9468403000000762,0.49999819999993633,
37,0.5002,0.0,2,0.5252,0.5419,0.0667,37,1.8091,-0.652,-0.3252,0.1751,5,2U1D,1.0,True,0.992,1,False,left,0.0,1.0828822999999375,1.258062000000109,0.17517970000017158,0.5161734000000706,1.0164910999999393,0.5003176999998686,
38,0.5002,0.0,1,0.5919,0.5002,0.0083,38,2.1258,0.0487,0.025,0.5252,5,1D1U,1.0,True,1.6,2,False,left,0.0,0.5833050999999614,1.1162790999999288,0.5329739999999674,1.1080354999999145,1.608016599999928,0.4999811000000136,
39,0.5002,0.0,2,0.6086,0.4669,0.3085,39,2.6346,0.4942,0.2501,0.7504,5,2D1U,2.0,True,0.592,2,True,right,0.0,1.4055261999999402,2.1722446999999647,0.7667185000000245,0.5972150999998576,1.0972315999999864,0.5000165000001289,
40,0.5002,0.0,1,0.5252,0.5336,0.2501,40,2.2093,-0.2044,-0.1,0.4002,5,1U1D,2.0,True,0.883,4,True,right,0.0,0.5159684000000198,0.9324188000000504,0.41645040000003064,1.1571747000000414,1.657207900000003,0.5000331999999617,
41,0.5002,0.0,1,0.4502,0.5753,0.7837,41,3.2599,0.9,0.4502,0.9505,5,lapse_rate,2.0,False,0.741,0,False,right,0.0,0.43809620000001814,1.3959334000001036,0.9578372000000854,2.162543899999946,2.6625229999999647,0.49997910000001866,
42,0.5002,0.0,2,0.5086,0.4586,0.3418,42,2.2928,-0.0411,-0.0167,0.4836,5,1D1U,1.0,True,0.683,2,False,left,0.0,1.3395585999999184,1.8314459999999144,0.491887399999996,0.49786999999992076,0.9982003000000077,0.5003303000000869,
43,0.5002,0.0,1,0.6086,0.5336,0.2835,43,1.9759,-0.9,-0.4502,0.05,5,lapse_rate,2.0,True,1.025,0,False,right,0.0,0.597923099999889,0.6478173999998944,0.04989430000000539,0.9226255999999466,1.4226326000000427,0.500007000000096,
44,0.5002,0.0,2,0.4586,0.5002,0.3668,44,2.5261,0.4044,0.2001,0.7003,5,2D1U,2.0,True,0.883,2,False,right,0.0,1.3176959999998417,2.0263709999999264,0.7086750000000848,0.4514788999999837,0.951152699999966,0.4996737999999823,
45,0.5002,0.0,1,0.5169,0.4669,0.5503,45,2.2094,-0.652,-0.3252,0.1751,5,2U1D,2.0,True,0.858,1,False,right,0.0,0.5068847999998525,0.6820879999997942,0.17520319999994172,1.2234761999998227,1.723445499999798,0.4999692999999752,
46,0.5002,0.0,2,0.6003,0.5586,0.0083,46,2.1093,-0.1147,-0.0584,0.4419,5,1U1D,2.0,False,2.383,4,False,right,0.0,1.0959232999998676,1.5459875999999895,0.4500643000001219,0.5873010999998769,1.0876917999999023,0.5003907000000254,
47,0.5002,0.0,1,0.6003,0.5336,0.767,47,2.8013,-0.2044,-0.1,0.4002,5,1U1D,2.0,True,0.458,5,True,right,0.0,0.5892513999999665,0.9976864999998725,0.408435099999906,1.7474480000000767,2.2470418999998856,0.49959389999980885,
48,0.5002,0.0,1,0.5919,0.4752,0.8337,48,3.1013,0.4044,0.2001,0.7003,5,2D1U,1.0,True,0.833,2,False,left,0.0,0.57898699999987,1.2876384999999573,0.7086515000000873,2.1036048999999366,2.6039863999999397,0.5003815000000031,
49,0.5002,0.0,2,0.5586,0.6253,0.1,49,2.2176,-0.1309,-0.0667,0.4335,5,1D1U,2.0,False,0.163,2,False,right,0.0,1.1482989999999518,1.5901487999999517,0.44184979999999996,0.5484028000000762,1.048589100000072,0.5001862999999958,
50,0.5002,0.0,2,0.4002,0.5336,0.4169,50,2.8014,0.9,0.4502,0.9505,5,lapse_rate,2.0,True,1.041,0,False,right,0.0,1.3084152999999787,2.2677693000000545,0.9593540000000758,0.392044100000021,0.8916721000000507,0.4996280000000297,
51,0.5002,0.0,2,0.4752,0.6253,0.05,51,1.8675,-0.5622,-0.2835,0.2168,5,2U1D,1.0,True,2.492,2,True,left,0.0,1.0132412000000386,1.2383128999999826,0.22507169999994403,0.4633128000000397,0.9633420000000115,0.5000291999999718,
52,0.5002,0.0,1,0.4502,0.5002,0.692,52,2.8012,0.3147,0.1584,0.6586,5,2D1U,1.0,True,0.641,2,False,left,0.0,0.43814759999986563,1.0962688999998136,0.658121299999948,1.7881067999999232,2.2880486999999903,0.4999419000000671,
53,0.5002,0.0,1,0.6003,0.5002,0.5336,53,2.5762,-0.1147,-0.0584,0.4419,5,1U1D,1.0,False,1.233,6,True,left,0.0,0.5914495000001807,1.041193499999963,0.4497439999997823,1.5578723000000991,2.0579446000001553,0.5000723000000562,
54,0.5002,0.0,2,0.4169,0.617,0.5252,54,2.5429,-0.0411,-0.0167,0.4836,5,1D1U,2.0,False,0.16,3,True,right,0.0,1.4321944000000713,1.9156783999999334,0.48348399999986214,0.4074513999998999,0.9071951000000809,0.499743700000181,
55,0.5002,0.0,1,0.4669,0.5419,0.8838,55,3.3433,0.9,0.4502,0.9505,5,lapse_rate,1.0,True,0.161,0,False,left,0.0,0.45988290000013876,1.4263888000000406,0.9665058999999019,2.284746400000131,2.784883499999978,0.5001370999998471,
56,0.5002,0.0,1,0.5836,0.5002,0.4586,56,2.2594,-0.5622,-0.2835,0.2168,5,2U1D,2.0,True,0.459,2,True,right,0.0,0.5709557000000132,0.7876367999999729,0.21668109999995977,1.246025199999849,1.7461398999998892,0.5001147000000401,
57,0.5002,0.0,2,0.5419,0.642,0.1334,57,2.4761,0.3147,0.1584,0.6586,5,2D1U,1.0,False,0.6,2,False,left,0.0,1.1648241999998845,1.8313108999998349,0.6664866999999504,0.5312553999999636,1.03141770000002,0.5001623000000563,
58,0.5002,0.0,2,0.6253,0.4586,0.5919,58,2.7012,0.0487,0.025,0.5252,5,1D1U,1.0,False,1.042,3,False,left,0.0,1.7066251999999622,2.2317023000000518,0.5250771000000896,0.6148732999999993,1.1149215000000368,0.5000482000000375,
59,0.5002,0.0,1,0.5336,0.5002,0.3001,59,2.2343,-0.2044,-0.1,0.4002,5,1U1D,1.0,False,0.958,7,True,left,0.0,0.5235565000000406,0.9401663000001008,0.4166098000000602,1.2151631000001544,1.7149940000001607,0.4998309000000063,
60,0.5002,0.0,2,0.5753,0.4169,0.1834,60,1.9426,-0.4724,-0.2334,0.2668,5,2U1D,2.0,False,3.607,2,False,right,0.0,1.248291399999971,1.5148157999999512,0.26652439999998023,0.5648161999999957,1.0648240000000442,0.5000078000000485,
61,0.5002,0.0,2,0.5753,0.5919,0.2835,61,2.0009,-0.9,-0.4502,0.05,5,lapse_rate,1.0,True,0.758,0,False,left,0.0,1.3490139000000454,1.3990100999999413,0.04999619999989591,0.5656587000000854,1.0657946999999695,0.500135999999884,
62,0.5002,0.0,1,0.5669,0.4419,0.0917,62,1.8175,-0.5622,-0.2835,0.2168,5,2U1D,2.0,True,0.992,3,True,right,0.0,0.5569350000000668,0.7737320000001091,0.21679700000004232,0.8570581000001312,1.3572860000001583,0.5002279000000271,
63,0.5002,0.0,2,0.6003,0.5002,0.5586,63,2.7262,0.1384,0.0667,0.5669,5,1D1U,1.0,False,0.799,3,False,left,0.0,1.6464069000001018,2.2130193000000418,0.56661239999994,0.587935699999889,1.0878531000000748,0.4999174000001858,
64,0.5002,0.0,1,0.5586,0.4586,0.5252,64,2.3928,-0.2942,-0.1501,0.3502,5,1U1D,2.0,True,0.583,7,False,right,0.0,0.5477081000001363,0.9059258000002046,0.35821770000006836,1.414338300000054,1.9142330000001948,0.4998947000001408,
65,0.5002,0.0,1,0.5002,0.6003,0.0417,65,1.6924,-0.9,-0.4502,0.05,5,lapse_rate,2.0,True,0.908,0,False,right,0.0,0.486732899999879,0.5368048999998791,0.050072000000000116,0.5782194999999319,1.0783329000000776,0.5001134000001457,
66,0.5002,0.0,1,0.5169,0.5919,0.6086,66,2.9179,0.4044,0.2001,0.7003,5,2D1U,2.0,False,2.441,3,True,right,0.0,0.5061917000000449,1.2144075999999586,0.7082158999999137,1.8062993999999435,2.306112100000064,0.49981270000012046,
67,0.5002,0.0,1,0.4919,0.4586,0.2168,67,2.0677,-0.2044,-0.1,0.4002,5,1U1D,2.0,True,0.9,8,True,right,0.0,0.48272029999998267,0.8911004999999932,0.4083802000000105,1.0911779000000479,1.5913186000000223,0.5001406999999745,
68,0.5002,0.0,1,0.4836,0.5419,0.4419,68,2.718,0.4942,0.2501,0.7504,5,2D1U,1.0,True,0.85,3,False,left,0.0,0.4715274000000136,1.2298163000000386,0.758288900000025,1.6548407000000225,2.154755400000113,0.4999147000000903,
69,0.5002,0.0,1,0.5419,0.5836,0.8504,69,3.2265,0.4942,0.2501,0.7504,5,2D1U,2.0,False,0.3,3,False,right,0.0,0.5288946999999098,1.2871880999998666,0.7582933999999568,2.1205777999998645,2.620656199999985,0.5000784000001204,
70,0.5002,0.0,1,0.5252,0.617,0.7337,70,2.5929,-0.5622,-0.2835,0.2168,5,2U1D,2.0,True,0.258,3,True,right,0.0,0.5143285999999989,0.7389565000000857,0.2246279000000868,1.4559725000001436,1.95584400000007,0.4998714999999265,
71,0.5002,0.0,2,0.5836,0.6086,0.1334,71,2.4428,0.2282,0.1167,0.617,5,1D1U,1.0,False,2.208,3,False,left,0.0,1.2106498999999076,1.827163100000007,0.6165132000000995,0.5773729000000003,1.0774923999999828,0.5001194999999825,
72,0.5002,0.0,2,0.4002,0.617,0.7087,72,2.8847,0.318,0.1584,0.6586,5,1D1U,2.0,True,1.383,3,False,right,0.0,1.5954784999998992,2.2456902999999784,0.6502118000000792,0.3871828999999707,0.8869958999998744,0.4998129999999037,
73,0.5002,0.0,1,0.6086,0.4586,0.0333,73,2.0426,-0.1147,-0.0584,0.4419,5,1U1D,2.0,True,0.483,8,False,right,0.0,0.599440100000038,1.0493513000001258,0.4499112000000878,1.0662454000000707,1.5663005000001249,0.5000551000000542,
74,0.5002,0.0,2,0.5586,0.4752,0.5086,74,2.8346,0.584,0.2918,0.792,5,2D1U,2.0,True,0.816,3,False,right,0.0,1.5556011999999555,2.355592500000057,0.7999913000001015,0.547401900000068,1.047787800000151,0.500385900000083,
75,0.5002,0.0,2,0.5919,0.617,0.3168,75,2.2927,-0.4724,-0.2334,0.2668,5,2U1D,2.0,False,1.891,4,True,right,0.0,1.3989294999998947,1.6653773999998975,0.26644790000000285,0.582141300000103,1.082476799999995,0.5003354999998919,
76,0.5002,0.0,1,0.617,0.5002,0.767,76,2.6012,-0.5622,-0.2835,0.2168,5,2U1D,2.0,True,0.674,5,True,right,0.0,0.6063176000000112,0.8314940000000206,0.22517640000000938,1.5811820999999782,2.081737700000076,0.5005556000000979,
77,0.5002,0.0,2,0.617,0.4419,0.4836,77,2.5263,-0.0249,-0.0083,0.4836,5,1U1D,2.0,False,5.584,8,False,right,0.0,1.5892352999999275,2.072746699999925,0.4835113999999976,0.6059410999998818,1.1059536999998727,0.5000125999999909,
78,0.5002,0.0,1,0.5419,0.4419,0.7504,78,2.8514,0.2282,0.1167,0.617,5,1D1U,1.0,True,1.141,4,True,left,0.0,0.5302970000000187,1.147122900000113,0.6168259000000944,1.8886764000001222,2.388997100000097,0.5003206999999747,
79,0.5002,0.0,1,0.4836,0.5086,0.4586,79,2.1678,-0.5622,-0.2835,0.2168,5,2U1D,1.0,False,1.724,5,True,left,0.0,0.47319379999999,0.689776300000176,0.21658250000018597,1.1394277000001694,1.6396482000000105,0.5002204999998412,
80,0.5002,0.0,2,0.5669,0.6086,0.4252,80,2.8929,0.584,0.2918,0.792,5,2D1U,2.0,True,1.466,3,False,right,0.0,1.4801106000002164,2.280425900000182,0.8003152999999656,0.5555522000001929,1.0552602000000206,0.49970799999982773,
81,0.5002,0.0,1,0.4502,0.642,0.6086,81,2.9514,0.4942,0.2501,0.7504,5,2D1U,1.0,True,0.508,4,True,left,0.0,0.43902830000001813,1.197458000000097,0.7584297000000788,1.7891970000000583,2.289352400000098,0.5001554000000397,
82,0.5002,0.0,2,0.5002,0.5169,0.3335,82,2.4177,0.1384,0.0667,0.5669,5,1D1U,1.0,False,2.108,4,False,left,0.0,1.3216809999998986,1.8965484000000288,0.5748674000001301,0.4885455999999522,0.9887954999999238,0.5002498999999716,
83,0.5002,0.0,2,0.5669,0.5753,0.6837,83,3.0765,0.4942,0.2501,0.7504,5,2D1U,2.0,True,0.916,4,True,right,0.0,1.739400299999943,2.4976575000000594,0.7582572000001164,0.5561749000000873,1.0561608000000433,0.499985899999956,
84,0.5002,0.0,1,0.4586,0.642,0.8337,84,3.1348,0.4044,0.2001,0.7003,5,2D1U,1.0,True,0.316,4,False,left,0.0,0.44383769999990363,1.1604783000000225,0.7166406000001189,1.9689619999999195,2.468993400000045,0.5000314000001254,
85,0.5002,0.0,1,0.5836,0.5836,0.8504,85,2.6929,-0.652,-0.3252,0.1751,5,2U1D,2.0,True,0.966,5,False,right,0.0,0.5741872999999487,0.757058299999926,0.18287099999997736,1.5904057000000194,2.0905720000000656,0.5001663000000462,
86,0.5002,0.0,2,0.4919,0.4752,0.5336,86,2.4428,-0.1147,-0.0584,0.4419,5,1U1D,1.0,True,1.808,9,True,left,0.0,1.512617400000181,1.9628226000002087,0.4502052000000276,0.4794096000000536,0.9794288000000506,0.500019199999997,
87,0.5002,0.0,2,0.6253,0.4419,0.3585,87,2.101,-0.652,-0.3252,0.1751,5,2U1D,2.0,False,2.374,5,False,right,0.0,1.474529500000017,1.6497199000000364,0.1751904000000195,0.6161638000000949,1.116404999999986,0.5002411999998913,
88,0.5002,0.0,1,0.6253,0.4836,0.0167,88,1.7509,-0.7418,-0.3668,0.1251,5,2U1D,2.0,True,1.558,5,False,right,0.0,0.616621699999996,0.7497941999999966,0.13317250000000058,0.7497941999999966,1.2496920000000955,0.49989780000009887,
89,0.5002,0.0,1,0.6336,0.5086,0.9004,89,3.1598,0.2282,0.1167,0.617,5,1D1U,2.0,False,1.208,5,True,right,0.0,0.6220347000000856,1.2387528000001566,0.616718100000071,2.130475400000023,2.6303269,0.499851499999977,
90,0.5002,0.0,1,0.642,0.4002,0.4419,90,2.4679,-0.0249,-0.0083,0.4836,5,1U1D,1.0,False,5.625,10,True,left,0.0,0.6311384000000544,1.1143907000000581,0.48325230000000374,1.5478362999999717,2.047858700000006,0.5000224000000344,
91,0.5002,0.0,1,0.4752,0.4919,0.7504,91,2.918,0.4044,0.2001,0.7003,5,2D1U,1.0,True,0.833,4,False,left,0.0,0.463651499999969,1.1806361999999808,0.7169847000000118,1.905230599999868,2.4054667999998856,0.5002362000000176,
92,0.5002,0.0,2,0.617,0.5919,0.2918,92,2.126,-0.7418,-0.3668,0.1251,5,2U1D,1.0,True,1.442,5,False,left,0.0,1.3976520999999593,1.5311619000001429,0.13350980000018353,0.606184600000006,1.1062799000001178,0.5000953000001118,
93,0.5002,0.0,1,0.4836,0.5753,0.717,93,2.9347,0.3147,0.1584,0.6586,5,2D1U,2.0,False,0.966,4,False,right,0.0,0.47117530000014085,1.1378449999999702,0.6666696999998294,1.8378318000000036,2.3378039000001536,0.49997210000015,
94,0.5002,0.0,2,0.4502,0.4252,0.2835,94,2.101,-0.1147,-0.0584,0.4419,5,1U1D,2.0,False,3.075,11,True,right,0.0,1.2198222999998052,1.6697288999998818,0.44990660000007665,0.43643189999988863,0.9364955999999438,0.5000637000000552,
95,0.5002,0.0,1,0.5169,0.6503,0.7253,95,3.0513,0.318,0.1584,0.6586,5,1D1U,1.0,True,2.091,5,False,left,0.0,0.505489500000067,1.1635696000000735,0.6580801000000065,1.8804469000001518,2.3804407000000083,0.4999937999998565,
96,0.5002,0.0,2,0.5919,0.6336,0.4419,96,2.7846,0.2282,0.1167,0.617,5,1D1U,2.0,True,1.208,6,True,right,0.0,1.524428799999896,2.149336299999959,0.624907500000063,0.5829707000000326,1.0830347999999503,0.5000640999999177,
97,0.5002,0.0,2,0.5086,0.4335,0.2418,97,2.3844,0.4044,0.2001,0.7003,5,2D1U,2.0,True,2.808,5,True,right,0.0,1.2388039999998455,1.955395499999895,0.7165915000000496,0.49728189999996175,0.9971434999999929,0.4998616000000311,
98,0.5002,0.0,1,0.4586,0.617,0.2751,98,2.4178,0.1384,0.0667,0.5669,5,1D1U,1.0,True,2.008,6,False,left,0.0,0.44622720000006666,1.012831100000085,0.5666039000000183,1.2794339000001855,1.7791435999999976,0.4997096999998121,
99,0.5002,0.0,1,0.6253,0.5336,0.6336,99,2.8179,0.0487,0.025,0.5252,5,1D1U,2.0,False,1.374,6,False,right,0.0,0.6131975999999213,1.1382892999999967,0.5250917000000754,1.7630091999999422,2.263033299999961,0.5000241000000187,
100,0.5002,0.0,1,0.4419,0.4335,0.0333,100,1.584,-0.652,-0.3252,0.1751,5,2U1D,2.0,True,1.958,6,True,right,0.0,0.42958619999990333,0.6127621999999064,0.18317600000000311,0.6293773999998393,1.1301553999999214,0.5007780000000821,
101,0.5002,0.0,2,0.4919,0.5669,0.792,101,2.7512,-0.2044,-0.1,0.4002,5,1U1D,2.0,False,0.707,11,False,right,0.0,1.7748438999999507,2.1831150000000434,0.4082711000000927,0.48285759999998845,0.9830615999999281,0.5002039999999397,
102,0.5002,0.0,2,0.5836,0.4502,0.7003,102,2.5845,-0.2942,-0.1501,0.3502,5,1U1D,2.0,False,0.7,11,False,right,0.0,1.7718121000000338,2.1298812999998518,0.358069199999818,0.5717412999999851,1.0721255999999357,0.5003842999999506,
103,0.5002,0.0,2,0.5169,0.4586,0.7253,103,2.5095,-0.384,-0.1918,0.3085,5,1U1D,1.0,True,1.24,11,False,left,0.0,1.7300677999999152,2.0384742999999617,0.30840650000004644,0.5050888000000668,1.00516279999988,0.5000739999998132,
104,0.5002,0.0,1,0.5919,0.4752,0.8254,104,3.093,0.4044,0.2001,0.7003,5,2D1U,1.0,True,2.058,5,True,left,0.0,0.5820022000000336,1.2903503,0.7083480999999665,2.098746500000061,2.598823300000049,0.500076799999988,
105,0.5002,0.0,1,0.4502,0.5919,0.6586,105,2.376,-0.652,-0.3252,0.1751,5,2U1D,2.0,True,0.208,6,True,right,0.0,0.4416074999999182,0.6168545999998969,0.17524709999997867,1.266734499999984,1.7667821000000004,0.5000476000000162,
106,0.5002,0.0,2,0.6336,0.4335,0.5419,106,2.6761,0.1384,0.0667,0.5669,5,1D1U,2.0,True,2.708,7,True,right,0.0,1.6646716000000197,2.2398641000002044,0.5751925000001847,0.6227793000000474,1.123018600000023,0.5002392999999756,
107,0.5002,0.0,1,0.4836,0.4002,0.0584,107,1.9676,0.0487,0.025,0.5252,5,1D1U,1.0,True,1.991,8,True,left,0.0,0.4721804000000702,1.005107100000032,0.5329266999999618,1.046794200000022,1.546824000000015,0.500029799999993,
108,0.5002,0.0,2,0.5503,0.642,0.4335,108,2.3428,-0.5622,-0.2835,0.2168,5,2U1D,1.0,True,0.366,6,False,left,0.0,1.4702643000000535,1.6869587999999567,0.2166944999999032,0.537095700000009,1.0369881999999961,0.4998924999999872,
109,0.5002,0.0,1,0.4169,0.4335,0.5252,109,2.226,-0.2942,-0.1501,0.3502,5,1U1D,2.0,True,0.534,12,True,right,0.0,0.40719910000007076,0.7654562000000169,0.35825709999994615,1.2738105000000814,1.773676099999875,0.49986559999979363,
110,0.5002,0.0,1,0.4335,0.5669,0.7003,110,2.8595,0.3147,0.1584,0.6586,5,2D1U,1.0,True,0.342,6,True,left,0.0,0.4220751000000291,1.0803768999999193,0.6583017999998901,1.7800525000000107,2.2801418999999896,0.5000893999999789,
111,0.5002,0.0,1,0.4335,0.4419,0.2751,111,2.1343,-0.0411,-0.0167,0.4836,5,1D1U,2.0,True,1.141,8,False,right,0.0,0.42230930000005173,0.905941200000143,0.48363190000009126,1.1724754000001667,1.672546800000191,0.5000714000000244,
112,0.5002,0.0,1,0.5753,0.4252,0.8838,112,2.818,-0.1309,-0.0667,0.4335,5,1D1U,2.0,True,0.933,8,False,right,0.0,0.563669400000208,1.0051917000000685,0.4415222999998605,1.8721464000000196,2.3721635000001697,0.5000171000001501,
113,0.5002,0.0,2,0.4919,0.5669,0.8337,113,3.0513,0.3147,0.1584,0.6586,5,2D1U,2.0,True,1.791,6,True,right,0.0,1.8172182999999222,2.483584800000017,0.6663665000000947,0.4838281999998344,0.9838247000000138,0.49999650000017937,
114,0.5002,0.0,2,0.5503,0.4502,0.0834,114,1.9843,-0.2044,-0.1,0.4002,5,1U1D,1.0,True,1.075,12,False,left,0.0,1.11933450000015,1.5279135000000679,0.40857899999991787,0.5360233999999764,1.0360415000000103,0.5000181000000339,
115,0.5002,0.0,2,0.5002,0.617,0.7837,115,2.6179,-0.5622,-0.2835,0.2168,5,2U1D,1.0,True,0.358,6,False,left,0.0,1.771485800000164,1.9879186000000573,0.21643279999989318,0.4882913000001281,0.9880112000000736,0.4997198999999455,
116,0.5002,0.0,1,0.6086,0.4335,0.3919,116,2.201,-0.4724,-0.2334,0.2668,5,2U1D,2.0,True,0.608,6,False,right,0.0,0.5980225000000701,0.8729936000001999,0.2749711000001298,1.247925000000123,1.7479799000000185,0.5000548999998955,
117,0.5002,0.0,1,0.5836,0.5002,0.3418,117,2.3677,-0.1147,-0.0584,0.4419,5,1U1D,2.0,True,1.059,12,False,right,0.0,0.5718036999999185,1.0220175999997991,0.4502138999998806,1.346860099999958,1.8467419999999493,0.4998818999999912,
118,0.5002,0.0,2,0.5252,0.5669,0.0667,118,1.9258,-0.4724,-0.2334,0.2668,5,2U1D,2.0,False,0.858,6,False,right,0.0,1.0818577000000005,1.3485233000001244,0.26666560000012396,0.5148661000000629,1.0149482000001626,0.5000821000000997,
119,0.5002,0.0,1,0.4836,0.4669,0.717,119,2.7763,0.2249,0.1084,0.6086,5,2D1U,2.0,False,0.241,6,False,right,0.0,0.47202659999993557,1.0804089999999178,0.6083823999999822,1.7886938999999984,2.28868969999985,0.49999579999985144,
120,0.5002,0.0,2,0.4669,0.617,0.6253,120,2.868,0.3147,0.1584,0.6586,5,2D1U,2.0,True,0.533,7,True,right,0.0,1.5773082999999133,2.2361051999998836,0.6587968999999703,0.4523077999999714,0.9524648999999954,0.500157100000024,
121,0.5002,0.0,2,0.5169,0.5086,0.7837,121,2.7013,-0.2207,-0.1084,0.3919,5,1D1U,1.0,True,2.174,8,False,left,0.0,1.7881567000001723,2.1802212000000054,0.39206449999983306,0.5048842999999579,1.004902900000161,0.5000186000002032,
122,0.5002,0.0,1,0.4335,0.4252,0.4335,122,2.0092,-0.5622,-0.2835,0.2168,5,2U1D,2.0,True,0.492,7,True,right,0.0,0.42333080000003065,0.6396976000000905,0.2163668000000598,1.0731657000001178,1.57305620000011,0.49989049999999224,
123,0.5002,0.0,1,0.5919,0.5753,0.1918,123,2.201,-0.3105,-0.1584,0.3418,5,1D1U,2.0,True,1.416,8,False,right,0.0,0.5812118999999711,0.9394176999999218,0.3582057999999506,1.1060309999998026,1.6059909999999036,0.499960000000101,
124,0.5002,0.0,2,0.6336,0.5419,0.8254,124,2.8012,-0.4002,-0.2001,0.3001,5,1D1U,1.0,True,1.108,8,False,left,0.0,1.947080299999925,2.2555814999998347,0.30850119999990966,0.6223626999999397,1.1223196999999345,0.4999569999999949,
125,0.5002,0.0,2,0.4502,0.6336,0.8587,125,3.1013,0.3147,0.1584,0.6586,5,2D1U,2.0,True,0.157,7,True,right,0.0,1.8012952000001405,2.4594399000000067,0.6581446999998661,0.4426597000001493,0.9426836000000094,0.5000238999998601,
126,0.5002,0.0,1,0.642,0.4335,0.642,126,2.7013,-0.0249,-0.0083,0.4836,5,1U1D,1.0,False,0.775,12,False,left,0.0,0.63448110000013,1.1260641000001215,0.49158299999999144,1.751465000000053,2.2515026999999463,0.5000376999998934,
127,0.5002,0.0,2,0.5002,0.5836,0.5586,127,2.4011,-0.49,-0.2418,0.2585,5,1D1U,1.0,True,1.626,8,False,left,0.0,1.5467416000001322,1.8053161000000273,0.2585744999998951,0.4888284000001022,0.9882755999999517,0.49944719999984954,
128,0.5002,0.0,2,0.6336,0.4252,0.6086,128,2.376,-0.5798,-0.2918,0.2084,5,1D1U,1.0,True,0.75,8,False,left,0.0,1.729906400000118,1.938464900000099,0.208558499999981,0.6215916999999536,1.1218321999999716,0.5002405000000181,
129,0.5002,0.0,2,0.5002,0.6503,0.8004,129,2.6679,-0.5622,-0.2835,0.2168,5,2U1D,1.0,True,0.607,7,True,left,0.0,1.7891750999999658,2.0142157000000225,0.22504060000005666,0.48951480000005176,0.9887948999999026,0.4992800999998508,
130,0.5002,0.0,1,0.4252,0.4752,0.2585,130,2.2677,0.2249,0.1084,0.6086,5,2D1U,1.0,True,1.241,8,True,left,0.0,0.41638510000007045,1.0327669000000697,0.6163817999999992,1.2748552000000473,1.7747880000001715,0.4999328000001242,
131,0.5002,0.0,2,0.5419,0.5753,0.6753,131,2.7346,-0.1147,-0.0584,0.4419,5,1U1D,2.0,False,1.775,13,True,right,0.0,1.7037623000001076,2.1455085000000054,0.4417461999998977,0.5290932000000339,1.0290717000000313,0.49997849999999744,
132,0.5002,0.0,2,0.5586,0.4002,0.2418,132,2.3094,0.2249,0.1084,0.6086,5,2D1U,2.0,True,0.267,8,True,right,0.0,1.289267099999961,1.9053134000000682,0.6160463000001073,0.5473574000000099,1.0471804999999677,0.4998230999999578,
133,0.5002,0.0,2,0.6253,0.642,0.6503,133,2.6846,-0.4724,-0.2334,0.2668,5,2U1D,2.0,False,1.317,8,True,right,0.0,1.762732700000015,2.0297855999999683,0.2670528999999533,0.6133504999997967,1.11262099999999,0.49927050000019335,
134,0.5002,0.0,1,0.5169,0.5419,0.8921,134,2.6178,-0.6696,-0.3335,0.1667,5,1D1U,2.0,True,0.163,8,False,right,0.0,0.505900899999915,0.6723451999998815,0.16644429999996646,1.555719599999975,2.0554617000000235,0.4997421000000486,
135,0.5002,0.0,1,0.5419,0.4502,0.8921,135,2.5011,-0.7594,-0.3835,0.1167,5,1D1U,2.0,True,0.616,8,False,right,0.0,0.5340957999999318,0.6508335999999417,0.11673780000000988,1.5426228000001174,2.0423929000000953,0.4997700999999779,
136,0.5002,0.0,2,0.5919,0.5503,0.7754,136,2.818,-0.2044,-0.1,0.4002,5,1U1D,1.0,True,1.166,13,False,left,0.0,1.8577091000001928,2.2656899000000976,0.4079807999999048,0.5827203000001191,1.0826464000001579,0.4999261000000388,
137,0.5002,0.0,1,0.5002,0.4335,0.617,137,2.4928,-0.1147,-0.0584,0.4419,5,1U1D,1.0,False,0.925,14,True,left,0.0,0.491192700000056,0.9413388999998915,0.4501461999998355,1.5413765000000694,2.0417947000000822,0.5004182000000128,
138,0.5002,0.0,2,0.5169,0.5836,0.8171,138,2.6346,-0.5622,-0.2835,0.2168,5,2U1D,1.0,True,3.216,9,True,left,0.0,1.821974199999886,2.0385217000000466,0.21654750000016065,0.5054929999998876,1.005400699999882,0.4999076999999943,
139,0.5002,0.0,1,0.4752,0.5336,0.3085,139,1.8925,-0.8491,-0.4252,0.075,5,1D1U,2.0,True,0.16,8,False,right,0.0,0.46406999999999243,0.5390822000001663,0.07501220000017383,0.839292500000056,1.3395323000002008,0.5002398000001449,
140,0.5002,0.0,2,0.617,0.4085,0.6837,140,2.7763,0.1351,0.0667,0.5669,5,2D1U,2.0,True,3.05,8,False,right,0.0,1.7929097999999613,2.3598242999999,0.5669144999999389,0.6097184000000198,1.1096242999999504,0.4999058999999306,
141,0.5002,0.0,1,0.5586,0.6086,0.8921,141,2.9597,-0.2044,-0.1,0.4002,5,1U1D,2.0,True,1.116,15,True,right,0.0,0.5470522000000528,0.9551314999998795,0.4080792999998266,1.8307881999999154,2.3308660999998665,0.5000778999999511,
142,0.5002,0.0,2,0.5336,0.5753,0.1751,142,2.001,-0.5622,-0.2835,0.2168,5,2U1D,1.0,True,2.341,9,True,left,0.0,1.1977606999998898,1.4226114999999027,0.2248508000000129,0.5227011999998012,1.0226972999998907,0.4999961000000894,
143,0.5002,0.0,1,0.4919,0.4002,0.6003,143,2.4345,-0.1147,-0.0584,0.4419,5,1U1D,2.0,True,0.433,16,True,right,0.0,0.4797671999999693,0.9299687000000176,0.4502015000000483,1.5131269999999404,2.013300699999945,0.5001737000000048,
144,0.5002,0.0,1,0.4836,0.4335,0.3418,144,2.326,0.1351,0.0667,0.5669,5,2D1U,2.0,False,0.35,8,False,right,0.0,0.47211829999992005,1.0469011000000137,0.5747828000000936,1.3716466999999284,1.8718805999999404,0.500233900000012,
145,0.5002,0.0,2,0.5836,0.6336,0.3168,145,2.6428,0.2249,0.1084,0.6086,5,2D1U,2.0,True,2.049,9,True,right,0.0,1.3863146000001052,1.994832100000167,0.6085175000000618,0.5695378000000346,1.0694559999999456,0.49991819999991094,
146,0.5002,0.0,1,0.4002,0.4419,0.8004,146,2.4095,-0.4724,-0.2334,0.2668,5,2U1D,2.0,True,1.117,10,True,right,0.0,0.3893562999999176,0.6560758999999052,0.2667195999999876,1.4476990999999089,1.94777299999987,0.5000738999999612,
147,0.5002,0.0,1,0.4836,0.5002,0.3001,147,2.2677,-0.0249,-0.0083,0.4836,5,1U1D,1.0,False,0.842,16,False,left,0.0,0.4721538999999666,0.9554749000001266,0.48332100000016,1.2470653000000311,1.7471130999999787,0.5000477999999475,
148,0.5002,0.0,1,0.5252,0.4836,0.6586,148,2.7762,0.2249,0.1084,0.6086,5,2D1U,1.0,True,0.442,9,True,left,0.0,0.513526899999988,1.1220215999999255,0.6084946999999374,1.7802899999999227,2.2802115999998023,0.4999215999998796,
149,0.5002,0.0,1,0.5086,0.4169,0.3085,149,2.001,-0.4724,-0.2334,0.2668,5,2U1D,2.0,True,0.625,10,True,right,0.0,0.496181100000058,0.7712748000001284,0.2750937000000704,1.0627558000001045,1.5629315999999562,0.5001757999998517,
150,0.5002,0.0,2,0.4919,0.6253,0.6503,150,2.5762,-0.3827,-0.1918,0.3085,5,2U1D,1.0,True,0.758,10,False,left,0.0,1.6292684000000008,1.9375417999999627,0.30827339999996184,0.47910780000006525,0.9792491000000609,0.5001412999999957,
151,0.5002,0.0,2,0.6253,0.5086,0.767,151,2.843,-0.1147,-0.0584,0.4419,5,1U1D,2.0,False,0.574,17,True,right,0.0,1.880370399999947,2.322019599999976,0.44164920000002894,0.6141806000000543,1.1138263999998799,0.4996457999998256,
152,0.5002,0.0,1,0.617,0.6336,0.6753,152,2.8263,-0.2044,-0.1,0.4002,5,1U1D,2.0,True,1.941,17,False,right,0.0,0.606728799999928,1.0231432000000495,0.41641440000012153,1.6732812000000195,2.173562899999979,0.5002816999999595,
153,0.5002,0.0,2,0.6086,0.5169,0.8254,153,2.893,-0.1147,-0.0584,0.4419,5,1U1D,1.0,True,1.1,18,True,left,0.0,1.9206222000000253,2.3705640999999105,0.4499418999998852,0.5956254999998691,1.0954698999998982,0.49984440000002905,
