,standardDur,audNoise,order,preDur,postDur,isiDur,trial_num,totalDur,delta_dur_percents,deltaDurS,testDurS,intensities,current_stair,responses,is_correct,response_rts,stair_num_reversal,stair_is_reversal,response_keys,conflictDur,recordedOnsetAudioTest,recordedOffsetAudioTest,recordedDurAudioTest,recordedOnsetVisualStandard,recordedOffsetVisualStandard,recordedDurVisualStandard,modalityPostCueTest
0,0.49741,1.2,2,0.27357,0.44767,0.63005,0,2.80207,0.9,0.44767,0.95337,5,lapse_rate,2.0,True,0.666,0,False,right,0.0,0.0006818999536335468,2.791650100145489,2.7909682001918554,0.2660789000801742,0.7664370001293719,0.5003581000491977,
1,0.49741,1.2,2,0.38964,0.22383,0.59689,1,2.6114,0.8,0.39793,0.90363,5,2D1U,2.0,True,0.92,0,False,right,0.0,0.0004908996634185314,2.6230302997864783,2.6225394001230597,0.38183899968862534,0.8817226998507977,0.4998837001621723,
2,0.49741,0.1,2,0.24041,0.2487,0.72953,2,1.76579,-0.9,-0.44767,0.04974,5,lapse_rate,1.0,True,0.485,0,False,left,0.0,0.00038510002195835114,1.7738708001561463,1.773485700134188,0.2320456998422742,0.7325563002377748,0.5005106003955007,
3,0.49741,0.1,2,0.34819,0.36477,0.69637,3,2.00622,-0.8,-0.39793,0.09948,5,1U1D,1.0,True,1.499,0,False,left,0.0,0.0006916001439094543,2.006846100091934,2.0061544999480247,0.3400799003429711,0.8398158000782132,0.49973589973524213,
4,0.49741,1.2,2,0.26528,0.26528,0.63005,4,2.56165,0.8,0.39793,0.90363,5,1D1U,2.0,True,0.474,0,False,right,0.0,0.0005215001292526722,2.5578533997759223,2.5573318996466696,0.2578830998390913,0.757806200068444,0.4999231002293527,
5,0.49741,0.1,2,0.39793,0.43109,0.64663,5,2.07254,-0.8,-0.39793,0.09948,5,2U1D,1.0,True,0.804,0,False,left,0.0,0.0005881995894014835,2.0824108999222517,2.08182270033285,0.3907435997389257,0.8906799997203052,0.4999363999813795,
6,0.49741,1.2,2,0.20725,0.41451,0.65492,6,1.82383,-0.9,-0.44767,0.04974,5,lapse_rate,1.0,True,0.407,0,False,left,0.0,0.0006609000265598297,1.8303811000660062,1.8297202000394464,0.19705580035224557,0.6971689001657069,0.5001130998134613,
7,0.49741,1.2,2,0.27357,0.40622,0.43938,7,2.42072,0.6,0.29845,0.80414,5,1D1U,2.0,True,0.468,0,False,right,0.0,0.0007547996938228607,2.4226718000136316,2.4219170003198087,0.26471809996291995,0.7646622001193464,0.49994410015642643,
8,0.49741,0.1,2,0.22383,0.4228,0.56373,8,1.90673,-0.6,-0.29845,0.19896,5,1U1D,2.0,False,1.462,0,False,right,0.0,0.0006683999672532082,1.9154207999818027,1.9147524000145495,0.21543180011212826,0.7152749998494983,0.49984319973737,
9,0.49741,1.2,2,0.30674,0.43109,0.44767,9,1.78239,-0.8,-0.39793,0.09948,5,2U1D,1.0,True,0.331,0,False,left,0.0,0.0004182998090982437,1.79041610006243,1.7899978002533317,0.2990751997567713,0.7986836996860802,0.4996084999293089,
10,0.49741,0.1,1,0.43938,0.20725,0.63834,10,2.68601,0.8,0.39793,0.90363,5,2D1U,1.0,True,0.679,0,False,left,0.0,0.0011657997965812683,2.7065648999996483,2.705399100203067,1.9820383000187576,2.481748000252992,0.49970970023423433,
11,0.49741,1.2,1,0.34819,0.32332,0.56373,11,1.87358,-0.72,-0.35648,0.14093,5,1U1D,2.0,True,0.359,1,True,right,0.0,0.0004986999556422234,1.882129699923098,1.8816309999674559,1.0489402995444834,1.548714999575168,0.49977470003068447,
12,0.49741,0.1,1,0.23212,0.29845,0.6715,12,1.74922,-0.9,-0.44767,0.04974,5,lapse_rate,2.0,True,0.384,0,False,right,0.0,0.0008268002420663834,1.7552255000919104,1.754398699849844,0.9548793002031744,1.4555060002021492,0.5006266999989748,
13,0.49741,0.1,1,0.33161,0.22383,0.6715,13,2.42072,0.4,0.19896,0.69637,5,1D1U,1.0,True,1.842,0,False,left,0.0,0.0007277000695466995,2.414768900256604,2.4140412001870573,1.697819400113076,2.1978309000842273,0.5000114999711514,
14,0.49741,1.2,1,0.25699,0.23212,0.46425,14,1.64973,-0.6,-0.29845,0.19896,5,2U1D,2.0,True,0.237,0,False,right,0.0,0.0007992996834218502,1.657829100266099,1.6570298005826771,0.9161824001930654,1.4163424000144005,0.5001599998213351,
15,0.49741,0.1,1,0.29845,0.32332,0.59689,15,2.52021,0.6,0.29845,0.80414,5,2D1U,1.0,True,0.408,0,False,left,0.0,0.0002550003118813038,2.5148241999559104,2.514569199644029,1.6985583999194205,2.198251400142908,0.4996930002234876,
16,0.49741,0.1,1,0.40622,0.36477,0.61347,16,1.93161,-0.9,-0.44767,0.04974,5,lapse_rate,2.0,True,0.572,0,False,right,0.0,0.00045559974387288094,1.9317092997953296,1.9312537000514567,1.065235000103712,1.565549099817872,0.50031409971416,
17,0.49741,1.2,1,0.37306,0.34819,0.82901,17,2.85181,0.6,0.29845,0.80414,5,2D1U,2.0,False,1.332,0,False,right,0.0,0.0005462002009153366,2.8569519999437034,2.856405799742788,2.0066724997013807,2.5067013995721936,0.5000288998708129,
18,0.49741,0.1,1,0.38135,0.40622,0.61347,18,2.49534,0.2,0.09948,0.59689,5,1D1U,2.0,False,2.356,0,False,right,0.0,0.00027849990874528885,2.5056439000181854,2.50536540010944,1.5890540000982583,2.0890325997024775,0.4999785996042192,
19,0.49741,1.2,1,0.37306,0.43109,0.86218,19,2.33783,-0.648,-0.32332,0.17409,5,1U1D,2.0,True,0.272,2,True,right,0.0,0.0007507000118494034,2.33921069977805,2.338459999766201,1.40596739994362,1.9057255000807345,0.4997581001371145,
20,0.49741,0.1,2,0.2487,0.33161,0.73782,20,2.0145,-0.6,-0.29845,0.19896,5,2U1D,1.0,True,0.339,0,False,left,0.0,0.0006081000901758671,2.0232788999564946,2.0226707998663187,0.23939350014552474,0.7391416002064943,0.4997481000609696,
21,0.49741,1.2,2,0.3399,0.39793,0.73782,21,2.92643,0.9,0.44767,0.95337,5,lapse_rate,2.0,True,0.408,0,False,right,0.0,0.000730899628251791,2.940834099892527,2.940103200264275,0.3322029998525977,0.8323555998504162,0.5001525999978185,
22,0.49741,1.2,2,0.38135,0.41451,0.46425,22,2.6197,0.72,0.35648,0.86218,5,2D1U,2.0,True,0.337,1,True,right,0.0,0.00045159971341490746,2.6323220003396273,2.6318704006262124,0.3729838002473116,0.8730335999280214,0.5000497996807098,
23,0.49741,0.1,2,0.4228,0.31503,0.62176,23,2.52021,0.32,0.15751,0.66321,5,1D1U,2.0,True,0.348,1,True,right,0.0,0.0007430999539792538,2.523696799762547,2.5229536998085678,0.4150487999431789,0.9154901998117566,0.5004413998685777,
24,0.49741,1.2,2,0.39793,0.38135,0.77927,24,2.35441,-0.4,-0.19896,0.29845,5,2U1D,1.0,True,0.341,0,False,left,0.0,0.00031749997287988663,2.373045399785042,2.372727899812162,0.38950239960104227,0.8894323999993503,0.49993000039830804,
25,0.49741,0.1,2,0.32332,0.43938,0.56373,25,2.03938,-0.576,-0.29016,0.21554,5,1U1D,1.0,True,0.346,2,False,left,0.0,0.0007715001702308655,2.0411905995570123,2.0404190993867815,0.3159274999052286,0.8161164997145534,0.5001889998093247,
26,0.49741,1.2,2,0.32332,0.40622,0.72124,26,2.81037,0.72,0.35648,0.86218,5,2D1U,2.0,True,0.428,1,True,right,0.0,0.0002560000866651535,2.8319433997385204,2.8316873996518552,0.3158788997679949,0.815675700083375,0.4997968003153801,
27,0.49741,1.2,2,0.39793,0.27357,0.6715,27,1.89015,-0.9,-0.44767,0.04974,5,lapse_rate,1.0,True,0.454,0,False,left,0.0,0.0006840000860393047,1.8914900999516249,1.8908060998655856,0.3921230002306402,0.8917876002378762,0.499664600007236,
28,0.49741,0.1,2,0.19896,0.24041,0.82072,28,2.37926,0.248,0.12435,0.62176,5,1D1U,2.0,True,0.484,2,True,right,0.0,0.0007752999663352966,2.398681200109422,2.397905900143087,0.18992270017042756,0.6906078001484275,0.5006850999779999,
29,0.49741,1.2,2,0.33161,0.26528,0.44767,29,1.79067,-0.504,-0.2487,0.2487,5,1U1D,1.0,True,0.717,2,False,left,0.0,0.0002649002708494663,1.7914654999040067,1.7912005996331573,0.3248664001002908,0.8248434001579881,0.4999770000576973,
30,0.49741,0.1,1,0.32332,0.41451,0.86218,30,2.39587,-0.4,-0.19896,0.29845,5,2U1D,2.0,True,0.24,0,False,right,0.0,0.0007376000285148621,2.406501700170338,2.4057641001418233,1.4807690000161529,1.9804805000312626,0.4997115000151098,
31,0.49741,1.2,1,0.43109,0.20725,0.51399,31,2.23834,0.176,0.09119,0.5886,5,1D1U,2.0,False,2.431,2,False,right,0.0,0.00039089983329176903,2.256392899900675,2.256002000067383,1.530647600069642,2.0308956000953913,0.5002480000257492,
32,0.49741,0.1,1,0.28187,0.26528,0.8456,32,2.71088,0.648,0.32332,0.82072,5,2D1U,1.0,True,0.397,2,True,left,0.0,0.0006348998285830021,2.7240379001013935,2.7234030002728105,1.949233700055629,2.4495733003132045,0.5003396002575755,
33,0.49741,1.2,1,0.26528,0.26528,0.4228,33,1.50051,-0.9,-0.44767,0.04974,5,lapse_rate,2.0,True,0.174,0,False,right,0.0,0.00025690020993351936,1.499777200166136,1.4995202999562025,0.7327608000487089,1.232990600168705,0.5002298001199961,
34,0.49741,1.2,1,0.24041,0.43109,0.82901,34,2.27979,-0.432,-0.21554,0.28187,5,1U1D,2.0,True,0.519,2,False,right,0.0,0.0008153999224305153,2.290616299957037,2.2898009000346065,1.3487550998106599,1.8486784999258816,0.49992340011522174,
35,0.49741,0.1,1,0.4228,0.39793,0.59689,35,2.31296,-0.2,-0.09948,0.39793,5,2U1D,2.0,True,0.487,0,False,right,0.0,0.0007263999432325363,2.323568099644035,2.3228416997008026,1.4155063997022808,1.9153227997012436,0.4998163999989629,
36,0.49741,1.2,1,0.30674,0.22383,0.83731,36,2.81866,0.9,0.44767,0.95337,5,lapse_rate,2.0,False,0.998,0,False,right,0.0,0.0007422999478876591,2.815689600072801,2.8149473001249135,2.0986959002912045,2.598951400257647,0.5002554999664426,
37,0.49741,1.2,1,0.32332,0.4228,0.59689,37,2.66114,0.648,0.32332,0.82072,5,2D1U,1.0,True,0.549,2,True,left,0.0,0.0007941997610032558,2.6567572001367807,2.6559630003757775,1.7398561998270452,2.2397050000727177,0.49984880024567246,
38,0.49741,0.1,1,0.43109,0.3399,0.71295,38,2.37928,-0.2,-0.09948,0.39793,5,2U1D,2.0,True,0.313,0,False,right,0.0,0.000689199659973383,2.3888917001895607,2.3882025005295873,1.5394028001464903,2.039804700296372,0.5004019001498818,
39,0.49741,1.2,1,0.23212,0.43109,0.73782,39,2.22176,-0.36,-0.18238,0.32332,5,1U1D,2.0,True,0.411,2,False,right,0.0,0.00026120012626051903,2.2236731997691095,2.223411999642849,1.2905985000543296,1.7905742996372283,0.4999757995828986,
40,0.49741,0.1,2,0.2487,0.3399,0.81243,40,2.5202,0.248,0.12435,0.62176,5,1D1U,2.0,True,0.393,3,True,right,0.0,0.0005969000048935413,2.531502999830991,2.5309060998260975,0.24030499998480082,0.7402653996832669,0.49996039969846606,
41,0.49741,1.2,2,0.21554,0.38964,0.78756,41,2.67771,0.576,0.29016,0.78756,5,2D1U,2.0,True,0.483,2,False,right,0.0,0.0007406999357044697,2.673881799913943,2.6731410999782383,0.20755239995196462,0.7071313997730613,0.49957899982109666,
42,0.49741,0.1,2,0.31503,0.35648,0.88705,42,2.55338,-0.0,0.0,0.49741,5,2U1D,2.0,False,1.429,0,False,right,0.0,0.0002854997292160988,2.5562637001276016,2.5559782003983855,0.30665390007197857,0.8061873000115156,0.49953339993953705,
43,0.49741,1.2,2,0.27357,0.4228,0.89534,43,3.04249,0.9,0.44767,0.95337,5,lapse_rate,1.0,False,2.235,0,False,left,0.0,0.0007581999525427818,3.0487285000272095,3.0479703000746667,0.2655123001895845,0.7653707000426948,0.4998583998531103,
44,0.49741,1.2,2,0.20725,0.21554,0.4228,44,1.69948,-0.288,-0.14093,0.35648,5,1U1D,1.0,True,0.548,2,False,left,0.0,0.0008407998830080032,1.70583469979465,1.704993899911642,0.19761079968884587,0.6980173997581005,0.5004066000692546,
45,0.49741,0.1,2,0.29016,0.34819,0.71295,45,2.43731,0.176,0.09119,0.5886,5,1D1U,2.0,True,0.348,4,True,right,0.0,0.00026350002735853195,2.4566405001096427,2.456377000082284,0.2813053000718355,0.7813753997907043,0.5000700997188687,
46,0.49741,1.2,2,0.29016,0.37306,0.47254,46,2.07255,-0.12,-0.05803,0.43938,5,2U1D,1.0,True,1.361,1,True,left,0.0,0.00028820009902119637,2.0725987004116178,2.0723105003125966,0.2812013002112508,0.7814824003726244,0.5002811001613736,
47,0.49741,0.1,2,0.34819,0.21554,0.81243,47,2.66113,0.576,0.29016,0.78756,5,2D1U,2.0,True,0.374,2,False,right,0.0,0.0007092002779245377,2.6571264998055995,2.656417299527675,0.34023179998621345,0.8401135997846723,0.4998817997984588,
48,0.49741,1.2,2,0.4228,0.39793,0.51399,48,2.38757,0.104,0.04974,0.55544,5,1D1U,2.0,True,0.373,4,False,right,0.0,0.0002839001826941967,2.3901092000305653,2.389825299847871,0.4149344000034034,0.914725000038743,0.4997906000353396,
49,0.49741,1.2,2,0.4228,0.26528,0.77098,49,2.00621,-0.9,-0.44767,0.04974,5,lapse_rate,1.0,True,0.426,0,False,left,0.0,0.0008062999695539474,2.007354199886322,2.006547899916768,0.41577580012381077,0.915280600078404,0.4995047999545932,
50,0.49741,0.1,1,0.28187,0.2487,0.48083,50,1.89845,-0.216,-0.10777,0.38964,5,1U1D,2.0,True,0.293,2,False,right,0.0,0.0007962002418935299,1.8989137997850776,1.898117599543184,1.1491021998226643,1.6491256998851895,0.5000235000625253,
51,0.49741,1.2,1,0.36477,0.41451,0.52228,51,2.31296,0.032,0.01658,0.51399,5,1D1U,2.0,False,0.299,4,False,right,0.0,0.0005569998174905777,2.314733499661088,2.3141764998435974,1.398346799891442,1.8990263999439776,0.5006796000525355,
52,0.49741,0.1,1,0.20725,0.32332,0.66321,52,2.13057,-0.12,-0.05803,0.43938,5,2U1D,2.0,True,0.367,1,True,right,0.0,0.0004095998592674732,2.1329352003522217,2.1325256004929543,1.3077084003016353,1.807947900146246,0.5002394998446107,
53,0.49741,1.2,1,0.2487,0.20725,0.6715,53,2.37926,0.504,0.2487,0.7544,5,2D1U,1.0,True,1.296,2,False,left,0.0,0.0007035997696220875,2.398497600108385,2.397794000338763,1.6731115998700261,2.1737891999073327,0.5006776000373065,
54,0.49741,0.1,1,0.4228,0.41451,0.70466,54,2.47047,-0.144,-0.07461,0.43109,5,1U1D,1.0,False,2.265,2,False,left,0.0,0.0006396002136170864,2.4653507000766695,2.4647110998630524,1.5570342000573874,2.0570716997608542,0.5000374997034669,
55,0.49741,0.1,1,0.23212,0.30674,0.43938,55,1.52539,-0.9,-0.44767,0.04974,5,lapse_rate,2.0,True,0.235,0,False,right,0.0,0.0006776000373065472,1.5402679997496307,1.5395903997123241,0.7156690000556409,1.215865799691528,0.5001967996358871,
56,0.49741,1.2,1,0.43938,0.26528,0.71295,56,2.30466,-0.216,-0.10777,0.38964,5,1U1D,2.0,True,0.242,3,True,right,0.0,0.0006504002958536148,2.2983690998516977,2.297718699555844,1.5403259000740945,2.040718900039792,0.5003929999656975,
57,0.49741,1.2,1,0.33161,0.26528,0.68808,57,2.73575,0.9,0.44767,0.95337,5,lapse_rate,2.0,False,0.465,0,False,right,0.0,0.0007322998717427254,2.732186199631542,2.7314538997597992,1.973706299904734,2.473874299786985,0.500167999882251,
58,0.49741,0.1,1,0.31503,0.4228,0.5057,58,2.29638,0.104,0.04974,0.55544,5,1D1U,1.0,True,0.374,5,True,left,0.0,0.0006955000571906567,2.307190800085664,2.306495300028473,1.3738739001564682,1.8733741003088653,0.49950020015239716,
59,0.49741,1.2,1,0.37306,0.19896,0.89534,59,2.43731,-0.048,-0.02487,0.47254,5,2U1D,1.0,False,0.388,2,True,left,0.0,0.0005025002174079418,2.448236800264567,2.447734300047159,1.7395390998572111,2.2397083998657763,0.5001693000085652,
60,0.49741,0.1,2,0.40622,0.29016,0.87876,60,2.82695,0.504,0.2487,0.7544,5,2D1U,2.0,True,0.429,2,False,right,0.0,0.0002789003774523735,2.8326272000558674,2.832348299678415,0.3995056003332138,0.8996984004043043,0.5001928000710905,
61,0.49741,1.2,2,0.25699,0.24041,0.77927,61,2.48703,0.432,0.21554,0.71295,5,2D1U,1.0,False,1.761,2,False,left,0.0,0.0012444001622498035,2.49065629998222,2.48941189981997,0.24936640029773116,0.7492355001159012,0.49986909981817007,
62,0.49741,0.1,2,0.43109,0.25699,0.59689,62,2.21347,-0.144,-0.07461,0.43109,5,1U1D,2.0,False,1.513,4,True,right,0.0,0.0007893997244536877,2.223429400008172,2.222640000283718,0.42412020033225417,0.9236544002778828,0.49953419994562864,
63,0.49741,1.2,2,0.43109,0.20725,0.89534,63,2.47047,-0.12,-0.05803,0.43938,5,2U1D,1.0,True,2.107,3,True,left,0.0,0.0008169999346137047,2.482259599957615,2.4814426000230014,0.424100199714303,0.9241105997934937,0.5000104000791907,
64,0.49741,0.1,2,0.2487,0.20725,0.8456,64,2.75233,0.9,0.44767,0.95337,5,lapse_rate,2.0,True,0.34,0,False,right,0.0,0.0007478999905288219,2.7577853999100626,2.7570374999195337,0.24133059987798333,0.7415989995934069,0.5002683997154236,
65,0.49741,0.1,2,0.39793,0.43938,0.46425,65,2.31296,0.032,0.01658,0.51399,5,1D1U,2.0,True,0.172,6,True,right,0.0,0.0007522003725171089,2.31576559972018,2.315013399347663,0.3913602000102401,0.8916775998659432,0.5003173998557031,
66,0.49741,1.2,2,0.27357,0.41451,0.83731,66,2.41244,-0.216,-0.10777,0.38964,5,1U1D,1.0,True,0.324,5,True,left,0.0,0.0005429000593721867,2.4330628998577595,2.4325199997983873,0.266185799613595,0.7662713997997344,0.5000856001861393,
67,0.49741,0.1,2,0.24041,0.41451,0.82901,67,2.73574,0.504,0.2487,0.7544,5,2D1U,2.0,True,0.432,3,True,right,0.0,0.0006744000129401684,2.732013799715787,2.731339399702847,0.23294759960845113,0.7324313996359706,0.49948380002751946,
68,0.49741,1.2,2,0.43938,0.40622,0.47254,68,2.29638,-0.04,-0.01658,0.48083,5,1D1U,1.0,True,0.575,6,False,left,0.0,0.0007282998412847519,2.3077314998954535,2.3070032000541687,0.43308060010895133,0.933112199883908,0.5000315997749567,
69,0.49741,1.2,2,0.37306,0.37306,0.46425,69,2.66115,0.9,0.44767,0.95337,5,lapse_rate,2.0,True,0.43,0,False,right,0.0,0.0005753003060817719,2.6653324998915195,2.6647571995854378,0.3651236998848617,0.8658107998780906,0.5006870999932289,
70,0.49741,0.1,1,0.35648,0.28187,0.77098,70,2.34612,-0.12,-0.05803,0.43938,5,2U1D,2.0,True,0.387,3,True,right,0.0,0.0007114000618457794,2.349418300203979,2.3487069001421332,1.566162799950689,2.066681600175798,0.5005188002251089,
71,0.49741,1.2,1,0.26528,0.33161,0.51399,71,2.12228,0.032,0.01658,0.51399,5,1D1U,2.0,False,1.933,6,False,right,0.0,0.0007154000923037529,2.1307610999792814,2.1300456998869777,1.288757599890232,1.7889457996934652,0.5001881998032331,
72,0.49741,0.1,1,0.38964,0.22383,0.66321,72,2.72746,0.9,0.44767,0.95337,5,lapse_rate,1.0,True,0.367,0,False,left,0.0,0.0007472997531294823,2.7405030000954866,2.739755700342357,2.007331000175327,2.5068207001313567,0.49948969995602965,
73,0.49741,0.1,1,0.3399,0.41451,0.63834,73,2.3627,-0.048,-0.02487,0.47254,5,2U1D,2.0,True,0.681,4,True,right,0.0,0.0002883998677134514,2.373234299942851,2.3729459000751376,1.4484349000267684,1.9483984000980854,0.49996350007131696,
74,0.49741,1.2,1,0.27357,0.38964,0.63834,74,2.55336,0.504,0.2487,0.7544,5,2D1U,1.0,True,1.756,3,True,left,0.0,0.0007171998731791973,2.5648608999326825,2.5641437000595033,1.6646587001159787,2.1651282999664545,0.5004695998504758,
75,0.49741,0.1,1,0.29845,0.28187,0.5886,75,2.09742,-0.144,-0.07461,0.43109,5,1U1D,1.0,False,3.274,6,True,left,0.0,0.0007563000544905663,2.098555199801922,2.0977988997474313,1.3149136998690665,1.8152290997095406,0.5003153998404741,
76,0.49741,1.2,1,0.24041,0.29845,0.76269,76,2.1886,-0.216,-0.10777,0.38964,5,1U1D,2.0,True,0.607,7,True,right,0.0,0.0002598999999463558,2.1811648001894355,2.180904900189489,1.3891743002459407,1.8892644001170993,0.5000900998711586,
77,0.49741,0.1,1,0.22383,0.36477,0.77927,77,2.42072,0.104,0.04974,0.55544,5,1D1U,1.0,True,0.991,7,True,left,0.0,0.000687700230628252,2.414385700132698,2.4136979999020696,1.5565315000712872,2.056285100057721,0.499753599986434,
78,0.49741,0.1,1,0.43109,0.40622,0.82072,78,3.10881,0.9,0.44767,0.95337,5,lapse_rate,1.0,True,0.409,0,False,left,0.0,0.0007651997730135918,3.1058979998342693,3.1051328000612557,2.2056648996658623,2.705914099700749,0.5002492000348866,
79,0.49741,1.2,1,0.38135,0.2487,0.43938,79,2.03938,-0.048,-0.02487,0.47254,5,2U1D,2.0,True,0.997,4,True,right,0.0,0.0007992000319063663,2.0494132000021636,2.0486139999702573,1.2910250998102129,1.7912194998934865,0.5001944000832736,
80,0.49741,0.1,2,0.24041,0.4228,0.40622,80,2.27979,0.432,0.21554,0.71295,5,2D1U,2.0,True,0.389,4,True,right,0.0,0.00046999985352158546,2.2899134000763297,2.289443400222808,0.23121530003845692,0.7312894999049604,0.5000741998665035,
81,0.49741,1.2,2,0.40622,0.27357,0.73782,81,2.42901,0.024,0.00829,0.51399,5,2U1D,1.0,False,0.482,4,False,left,0.0,0.00026719970628619194,2.4236646997742355,2.4233975000679493,0.3987592998892069,0.8985186000354588,0.4997593001462519,
82,0.49741,0.1,2,0.24041,0.25699,0.72953,82,2.23833,0.032,0.01658,0.51399,5,1D1U,2.0,True,0.321,8,True,right,0.0,0.00028189970180392265,2.257013200316578,2.2567313006147742,0.23220640001818538,0.7321108002215624,0.499904400203377,
83,0.49741,0.1,2,0.38135,0.43109,0.88705,83,2.24664,-0.9,-0.44767,0.04974,5,lapse_rate,1.0,True,0.415,0,False,left,0.0,0.0007392000406980515,2.24816789990291,2.247428699862212,0.37324950005859137,0.8737205001525581,0.5004710000939667,
84,0.49741,1.2,2,0.43109,0.24041,0.63834,84,2.23834,-0.144,-0.07461,0.43109,5,1U1D,2.0,False,0.435,8,True,right,0.0,0.0006081000901758671,2.248380099888891,2.247771999798715,0.4229918997734785,0.9235647995956242,0.5005728998221457,
85,0.49741,0.1,2,0.24041,0.26528,0.70466,85,2.42071,0.432,0.21554,0.71295,5,2D1U,2.0,True,0.509,4,True,right,0.0,0.0002768002450466156,2.413684600032866,2.4134077997878194,0.23165499977767467,0.7315840995870531,0.4999290998093784,
86,0.49741,1.2,2,0.27357,0.30674,0.86218,86,2.61969,0.36,0.18238,0.67979,5,2D1U,2.0,True,2.039,4,False,right,0.0,0.0009673000313341618,2.6247085998766124,2.6237412998452783,0.26566119957715273,0.7659628996625543,0.5003017000854015,
87,0.49741,0.1,2,0.25699,0.29845,0.89534,87,2.49534,0.096,0.04974,0.54715,5,2U1D,2.0,True,0.449,5,True,right,0.0,0.0008056000806391239,2.4981467998586595,2.4973411997780204,0.24818080011755228,0.7485179998911917,0.5003371997736394,
88,0.49741,0.1,2,0.43938,0.20725,0.83731,88,2.93472,0.9,0.44767,0.95337,5,lapse_rate,2.0,True,0.393,0,False,right,0.0,0.0007741996087133884,2.940244600176811,2.939470400568098,0.4313988001085818,0.9317017002031207,0.5003029000945389,
89,0.49741,1.2,2,0.37306,0.31503,0.43938,89,2.10571,-0.04,-0.01658,0.48083,5,1D1U,1.0,True,1.409,8,False,left,0.0,0.0007818001322448254,2.1154332999140024,2.1146514997817576,0.3660519002005458,0.8655063998885453,0.4994544996879995,
90,0.49741,0.1,1,0.39793,0.34819,0.51399,90,2.14716,-0.216,-0.10777,0.38964,5,1U1D,2.0,True,1.072,9,True,right,0.0,0.0007234998047351837,2.1493112999014556,2.1485878000967205,1.2993451999500394,1.7997643002308905,0.5004191002808511,
91,0.49741,1.2,1,0.2487,0.20725,0.67979,91,2.1803,0.096,0.04974,0.54715,5,2U1D,2.0,False,2.53,5,True,right,0.0,0.0002818000502884388,2.190086199901998,2.1898043998517096,1.4731844998896122,1.9732287996448576,0.5000442997552454,
92,0.49741,0.1,1,0.27357,0.35648,0.59689,92,2.15544,-0.144,-0.07461,0.43109,5,1U1D,2.0,True,0.6,10,True,right,0.0,0.0002927999012172222,2.1563144996762276,2.1560216997750103,1.2986094998195767,1.7983271996490657,0.499717699829489,
93,0.49741,1.2,1,0.21554,0.35648,0.43109,93,2.01451,0.032,0.01658,0.51399,5,1D1U,1.0,True,0.253,8,False,left,0.0,0.0002933000214397907,2.022008199710399,2.021714899688959,1.1559595996513963,1.6558392997831106,0.49987970013171434,
94,0.49741,0.1,1,0.22383,0.38135,0.82072,94,2.6031,0.36,0.18238,0.67979,5,2D1U,1.0,True,0.868,4,False,left,0.0,0.0006957999430596828,2.598867400083691,2.598171600140631,1.7244788999669254,2.2245696000754833,0.5000907001085579,
95,0.49741,0.1,1,0.33161,0.32332,0.81243,95,2.91814,0.9,0.44767,0.95337,5,lapse_rate,1.0,True,0.333,0,False,left,0.0,0.00030189985409379005,2.931844400241971,2.9315425003878772,2.0984343998134136,2.5993329999037087,0.5008986000902951,
96,0.49741,1.2,1,0.28187,0.37306,0.85389,96,2.65286,0.288,0.14093,0.64663,5,2D1U,2.0,False,1.324,4,False,right,0.0,0.0007060999050736427,2.6573105002753437,2.65660440037027,1.7817903999239206,2.2815149002708495,0.49972450034692883,
97,0.49741,0.1,1,0.35648,0.27357,0.61347,97,2.6943,0.9,0.44767,0.95337,5,lapse_rate,1.0,True,0.309,0,False,left,0.0,0.0007126997224986553,2.699911199975759,2.69919850025326,1.923905999865383,2.4235938997007906,0.49968789983540773,
98,0.49741,0.1,1,0.43938,0.2487,0.72953,98,2.37927,-0.072,-0.03316,0.46425,5,1U1D,2.0,True,0.968,10,False,right,0.0,0.00028190016746520996,2.391362499911338,2.391080599743873,1.6330581000074744,2.132554200012237,0.4994961000047624,
99,0.49741,1.2,1,0.43109,0.35648,0.51399,99,2.2798,-0.04,-0.01658,0.48083,5,1D1U,2.0,True,0.276,8,False,right,0.0,0.0007588998414576054,2.298799100331962,2.2980402004905045,1.4240472000092268,1.9242400000803173,0.5001928000710905,
100,0.49741,0.1,2,0.41451,0.28187,0.58031,100,2.35441,0.168,0.0829,0.58031,5,2U1D,2.0,True,2.317,5,False,right,0.0,0.0002537001855671406,2.3552628997713327,2.3550091995857656,0.405600399710238,0.9053972000256181,0.4997968003153801,
101,0.49741,1.2,2,0.26528,0.4228,0.74611,101,2.51191,0.168,0.0829,0.58031,5,2U1D,1.0,False,1.091,5,False,left,0.0,0.00027120020240545273,2.5151609000749886,2.514889699872583,0.256589500233531,0.7568811001256108,0.5002915998920798,
102,0.49741,0.1,2,0.38964,0.37306,0.58031,102,2.35441,0.032,0.01658,0.51399,5,1D1U,2.0,True,0.297,8,False,right,0.0,0.00034529995173215866,2.356926599983126,2.3565813000313938,0.38216570019721985,0.882096600253135,0.4999309000559151,
103,0.49741,1.2,2,0.30674,0.39793,0.67979,103,2.37928,-0.0,0.0,0.49741,5,1U1D,1.0,False,1.699,10,False,left,0.0,0.00044710002839565277,2.3896789997816086,2.389231899753213,0.2986514000222087,0.7981428997591138,0.4994914997369051,
104,0.49741,1.2,2,0.23212,0.21554,0.87876,104,1.87357,-0.9,-0.44767,0.04974,5,lapse_rate,1.0,True,0.429,0,False,left,0.0,0.0007032998837530613,1.8742165002040565,1.8735132003203034,0.22377300029620528,0.7241181000135839,0.5003450997173786,
105,0.49741,0.1,2,0.38135,0.40622,0.48083,105,2.4456,0.36,0.18238,0.67979,5,2D1U,2.0,True,0.346,5,True,right,0.0,0.0007521999068558216,2.448434100020677,2.447681900113821,0.3737048003822565,0.8737218002788723,0.5000169998966157,
106,0.49741,1.2,2,0.3399,0.38135,0.71295,106,2.55337,0.24,0.11606,0.62176,5,2U1D,2.0,True,0.439,5,False,right,0.0,0.000264899805188179,2.5663078003562987,2.5660429005511105,0.33314820006489754,0.8329978003166616,0.49984960025176406,
107,0.49741,0.1,2,0.19896,0.25699,0.40622,107,2.03937,0.36,0.18238,0.67979,5,2D1U,2.0,True,0.36,5,True,right,0.0,0.0007499000057578087,2.048016400076449,2.047266500070691,0.1895747003145516,0.6898016999475658,0.5002269996330142,
108,0.49741,1.2,2,0.29016,0.27357,0.72953,108,2.25492,-0.072,-0.03316,0.46425,5,1U1D,2.0,False,0.713,11,True,right,0.0,0.0007433001883327961,2.2668011002242565,2.2660578000359237,0.2833028002642095,0.7834455999545753,0.5001427996903658,
109,0.49741,0.1,2,0.34819,0.31503,0.55544,109,1.76581,-0.9,-0.44767,0.04974,5,lapse_rate,1.0,True,0.356,0,False,left,0.0,0.0007346998900175095,1.7829270996153355,1.782192399725318,0.3414448997937143,0.8409392000176013,0.49949430022388697,
110,0.49741,0.1,1,0.30674,0.26528,0.73782,110,2.28808,-0.04,-0.01658,0.48083,5,1D1U,2.0,True,0.357,8,False,right,0.0,0.0004799002781510353,2.291463299654424,2.290983399376273,1.5245011998340487,2.0242023998871446,0.4997012000530958,
111,0.49741,1.2,1,0.3399,0.4228,0.60518,111,2.48705,0.24,0.11606,0.62176,5,2U1D,2.0,False,0.308,5,False,right,0.0,0.0003021000884473324,2.490950800012797,2.49064869992435,1.5655141002498567,2.0654083001427352,0.49989419989287853,
112,0.49741,0.1,1,0.23212,0.43938,0.68808,112,2.28808,-0.144,-0.07461,0.43109,5,1U1D,2.0,True,1.183,11,False,right,0.0,0.00029060011729598045,2.298194700386375,2.297904100269079,1.3482881002128124,1.8486870001070201,0.5003988998942077,
113,0.49741,1.2,1,0.27357,0.24041,0.64663,113,2.30465,0.288,0.14093,0.64663,5,2D1U,2.0,False,0.168,6,True,right,0.0,0.0007740999571979046,2.3066850998438895,2.3059109998866916,1.565231699962169,2.065018800087273,0.4997871001251042,
114,0.49741,0.1,1,0.19896,0.31503,0.5886,114,2.11399,0.032,0.01658,0.51399,5,1D1U,2.0,False,0.339,8,False,right,0.0,0.0007222001440823078,2.1232714001089334,2.122549199964851,1.298163500148803,1.7978592002764344,0.4996957001276314,
115,0.49741,0.1,1,0.41451,0.21554,0.51399,115,1.69119,-0.9,-0.44767,0.04974,5,lapse_rate,2.0,True,0.295,0,False,right,0.0,0.00028399983420968056,1.698579499963671,1.6982955001294613,0.9734560996294022,1.4734299997799098,0.4999739001505077,
116,0.49741,1.2,1,0.24041,0.38964,0.68808,116,2.37098,0.104,0.04974,0.55544,5,1D1U,2.0,False,1.392,9,True,right,0.0,0.0006756000220775604,2.37269699992612,2.3720213999040425,1.4820356001146138,1.9814401003532112,0.4994045002385974,
117,0.49741,1.2,1,0.38135,0.26528,0.63005,117,1.82383,-0.9,-0.44767,0.04974,5,lapse_rate,2.0,True,0.263,0,False,right,0.0,0.000602399930357933,1.8308257996104658,1.8302233996801078,1.0557265998795629,1.5562705998308957,0.5005439999513328,
118,0.49741,0.1,1,0.28187,0.40622,0.83731,118,2.7026,0.36,0.18238,0.67979,5,2D1U,1.0,True,0.457,7,True,left,0.0,0.0008510001935064793,2.6984119000844657,2.6975608998909593,1.7985525000840425,2.298627400305122,0.5000749002210796,
119,0.49741,1.2,1,0.34819,0.43938,0.87876,119,2.62799,-0.072,-0.03316,0.46425,5,1U1D,2.0,True,0.572,12,True,right,0.0,0.0005908999592065811,2.640098299831152,2.6395073998719454,1.6904342998750508,2.1892269998788834,0.4987927000038326,
120,0.49741,0.1,2,0.35648,0.33161,0.77098,120,2.6114,0.312,0.15751,0.65492,5,2U1D,2.0,True,0.496,5,False,right,0.0,0.0010437997989356518,2.615009000059217,2.6139652002602816,0.3486544000916183,0.8493213001638651,0.5006669000722468,
121,0.49741,0.1,2,0.23212,0.32332,0.56373,121,2.56995,0.9,0.44767,0.95337,5,lapse_rate,2.0,True,0.399,0,False,right,0.0,0.0005832002498209476,2.5812693000771105,2.5806860998272896,0.2238813997246325,0.7232454996556044,0.49936409993097186,
122,0.49741,1.2,2,0.36477,0.43938,0.45596,122,2.25493,-0.0,0.0,0.49741,5,1U1D,2.0,False,1.108,12,False,right,0.0,0.0007270998321473598,2.2663135998882353,2.265586500056088,0.3570740995928645,0.8574321996420622,0.5003581000491977,
123,0.49741,0.1,2,0.43938,0.23212,0.51399,123,2.33782,0.312,0.15751,0.65492,5,2U1D,2.0,True,0.416,5,False,right,0.0,0.0003496999852359295,2.349170899949968,2.348821199964732,0.4326241002418101,0.9322298001497984,0.4996056999079883,
124,0.49741,1.2,2,0.38964,0.38964,0.66321,124,2.61969,0.36,0.18238,0.67979,5,2D1U,2.0,True,0.896,7,True,right,0.0,0.0002994001843035221,2.623480800073594,2.6231813998892903,0.381608699914068,0.881315799895674,0.499707099981606,
125,0.49741,0.1,2,0.23212,0.27357,0.78756,125,2.37926,0.176,0.09119,0.5886,5,1D1U,2.0,True,0.328,9,False,right,0.0,0.0007567000575363636,2.3897035997360945,2.388946899678558,0.22258399985730648,0.7230043997988105,0.500420399941504,
126,0.49741,1.2,2,0.38964,0.38135,0.40622,126,2.32125,0.288,0.14093,0.64663,5,2D1U,1.0,False,1.109,8,True,left,0.0,0.0007361001335084438,2.305876999627799,2.3051408994942904,0.3809928996488452,0.8807631996460259,0.4997702999971807,
127,0.49741,0.1,2,0.30674,0.26528,0.49741,127,2.12228,0.104,0.04974,0.55544,5,1D1U,2.0,True,0.377,10,True,right,0.0,0.0007152999751269817,2.140402500052005,2.139687200076878,0.2984941001050174,0.7981507000513375,0.49965659994632006,
128,0.49741,1.2,2,0.26528,0.33161,0.82901,128,2.54507,0.24,0.11606,0.62176,5,2U1D,1.0,False,1.023,6,True,left,0.0,0.0002708001993596554,2.5481850001960993,2.5479141999967396,0.2563640000298619,0.7566192001104355,0.5002552000805736,
129,0.49741,1.2,2,0.22383,0.30674,0.8456,129,1.92332,-0.9,-0.44767,0.04974,5,lapse_rate,1.0,True,0.594,0,False,left,0.0,0.001531500369310379,1.9311212999746203,1.92958979960531,0.22243470000103116,0.7228636997751892,0.500428999774158,
130,0.49741,0.1,1,0.3399,0.37306,0.39793,130,2.07255,-0.072,-0.03316,0.46425,5,1U1D,1.0,False,0.402,13,True,left,0.0,0.00025949999690055847,2.08163580019027,2.0813763001933694,1.1984276003204286,1.6983347004279494,0.4999071001075208,
131,0.49741,1.2,1,0.20725,0.35648,0.4228,131,1.91503,-0.144,-0.07461,0.43109,5,1U1D,2.0,True,0.515,13,False,right,0.0,0.0007380000315606594,1.916591899935156,1.9158538999035954,1.0579956001602113,1.5577111998572946,0.49971559969708323,
132,0.49741,0.1,1,0.20725,0.23212,0.80414,132,2.39584,0.312,0.15751,0.65492,5,2U1D,1.0,True,1.458,7,True,left,0.0,0.00037740031257271767,2.3991780998185277,2.398800699505955,1.6656655999831855,2.1655807001516223,0.49991510016843677,
133,0.49741,1.2,1,0.33161,0.28187,0.44767,133,2.51193,0.9,0.44767,0.95337,5,lapse_rate,2.0,False,2.316,0,False,right,0.0,0.00027590012177824974,2.5068486998789012,2.506572799757123,1.7320579998195171,2.2318869000300765,0.49982890021055937,
134,0.49741,1.2,1,0.41451,0.28187,0.71295,134,2.42073,0.032,0.01658,0.51399,5,1D1U,2.0,False,0.286,10,False,right,0.0,0.0002842000685632229,2.4229625002481043,2.422678300179541,1.6394764999859035,2.139596000313759,0.5001195003278553,
135,0.49741,0.1,1,0.25699,0.40622,0.60518,135,2.44559,0.36,0.18238,0.67979,5,2D1U,1.0,True,1.187,9,True,left,0.0,0.00025770021602511406,2.4497430003248155,2.4494853001087904,1.541172900237143,2.0405793003737926,0.4994064001366496,
136,0.49741,1.2,1,0.3399,0.2487,0.58031,136,2.13057,-0.072,-0.03316,0.46425,5,1U1D,1.0,False,0.293,14,True,left,0.0,0.0007402999326586723,2.1417868998833,2.1410465999506414,1.383133600000292,1.8833314999938011,0.500197899993509,
137,0.49741,0.1,1,0.25699,0.27357,0.56373,137,2.14714,0.104,0.04974,0.55544,5,1D1U,1.0,True,0.322,11,True,left,0.0,0.0005172998644411564,2.149155800230801,2.14863850036636,1.3744117002934217,1.8743175002746284,0.49990579998120666,
138,0,0,0,0,0,0,0,0,0,0,0,0,0,0,0,0,0,0,0,0,0,0,0,0,0,0,0
139,0.49741,1.2,1,0.37306,0.23212,0.8456,139,2.60311,0.312,0.15751,0.65492,5,2U1D,1.0,True,1.78,7,True,left,0.0,0.00027590012177824974,2.6060162000358105,2.605740299914032,1.873211100231856,2.372985700145364,0.4997745999135077,
140,0.49741,0.1,2,0.23212,0.44767,0.59689,140,2.45388,0.36,0.18238,0.67979,5,2D1U,2.0,True,0.362,9,True,right,0.0,0.0003996999002993107,2.4573738002218306,2.4569741003215313,0.22348499996587634,0.7240217002108693,0.500536700244993,
141,0.49741,1.2,2,0.43109,0.26528,0.48083,141,2.1057,-0.144,-0.07461,0.43109,5,1U1D,1.0,True,0.365,15,True,left,0.0,0.0005795997567474842,2.0984538001939654,2.097874200437218,0.42322300001978874,0.9224559003487229,0.4992329003289342,
142,0.49741,0.1,2,0.36477,0.33161,0.4228,142,2.26322,0.288,0.14093,0.64663,5,2D1U,2.0,True,0.389,10,True,right,0.0,0.0002828002907335758,2.2734268000349402,2.2731439997442067,0.3564892001450062,0.8569702003151178,0.5004810001701117,
143,0.49741,1.2,2,0.20725,0.22383,0.53886,143,2.08911,0.24,0.11606,0.62176,5,2U1D,1.0,False,0.416,8,True,left,0.0,0.00032190000638365746,2.0907108997926116,2.090388999786228,0.19911279994994402,0.6994734997861087,0.5003606998361647,
144,0.49741,0.1,2,0.29016,0.22383,0.46425,144,1.98964,0.032,0.01658,0.51399,5,1D1U,2.0,True,0.348,12,True,right,0.0,0.0008024000562727451,1.9830374997109175,1.9822350996546447,0.28302079997956753,0.7836185996420681,0.5005977996625006,
145,0.49741,1.2,2,0.4228,0.35648,0.52228,145,2.26322,-0.072,-0.03316,0.46425,5,1U1D,1.0,True,1.208,16,True,left,0.0,0.00026330025866627693,2.257637799717486,2.2573744994588196,0.4162666997872293,0.9155207998119295,0.49925410002470016,
146,0.49741,0.1,2,0.22383,0.37306,0.87047,146,2.6114,0.288,0.14093,0.64663,5,2D1U,2.0,True,0.29,10,True,right,0.0,0.0007283999584615231,2.6238405001349747,2.623112100176513,0.21571690030395985,0.7159723001532257,0.5002553998492658,
147,0.49741,1.2,2,0.26528,0.32332,0.71295,147,2.29637,-0.0,0.0,0.49741,5,1U1D,1.0,False,1.495,16,False,left,0.0,0.0006697997450828552,2.298835299909115,2.298165500164032,0.25698519963771105,0.7578424997627735,0.5008573001250625,
148,0.49741,0.1,2,0.43109,0.3399,0.8456,148,2.76892,0.312,0.15751,0.65492,5,2U1D,2.0,True,0.379,9,True,right,0.0,0.0007688999176025391,2.7730711000040174,2.772302200086415,0.4231159002520144,0.9232184002175927,0.5001024999655783,
149,0.49741,1.2,2,0.28187,0.4228,0.56373,149,2.24664,-0.04,-0.01658,0.48083,5,1D1U,1.0,True,0.323,12,False,left,0.0,0.0006206999532878399,2.2402343996800482,2.2396136997267604,0.2738843997940421,0.7732369997538626,0.4993525999598205,
150,0.49741,0.1,1,0.39793,0.36477,0.51399,150,2.28809,0.032,0.01658,0.51399,5,1D1U,2.0,False,1.299,12,False,right,0.0,0.0007384000346064568,2.290172299835831,2.2894338998012245,1.423153799958527,1.9232561001554132,0.5001023001968861,
151,0.49741,1.2,1,0.40622,0.27357,0.72124,151,2.36269,-0.072,-0.03316,0.46425,5,1U1D,2.0,True,0.263,17,True,right,0.0,0.0012264996767044067,2.3729890999384224,2.371762600261718,1.589794599916786,2.0903648999519646,0.5005703000351787,
152,0.49741,0.1,1,0.24041,0.30674,0.73782,152,2.38756,0.216,0.10777,0.60518,5,2D1U,1.0,True,0.7,10,False,left,0.0,0.0003007003106176853,2.3734418000094593,2.3731410996988416,1.5820287000387907,2.0822735000401735,0.5002448000013828,
153,0.49741,1.2,1,0.44767,0.43938,0.63834,153,2.62798,0.216,0.10777,0.60518,5,2D1U,1.0,True,2.936,10,False,left,0.0,0.0007647997699677944,2.640155100263655,2.6393903004936874,1.6900038002058864,2.1903673000633717,0.5003634998574853,
154,0.49741,0.1,1,0.38135,0.29845,0.49741,154,2.23006,0.104,0.04974,0.55544,5,1D1U,1.0,True,0.686,13,True,left,0.0,0.0004328000359237194,2.240328200161457,2.2398954001255333,1.4321020999923348,1.931649399921298,0.4995472999289632,
155,0.49741,1.2,1,0.38964,0.34819,0.87876,155,2.76892,0.312,0.15751,0.65492,5,2U1D,1.0,True,2.22,9,True,left,0.0,0.0007544998079538345,2.7905103997327387,2.789755899924785,1.9241057001054287,2.424162100069225,0.5000563999637961,
156,0.49741,0.1,1,0.30674,0.38964,0.81243,156,2.52021,0.032,0.01658,0.51399,5,1D1U,2.0,False,1.651,14,True,right,0.0,0.0007795998826622963,2.514974699821323,2.514195099938661,1.631544299889356,2.13223489979282,0.5006905999034643,
157,0.49741,1.2,1,0.31503,0.39793,0.74611,157,2.51192,0.104,0.04974,0.55544,5,1D1U,2.0,False,0.532,15,True,right,0.0,0.0007189000025391579,2.5070639001205564,2.506345000118017,1.6153778000734746,2.1149711003527045,0.4995933002792299,
158,0.49741,0.1,1,0.36477,0.32332,0.53057,158,2.21348,-0.0,0.0,0.49741,5,1U1D,1.0,False,0.307,18,True,left,0.0,0.0002910001203417778,2.2324812998995185,2.2321902997791767,1.3904381999745965,1.8902543000876904,0.49981610011309385,
159,0.49741,1.2,1,0.22383,0.30674,0.69637,159,2.29637,0.144,0.07461,0.57202,5,2D1U,2.0,False,1.039,10,False,right,0.0,0.0006412998773157597,2.297813500277698,2.2971722004003823,1.489956900011748,1.9899213002063334,0.4999644001945853,
160,0.49741,0.1,2,0.43109,0.26528,0.85389,160,2.66943,0.24,0.11606,0.62176,5,2U1D,2.0,True,0.297,10,True,right,0.0,0.000565399881452322,2.6733459001407027,2.6727805002592504,0.4236073000356555,0.9235430001281202,0.4999357000924647,
161,0.49741,1.2,2,0.28187,0.25699,0.5057,161,2.16373,0.24,0.11606,0.62176,5,2U1D,1.0,False,1.448,10,True,left,0.0,0.0006828000769019127,2.1732506998814642,2.1725678998045623,0.27355629997327924,0.7733749998733401,0.4998186999000609,
162,0.49741,0.1,2,0.38135,0.4228,0.44767,162,2.21348,-0.072,-0.03316,0.46425,5,1U1D,2.0,False,0.374,19,True,right,0.0,0.00027089985087513924,2.2214164002798498,2.2211455004289746,0.37141280015930533,0.8720719004049897,0.5006591002456844,
163,0.49741,1.2,2,0.35648,0.4228,0.8456,163,2.72747,0.216,0.10777,0.60518,5,2D1U,2.0,True,0.348,11,True,right,0.0,0.0006621000356972218,2.725098100025207,2.7244359999895096,0.3494247002527118,0.8496425999328494,0.5002178996801376,
164,0.49741,0.1,2,0.28187,0.4228,0.43938,164,2.24664,0.216,0.10777,0.60518,5,2D1U,2.0,True,0.503,11,True,right,0.0,0.0003045997582376003,2.2477147998288274,2.24741020007059,0.27228489983826876,0.7721742000430822,0.4998893002048135,
165,0.49741,1.2,2,0.3399,0.23212,0.56373,165,2.22176,0.176,0.09119,0.5886,5,1D1U,2.0,True,0.44,15,False,right,0.0,0.00025769975036382675,2.2408372000791132,2.2405795003287494,0.33261740021407604,0.8329068999737501,0.5002894997596741,
166,0.49741,0.1,2,0.33161,0.20725,0.77927,166,2.24663,-0.144,-0.07461,0.43109,5,1U1D,2.0,False,0.333,19,False,right,0.0,0.0002676001749932766,2.2477474003098905,2.2474798001348972,0.3227061000652611,0.8229988003149629,0.5002927002497017,
167,0.49741,1.2,2,0.19896,0.43938,0.40622,167,1.93161,-0.216,-0.10777,0.38964,5,1U1D,1.0,True,1.13,19,False,left,0.0,0.0004988000728189945,1.9396532997488976,1.9391544996760786,0.18962599989026785,0.6896144999191165,0.49998850002884865,
168,0.49741,0.1,2,0.36477,0.30674,0.62176,168,2.3627,0.144,0.07461,0.57202,5,2D1U,2.0,True,0.3,12,True,right,0.0,0.00032299989834427834,2.3580862996168435,2.357763299718499,0.35830709990113974,0.8583065997809172,0.49999949987977743,
169,0.49741,1.2,2,0.37306,0.21554,0.65492,169,2.29637,0.104,0.04974,0.55544,5,1D1U,2.0,True,0.288,16,True,right,0.0,0.0002661999315023422,2.3061067000962794,2.305840500164777,0.36391930002719164,0.8643215000629425,0.5004022000357509,
170,0.49741,0.1,1,0.39793,0.30674,0.62176,170,2.47876,0.312,0.15751,0.65492,5,2U1D,1.0,True,2.317,11,True,left,0.0,0.00040689995512366295,2.4737014998681843,2.4732945999130607,1.6738680000416934,2.1738171000033617,0.49994909996166825,
171,0.49741,1.2,1,0.28187,0.44767,0.71295,171,2.51192,0.144,0.07461,0.57202,5,2D1U,2.0,False,0.814,12,True,right,0.0,0.0007448000833392143,2.522056599613279,2.52131179952994,1.572705099824816,2.0723791997879744,0.49967409996315837,
172,0.49741,0.1,1,0.20725,0.26528,0.44767,172,1.9316,0.032,0.01658,0.51399,5,1D1U,1.0,True,1.172,16,False,left,0.0,0.0007024002261459827,1.9403073997236788,1.9396049994975328,1.164911299943924,1.6654417999088764,0.5005304999649525,
173,0.49741,1.2,1,0.24041,0.37306,0.88705,173,2.42902,-0.144,-0.07461,0.43109,5,1U1D,2.0,True,0.265,20,True,right,0.0,0.000277599785476923,2.4413660997524858,2.441088499967009,1.558027799706906,2.0575431999750435,0.49951540026813745,
174,0.49741,0.1,1,0.23212,0.43109,0.52228,174,2.14715,-0.072,-0.03316,0.46425,5,1U1D,1.0,False,0.266,20,False,left,0.0,0.0002794000320136547,2.1489829001948237,2.14870350016281,1.2160265003331006,1.7164110001176596,0.500384499784559,
175,0.49741,1.2,1,0.28187,0.30674,0.72953,175,2.47047,0.312,0.15751,0.65492,5,2U1D,1.0,True,0.416,11,True,left,0.0,0.0007103998214006424,2.482217200100422,2.4815068002790213,1.665682699996978,2.1657964000478387,0.5001137000508606,
176,0.49741,0.1,1,0.43109,0.31503,0.67979,176,2.40415,-0.04,-0.01658,0.48083,5,1D1U,2.0,True,0.33,16,False,right,0.0,0.00037220027297735214,2.4077055999077857,2.4073333996348083,1.5914388997480273,2.0917249997146428,0.5002860999666154,
177,0.49741,1.2,1,0.39793,0.29845,0.45596,177,2.27151,0.24,0.11606,0.62176,5,2U1D,2.0,False,1.852,12,True,right,0.0,0.0007471996359527111,2.272559499833733,2.27181230019778,1.47294420003891,1.9732421999797225,0.5002979999408126,
178,0.49741,0.1,1,0.44767,0.31503,0.51399,178,2.37928,0.216,0.10777,0.60518,5,2D1U,1.0,True,0.308,13,True,left,0.0,0.000669499859213829,2.373503199778497,2.3728336999192834,1.5653739999979734,2.065181899815798,0.49980789981782436,
179,0.49741,1.2,1,0.37306,0.37306,0.74611,179,2.42073,-0.144,-0.07461,0.43109,5,1U1D,2.0,True,0.618,21,True,right,0.0,0.0006796997040510178,2.423584300093353,2.4229046003893018,1.548514500260353,2.0487391999922693,0.5002246997319162,
180,0.49741,0.1,2,0.31503,0.44767,0.73782,180,2.46218,-0.072,-0.03316,0.46425,5,1U1D,2.0,False,0.481,22,True,right,0.0,0.00025529973208904266,2.4665240002796054,2.4662687005475163,0.30802670028060675,0.8083983999677002,0.5003716996870935,
181,0.49741,1.2,2,0.27357,0.38964,0.68808,181,2.50362,0.312,0.15751,0.65492,5,2U1D,2.0,True,0.457,13,True,right,0.0,0.0002963002771139145,2.498408399987966,2.498112099710852,0.2648112000897527,0.7646586000919342,0.49984740000218153,
182,0.49741,0.1,2,0.25699,0.32332,0.5057,182,2.01451,-0.144,-0.07461,0.43109,5,1U1D,2.0,False,1.19,23,True,right,0.0,0.0008537997491657734,2.023674000054598,2.022820200305432,0.24909120006486773,0.7482769000343978,0.4991856999695301,
183,0.49741,1.2,2,0.30674,0.32332,0.63834,183,2.2798,0.032,0.01658,0.51399,5,1D1U,2.0,True,0.441,16,False,right,0.0,0.0007296004332602024,2.290446599945426,2.289716999512166,0.2985268998891115,0.7981632999144495,0.49963640002533793,
184,0.49741,0.1,2,0.26528,0.27357,0.69637,184,2.33781,0.216,0.10777,0.60518,5,2D1U,2.0,True,0.389,13,True,right,0.0,0.0007350998930633068,2.3488976997323334,2.34816259983927,0.2570833000354469,0.7569689000956714,0.49988560006022453,
185,0.49741,1.2,2,0.35648,0.39793,0.71295,185,2.53679,0.144,0.07461,0.57202,5,2D1U,1.0,False,0.378,14,True,left,0.0,0.00026799971237778664,2.5405995002947748,2.540331500582397,0.34962330013513565,0.8488859999924898,0.49926269985735416,
186,0.49741,0.1,2,0.28187,0.38964,0.55544,186,2.37928,0.312,0.15751,0.65492,5,2U1D,2.0,True,0.264,13,True,right,0.0,0.0005666003562510014,2.390964100137353,2.390397499781102,0.2743243002332747,0.7742249998264015,0.4999006995931268,
187,0.49741,1.2,2,0.39793,0.2487,0.46425,187,2.08912,-0.04,-0.01658,0.48083,5,1D1U,2.0,False,0.787,16,False,right,0.0,0.0007337001152336597,2.090964199975133,2.0902304998598993,0.3904770999215543,0.8906457000412047,0.5001686001196504,
188,0.49741,0.1,2,0.32332,0.20725,0.81243,188,2.44559,0.216,0.10777,0.60518,5,2D1U,2.0,True,0.703,15,True,right,0.0,0.000582600012421608,2.455675099976361,2.455092499963939,0.3142532999627292,0.8141520000062883,0.4998987000435591,
189,0.49741,1.2,2,0.43938,0.36477,0.65492,189,2.56166,0.216,0.10777,0.60518,5,2D1U,1.0,False,0.45,15,True,left,0.0,0.0008082999847829342,2.5572932003997266,2.5564849004149437,0.4319209000095725,0.9324972000904381,0.5005763000808656,
190,0.49741,0.1,1,0.24041,0.43938,0.85389,190,2.42073,-0.216,-0.10777,0.38964,5,1U1D,2.0,True,0.309,23,False,right,0.0,0.0006836000829935074,2.413570299744606,2.4128866996616125,1.480744699947536,1.980440099723637,0.4996953997761011,
191,0.49741,1.2,1,0.4228,0.38964,0.61347,191,2.54508,0.24,0.11606,0.62176,5,2U1D,2.0,False,0.78,14,True,right,0.0,0.0007283999584615231,2.5469911000691354,2.546262700110674,1.655822199769318,2.1555019998922944,0.4996798001229763,
192,0.49741,0.1,1,0.38964,0.20725,0.87876,192,2.42073,-0.112,-0.05803,0.44767,5,1D1U,1.0,False,0.34,17,True,left,0.0,0.0002973000518977642,2.4214558000676334,2.4211585000157356,1.7130387998186052,2.213049199897796,0.5000104000791907,
193,0.49741,1.2,1,0.2487,0.29845,0.76269,193,2.45388,0.288,0.14093,0.64663,5,2D1U,2.0,False,0.694,15,False,right,0.0,0.0002850000746548176,2.463308099657297,2.4630230995826423,1.6546053998172283,2.1548488000407815,0.5002434002235532,
194,0.49741,0.1,1,0.39793,0.29845,0.71295,194,2.58653,0.36,0.18238,0.67979,5,2D1U,1.0,True,0.303,15,False,left,0.0,0.0002715000882744789,2.592099499888718,2.5918279998004436,1.7911403998732567,2.2913490999490023,0.5002087000757456,
195,0.49741,1.2,1,0.37306,0.38135,0.54715,195,2.23006,-0.144,-0.07461,0.43109,5,1U1D,2.0,True,0.393,24,True,right,0.0,0.0006917999126017094,2.2408601003699005,2.2401683004572988,1.3499636999331415,1.8491307003423572,0.4991670004092157,
196,0.49741,0.1,1,0.43109,0.2487,0.53886,196,2.39585,0.36,0.18238,0.67979,5,2D1U,1.0,True,1.116,15,False,left,0.0,0.0005617998540401459,2.4138953001238406,2.4133335002698004,1.6472016996704042,2.147356799803674,0.50015510013327,
197,0.49741,1.2,1,0.22383,0.22383,0.8456,197,2.25492,-0.072,-0.03316,0.46425,5,1U1D,2.0,True,0.391,24,False,right,0.0,0.0002944003790616989,2.265440700110048,2.2651462997309864,1.5323247001506388,2.032092100009322,0.49976739985868335,
198,0.49741,0.1,1,0.20725,0.33161,0.81243,198,2.34611,-0.0,0.0,0.49741,5,1U1D,2.0,False,1.568,24,False,right,0.0,0.0005219997838139534,2.364816499873996,2.364294500090182,1.514835299924016,2.0148930000141263,0.5000577000901103,
199,0.49741,1.2,1,0.29016,0.26528,0.52228,199,1.98135,-0.184,-0.09119,0.40622,5,1D1U,1.0,False,0.715,17,False,left,0.0,0.0003351997584104538,1.9820066997781396,1.9816715000197291,1.2153400001116097,1.7154676001518965,0.5001276000402868,
200,0.49741,0.1,2,0.28187,0.43109,0.8456,200,2.71089,0.312,0.15751,0.65492,5,2U1D,2.0,True,0.406,15,True,right,0.0,0.00027740001678466797,2.714023800101131,2.7137464000843465,0.27267450001090765,0.7717388002201915,0.49906430020928383,
201,0.49741,1.2,2,0.3399,0.22383,0.53886,201,2.06425,-0.072,-0.03316,0.46425,5,1U1D,1.0,True,0.554,25,True,left,0.0,0.0007227002643048763,2.0742514999583364,2.0735287996940315,0.33229329995810986,0.8318058997392654,0.4995125997811556,
202,0.49741,0.1,2,0.28187,0.29845,0.39793,202,2.13058,0.312,0.15751,0.65492,5,2U1D,2.0,True,0.227,15,True,right,0.0,0.0005970001220703125,2.148228300269693,2.147631300147623,0.27305010007694364,0.773021100088954,0.49997100001201034,
203,0.49741,1.2,2,0.34819,0.23212,0.45596,203,2.15544,0.24,0.11606,0.62176,5,2U1D,2.0,True,1.333,16,True,right,0.0,0.0002519995905458927,2.1648450000211596,2.1645930004306138,0.339892300311476,0.8405911000445485,0.5006987997330725,
204,0.49741,0.1,2,0.43109,0.4228,0.76269,204,2.48705,-0.256,-0.12435,0.37306,5,1D1U,2.0,False,0.375,17,False,right,0.0,0.0007973001338541508,2.4965786999091506,2.4957813997752964,0.4214323000051081,0.9216709001921117,0.5002386001870036,
205,0.49741,1.2,2,0.4228,0.29845,0.59689,205,2.46218,0.288,0.14093,0.64663,5,2D1U,2.0,True,0.363,16,True,right,0.0,0.0007231002673506737,2.4732034001499414,2.4724802998825908,0.4144544000737369,0.9150518998503685,0.5005974997766316,
206,0.49741,0.1,2,0.25699,0.20725,0.83731,206,2.44559,0.288,0.14093,0.64663,5,2D1U,2.0,True,0.433,16,True,right,0.0,0.0005240999162197113,2.440487400162965,2.4399633002467453,0.24950109981000423,0.7489126999862492,0.499411600176245,
207,0.49741,1.2,2,0.28187,0.36477,0.64663,207,2.41244,0.24,0.11606,0.62176,5,2U1D,2.0,True,0.324,16,True,right,0.0,0.000727399718016386,2.415438299998641,2.4147109002806246,0.2736555999144912,0.7743807998485863,0.5007251999340951,
208,0.49741,0.1,2,0.29016,0.40622,0.85389,208,2.38758,-0.328,-0.1658,0.3399,5,1D1U,2.0,False,2.865,17,False,right,0.0,0.0007934998720884323,2.3886398999020457,2.3878464000299573,0.2802301999181509,0.7807978000491858,0.5005676001310349,
209,0.49741,1.2,2,0.20725,0.39793,0.5057,209,2.1057,-0.0,0.0,0.49741,5,1U1D,1.0,False,0.842,26,True,left,0.0,0.0002949000336229801,2.098978899884969,2.098683999851346,0.19987480016425252,0.6997544001787901,0.4998796000145376,
210,0.49741,0.1,1,0.27357,0.36477,0.73782,210,2.33782,-0.072,-0.03316,0.46425,5,1U1D,2.0,True,1.113,27,True,right,0.0,0.0007656998932361603,2.3487956998869777,2.3480299999937415,1.4731026999652386,1.973122799769044,0.5000200998038054,
211,0.49741,1.2,1,0.43109,0.3399,0.86218,211,2.42903,-0.4,-0.19896,0.29845,5,1D1U,2.0,True,0.369,17,False,right,0.0,0.0002994001843035221,2.4326637000776827,2.432364299893379,1.5908699999563396,2.0909258001483977,0.5000558001920581,
212,0.49741,0.1,1,0.27357,0.29845,0.46425,212,2.11399,0.168,0.0829,0.58031,5,2U1D,1.0,True,0.226,16,False,left,0.0,0.0003542001359164715,2.124739999882877,2.1243857997469604,1.3163234000094235,1.816189699806273,0.4998662997968495,
213,0.49741,1.2,1,0.32332,0.43109,0.72124,213,2.47047,-0.0,0.0,0.49741,5,1U1D,2.0,False,0.467,28,True,right,0.0,0.0006124996580183506,2.4664583997800946,2.4658459001220763,1.541668999940157,2.0412249001674354,0.49955590022727847,
214,0.49741,0.1,1,0.26528,0.27357,0.76269,214,2.2632,-0.072,-0.03316,0.46425,5,1U1D,1.0,False,1.175,29,True,left,0.0,0.0006538997404277325,2.26517659984529,2.2645227001048625,1.4908531000837684,1.9904991001822054,0.49964600009843707,
215,0.49741,1.2,1,0.34819,0.2487,0.78756,215,2.48704,0.216,0.10777,0.60518,5,2D1U,2.0,False,1.223,16,False,right,0.0,0.0004743998870253563,2.49003789993003,2.4895635000430048,1.7401250996626914,2.240147899836302,0.5000228001736104,
216,0.49741,0.1,1,0.20725,0.36477,0.73782,216,2.14715,-0.328,-0.1658,0.3399,5,1D1U,2.0,True,1.854,18,True,right,0.0,0.0003049001097679138,2.15532479993999,2.155019899830222,1.2801443999633193,1.7802665000781417,0.5001221001148224,
217,0.49741,1.2,1,0.2487,0.34819,0.66321,217,2.33782,0.168,0.0829,0.58031,5,2U1D,2.0,False,0.345,16,False,right,0.0,0.000767699908465147,2.3479095003567636,2.3471418004482985,1.4889087001793087,1.9891822002828121,0.5002735001035035,
218,0.49741,0.1,1,0.19896,0.35648,0.48083,218,2.18031,0.288,0.14093,0.64663,5,2D1U,1.0,True,0.699,17,True,left,0.0,0.0005804998800158501,2.191188999917358,2.1906085000373423,1.3241420001722872,1.8237808002159,0.4996388000436127,
219,0.49741,1.2,1,0.41451,0.34819,0.54715,219,2.23835,-0.144,-0.07461,0.43109,5,1U1D,2.0,True,0.316,29,False,right,0.0,0.00026739994063973427,2.232626299839467,2.232358899898827,1.3906756001524627,1.8905620002187788,0.49988640006631613,
220,0.49741,0.1,2,0.33161,0.2487,0.86218,220,2.40415,-0.072,-0.03316,0.46425,5,1U1D,2.0,False,0.412,30,True,right,0.0,0.0007464997470378876,2.40764439990744,2.406897900160402,0.32369419978931546,0.8228584001772106,0.4991642003878951,
221,0.49741,1.2,2,0.2487,0.39793,0.64663,221,2.41243,0.24,0.11606,0.62176,5,2U1D,2.0,True,0.591,17,True,right,0.0,0.0003392002545297146,2.4159093000926077,2.415570099838078,0.2407442000694573,0.7410494000650942,0.5003051999956369,
222,0.49741,0.1,2,0.31503,0.26528,0.82901,222,2.27979,-0.256,-0.12435,0.37306,5,1D1U,2.0,False,0.807,18,False,right,0.0,0.0007523000240325928,2.2822822998277843,2.2815299998037517,0.30788319977000356,0.806835999712348,0.4989527999423444,
223,0.49741,1.2,2,0.43109,0.28187,0.61347,223,2.16374,-0.328,-0.1658,0.3399,5,1D1U,1.0,True,0.5,19,True,left,0.0,0.0008180001750588417,2.1548836999572814,2.1540656997822225,0.430075999815017,0.9300426999107003,0.49996670009568334,
224,0.49741,0.1,2,0.40622,0.25699,0.46425,224,2.2715,0.288,0.14093,0.64663,5,2D1U,2.0,True,0.424,17,True,right,0.0,0.0007294998504221439,2.274372300133109,2.273642800282687,0.3994701001793146,0.8992679002694786,0.49979780009016395,
225,0.49741,1.2,2,0.2487,0.40622,0.56373,225,2.14715,-0.144,-0.07461,0.43109,5,1U1D,2.0,False,0.831,31,True,right,0.0,0.0005042999982833862,2.140611100010574,2.1401068000122905,0.2402445999905467,0.7403714000247419,0.5001268000341952,
226,0.49741,0.1,2,0.32332,0.43938,0.53886,226,2.17203,-0.256,-0.12435,0.37306,5,1D1U,1.0,True,1.426,20,True,left,0.0,0.0007180999964475632,2.182415099814534,2.1816969998180866,0.31523669976741076,0.8149592000991106,0.49972250033169985,
227,0.49741,1.2,2,0.43938,0.23212,0.65492,227,2.42901,0.216,0.10777,0.60518,5,2D1U,2.0,True,0.442,18,True,right,0.0,0.0006638001650571823,2.43276060000062,2.4320967998355627,0.43386289989575744,0.9338173000141978,0.4999544001184404,
228,0.49741,0.1,2,0.27357,0.31503,0.88705,228,2.57824,0.216,0.10777,0.60518,5,2D1U,2.0,True,0.313,18,True,right,0.0,0.000542100053280592,2.58171910000965,2.5811769999563694,0.26597459986805916,0.7656502998434007,0.49967569997534156,
229,0.49741,1.2,2,0.24041,0.34819,0.66321,229,2.37098,0.24,0.11606,0.62176,5,2U1D,2.0,True,0.255,17,True,right,0.0,0.0006178002804517746,2.3810819000937045,2.3804640998132527,0.23145110020413995,0.7314818003214896,0.5000307001173496,
230,0.49741,0.1,1,0.33161,0.38964,0.63834,230,2.24664,-0.216,-0.10777,0.38964,5,1U1D,2.0,True,0.306,31,False,right,0.0,0.0005602999590337276,2.247734499629587,2.247174199670553,1.3565519996918738,1.8559647998772562,0.49941280018538237,
231,0.49741,1.2,1,0.4228,0.26528,0.53886,231,2.13057,-0.184,-0.09119,0.40622,5,1D1U,2.0,True,1.442,20,False,right,0.0,0.0006276997737586498,2.124137599952519,2.1235099001787603,1.3663496999070048,1.8662752998061478,0.499925599899143,
232,0.49741,0.1,1,0.20725,0.35648,0.64663,232,2.28808,0.168,0.0829,0.58031,5,2U1D,1.0,True,1.374,18,True,left,0.0,0.000286600086838007,2.281251600012183,2.280964999925345,1.431319400202483,1.9312968999147415,0.4999774997122586,
233,0.49741,1.2,1,0.39793,0.35648,0.58031,233,2.40415,0.144,0.07461,0.57202,5,2D1U,2.0,False,0.879,18,False,right,0.0,0.0002530999481678009,2.414727299939841,2.4144741999916732,1.5480623999610543,2.0480352002196014,0.49997280025854707,
234,0.49741,0.1,1,0.43938,0.29016,0.43938,234,2.09742,-0.144,-0.07461,0.43109,5,1U1D,2.0,True,0.381,32,True,right,0.0,0.0006328998133540154,2.098980499897152,2.098347600083798,1.307214600034058,1.8069348996505141,0.49972029961645603,
235,0.49741,1.2,1,0.38964,0.41451,0.60518,235,2.37099,-0.072,-0.03316,0.46425,5,1U1D,1.0,False,0.981,32,False,left,0.0,0.0007111998274922371,2.375045799650252,2.3743345998227596,1.4581471998244524,1.957933200057596,0.49978600023314357,
236,0.49741,0.1,1,0.32332,0.36477,0.80414,236,2.43731,-0.112,-0.05803,0.44767,5,1D1U,2.0,True,0.748,20,False,right,0.0,0.0003312998451292515,2.4646971002221107,2.4643658003769815,1.5724364002235234,2.0729418001137674,0.500505399890244,
237,0.49741,1.2,1,0.35648,0.20725,0.5057,237,2.14715,0.168,0.0829,0.58031,5,2U1D,1.0,True,0.3,18,True,left,0.0,0.0007735001854598522,2.131677200086415,2.130903699900955,1.4398296996951103,1.9398157997056842,0.49998610001057386,
238,0.49741,0.1,1,0.33161,0.40622,0.54715,238,2.21348,-0.144,-0.07461,0.43109,5,1U1D,1.0,False,0.783,33,True,left,0.0,0.00026880018413066864,2.2068833000957966,2.206614499911666,1.3067850000225008,1.8068968998268247,0.5001118998043239,
239,0.49741,1.2,1,0.43938,0.21554,0.45596,239,2.21347,0.216,0.10777,0.60518,5,2D1U,2.0,False,0.202,19,True,right,0.0,0.001086600124835968,2.2244521998800337,2.2233655997551978,1.4999339999631047,1.9997514998540282,0.4998174998909235,
240,0.49741,0.1,2,0.30674,0.3399,0.76269,240,2.55337,0.288,0.14093,0.64663,5,2D1U,2.0,True,0.402,19,False,right,0.0,0.0005725999362766743,2.5579912001267076,2.557418600190431,0.29968659998849034,0.7988840001635253,0.499197400175035,
241,0.49741,1.2,2,0.43109,0.24041,0.48912,241,2.04767,-0.216,-0.10777,0.38964,5,1U1D,1.0,True,0.374,33,False,left,0.0,0.0007604002021253109,2.050586400087923,2.0498259998857975,0.42472050013020635,0.9254652000963688,0.5007446999661624,
242,0.49741,0.1,2,0.20725,0.21554,0.67979,242,2.08082,-0.04,-0.01658,0.48083,5,1D1U,2.0,False,0.487,20,False,right,0.0,0.0007695001550018787,2.0821814998053014,2.0814119996502995,0.1987205999903381,0.6985209998674691,0.499800399877131,
243,0.49741,1.2,2,0.22383,0.22383,0.8456,243,2.33782,0.096,0.04974,0.54715,5,2U1D,2.0,True,1.277,18,False,right,0.0,0.00026410026475787163,2.3490148996934295,2.3487507994286716,0.2150950999930501,0.7153948000632226,0.5002997000701725,
244,0.49741,0.1,2,0.34819,0.3399,0.7544,244,2.58653,0.288,0.14093,0.64663,5,2D1U,2.0,True,0.497,19,False,right,0.0,0.0004730997607111931,2.598326100036502,2.5978530002757907,0.34003020031377673,0.8402727004140615,0.5002425001002848,
245,0.49741,1.2,2,0.20725,0.39793,0.57202,245,2.27979,0.216,0.10777,0.60518,5,2D1U,1.0,False,0.64,20,True,left,0.0,0.0002704998478293419,2.2736873999238014,2.273416900075972,0.19913069996982813,0.6984287998639047,0.4992980998940766,
246,0.49741,0.1,2,0.44767,0.31503,0.83731,246,2.64457,0.096,0.04974,0.54715,5,2U1D,2.0,True,0.348,18,False,right,0.0,0.000260000117123127,2.6562030003406107,2.6559430002234876,0.439319200348109,0.9396752999164164,0.5003560995683074,
247,0.49741,1.2,2,0.22383,0.29016,0.56373,247,2.0228,-0.112,-0.05803,0.44767,5,1D1U,1.0,True,1.659,21,True,left,0.0,0.0007434999570250511,2.024021899793297,2.023278399836272,0.21552120009437203,0.7150488002225757,0.49952760012820363,
248,0.49741,0.1,2,0.41451,0.35648,0.56373,248,2.31296,-0.04,-0.01658,0.48083,5,1D1U,2.0,False,0.362,22,True,right,0.0,0.0007346002385020256,2.3151536998338997,2.3144190995953977,0.40684140007942915,0.9065741999074817,0.4997327998280525,
249,0.49741,1.2,2,0.43938,0.40622,0.5057,249,2.2798,-0.144,-0.07461,0.43109,5,1U1D,2.0,False,0.666,34,True,right,0.0,0.0002856999635696411,2.2830761997029185,2.282790499739349,0.43233179999515414,0.9319464000873268,0.4996146000921726,
250,0.49741,0.1,1,0.38964,0.38135,0.63834,250,2.55337,0.288,0.14093,0.64663,5,2D1U,1.0,True,0.99,21,True,left,0.0,0.00027899956330657005,2.556842700112611,2.5565637005493045,1.6741136000491679,2.17397480038926,0.4998612003400922,
251,0.49741,1.2,1,0.21554,0.26528,0.47254,251,1.84041,-0.216,-0.10777,0.38964,5,1U1D,2.0,True,0.275,35,True,right,0.0,0.0007409998215734959,1.849367099814117,1.8486260999925435,1.0745867998339236,1.5737685998901725,0.4991818000562489,
252,0.49741,0.1,1,0.26528,0.29845,0.88705,252,2.46218,0.024,0.00829,0.51399,5,2U1D,2.0,False,1.243,18,False,right,0.0,0.00025539984926581383,2.4667351003736258,2.46647970052436,1.666659400332719,2.1667883000336587,0.5001288997009397,
253,0.49741,1.2,1,0.33161,0.31503,0.57202,253,2.16374,-0.112,-0.05803,0.44767,5,1D1U,2.0,True,1.323,23,True,right,0.0,0.0008268002420663834,2.1654831003397703,2.164656300097704,1.3488613003864884,1.8489087000489235,0.500047399662435,
254,0.49741,0.1,1,0.41451,0.43109,0.62176,254,2.4456,-0.04,-0.01658,0.48083,5,1D1U,2.0,True,0.446,24,True,right,0.0,0.0009624999947845936,2.449404099956155,2.4484415999613702,1.5159450001083314,2.016095200087875,0.5001501999795437,
255,0.49741,1.2,1,0.22383,0.33161,0.54715,255,2.24663,0.288,0.14093,0.64663,5,2D1U,1.0,True,0.503,21,True,left,0.0,0.0007252003997564316,2.2479795999825,2.2472543995827436,1.4149063001386821,1.9145459001883864,0.4996396000497043,
256,0.49741,0.1,1,0.23212,0.22383,0.52228,256,2.08082,0.216,0.10777,0.60518,5,2D1U,1.0,True,0.376,22,True,left,0.0,0.0007289000786840916,2.081885900348425,2.081157000269741,1.3572762999683619,1.856856900267303,0.49958060029894114,
257,0.49741,1.2,1,0.43109,0.41451,0.52228,257,2.29638,-0.144,-0.07461,0.43109,5,1U1D,2.0,True,0.938,36,True,right,0.0,0.0002628001384437084,2.2996215000748634,2.2993586999364197,1.3828493999317288,1.882789900060743,0.49994050012901425,
258,0.49741,0.1,1,0.34819,0.28187,0.8456,258,2.43732,-0.072,-0.03316,0.46425,5,1U1D,2.0,True,0.672,36,False,right,0.0,0.0012290002778172493,2.4659168999642134,2.464687899686396,1.6580026000738144,2.157871900126338,0.4998693000525236,
259,0.49741,1.2,1,0.43938,0.40622,0.52228,259,2.41244,0.096,0.04974,0.54715,5,2U1D,1.0,True,1.49,19,True,left,0.0,0.0002727997489273548,2.4239318002946675,2.42365900054574,1.5073587000370026,2.006875700317323,0.49951700028032064,
260,0.49741,0.1,2,0.20725,0.35648,0.72953,260,2.30466,0.032,0.01658,0.51399,5,1D1U,2.0,True,0.443,24,False,right,0.0,0.00030530011281371117,2.3147833002731204,2.3144780001603067,0.19899590034037828,0.6983094001188874,0.49931349977850914,
261,0.49741,1.2,2,0.26528,0.43938,0.48912,261,2.1886,-0.0,0.0,0.49741,5,1U1D,1.0,False,0.47,36,False,left,0.0,0.0006733997724950314,2.1887477999553084,2.1880744001828134,0.2554520000703633,0.7556865001097322,0.5002345000393689,
262,0.49741,0.1,2,0.22383,0.43109,0.43938,262,2.13886,0.096,0.04974,0.54715,5,2U1D,2.0,True,0.112,19,True,right,0.0,0.000753600150346756,2.149839200079441,2.1490855999290943,0.21623519994318485,0.7163688000291586,0.5001336000859737,
263,0.49741,1.2,2,0.25699,0.38135,0.77927,263,2.39585,-0.04,-0.01658,0.48083,5,1D1U,1.0,True,0.503,24,False,left,0.0,0.00036189984530210495,2.407896799966693,2.407534900121391,0.2495917002670467,0.7491971999406815,0.49960549967363477,
264,0.49741,0.1,2,0.26528,0.19896,0.72953,264,2.20517,0.032,0.01658,0.51399,5,1D1U,2.0,True,0.428,24,False,right,0.0,0.0007345997728407383,2.2160193999297917,2.215284800156951,0.2575425999239087,0.7570545999333262,0.49951200000941753,
265,0.49741,1.2,2,0.35648,0.37306,0.61347,265,2.4456,0.216,0.10777,0.60518,5,2D1U,2.0,True,0.434,22,True,right,0.0,0.0002641999162733555,2.44046049984172,2.4401962999254465,0.3492642999626696,0.848384200129658,0.4991199001669884,
266,0.49741,0.1,2,0.39793,0.34819,0.67979,266,2.43731,0.024,0.00829,0.51399,5,2U1D,2.0,True,0.366,20,True,right,0.0,0.0004344000481069088,2.4567907000891864,2.4563563000410795,0.3903550999239087,0.8903605001978576,0.5000054002739489,
267,0.49741,1.2,2,0.37306,0.41451,0.63005,267,2.42902,0.024,0.00829,0.51399,5,2U1D,2.0,True,0.328,20,True,right,0.0,0.0007241000421345234,2.440130400005728,2.4394062999635935,0.36479429993778467,0.8649029000662267,0.500108600128442,
268,0.49741,0.1,2,0.32332,0.29845,0.81243,268,2.39586,-0.072,-0.03316,0.46425,5,1U1D,2.0,False,0.113,37,True,right,0.0,0.00026609981432557106,2.4074814999476075,2.407215400133282,0.3157871998846531,0.815519199706614,0.4997319998219609,
269,0.49741,1.2,2,0.37306,0.39793,0.41451,269,2.16374,-0.04,-0.01658,0.48083,5,1D1U,1.0,True,0.575,24,False,left,0.0,0.0007396000437438488,2.157895799726248,2.157156199682504,0.3658954999409616,0.8662477000616491,0.5003522001206875,
270,0.49741,0.1,1,0.44767,0.26528,0.61347,270,2.39585,0.144,0.07461,0.57202,5,2D1U,2.0,False,0.274,22,False,right,0.0,0.0006595002487301826,2.4067639000713825,2.4061043998226523,1.6309817000292242,2.1310606002807617,0.5000789002515376,
271,0.49741,1.2,1,0.38964,0.41451,0.77927,271,2.55337,-0.048,-0.02487,0.47254,5,2U1D,2.0,True,0.296,20,False,right,0.0,0.0002927999012172222,2.557203299831599,2.5569104999303818,1.640715700108558,2.1405823999084532,0.4998666997998953,
272,0.49741,0.1,1,0.24041,0.38964,0.51399,272,2.15544,0.032,0.01658,0.51399,5,1D1U,1.0,True,0.312,24,False,left,0.0,0.0007398002780973911,2.1733524999581277,2.1726126996800303,1.2648285999894142,1.7651403998024762,0.500311799813062,
273,0.49741,1.2,1,0.41451,0.36477,0.86218,273,2.74405,0.216,0.10777,0.60518,5,2D1U,2.0,False,0.655,23,True,right,0.0,0.000741299707442522,2.7657551001757383,2.765013800468296,1.8827701001428068,2.3819875000044703,0.4992173998616636,
274,0.49741,0.1,1,0.21554,0.31503,0.40622,274,1.86529,-0.144,-0.07461,0.43109,5,1U1D,1.0,False,0.303,37,False,left,0.0,0.0006101001054048538,1.8813580996356905,1.8807479995302856,1.0479460000060499,1.5476447995752096,0.49969879956915975,
275,0.49741,1.2,1,0.27357,0.31503,0.56373,275,2.12228,-0.048,-0.02487,0.47254,5,2U1D,2.0,True,0.885,20,False,right,0.0,0.0006954004056751728,2.124232499860227,2.123537099454552,1.30754639999941,1.8079816000536084,0.5004352000541985,
276,0.49741,0.1,1,0.27357,0.38135,0.70466,276,2.37098,0.024,0.00829,0.51399,5,2U1D,2.0,False,0.367,20,False,right,0.0,0.0007776999846100807,2.3643885999917984,2.3636109000071883,1.489768700208515,1.9891202002763748,0.4993515000678599,
277,0.49741,1.2,1,0.38135,0.43109,0.81243,277,2.66943,0.096,0.04974,0.54715,5,2U1D,1.0,True,0.348,21,True,left,0.0,0.000613899901509285,2.690488399937749,2.6898745000362396,1.7399063999764621,2.240096400026232,0.5001900000497699,
278,0.49741,0.1,1,0.38964,0.23212,0.72124,278,2.23005,-0.216,-0.10777,0.38964,5,1U1D,2.0,True,0.282,37,False,right,0.0,0.0002864999696612358,2.232162300031632,2.231875800061971,1.4987631998956203,1.9987019002437592,0.4999387003481388,
279,0.49741,1.2,1,0.3399,0.36477,0.87047,279,2.71918,0.288,0.14093,0.64663,5,2D1U,2.0,False,0.241,23,False,right,0.0,0.0002746996469795704,2.7082485002465546,2.707973800599575,1.85802139993757,2.357871300075203,0.4998499001376331,
280,0.49741,0.1,2,0.37306,0.38135,0.87047,280,2.60312,-0.04,-0.01658,0.48083,5,1D1U,2.0,False,0.367,24,False,right,0.0,0.0005973000079393387,2.600013899616897,2.5994165996089578,0.36647279979661107,0.8672553999349475,0.5007826001383364,
281,0.49741,1.2,2,0.25699,0.34819,0.44767,281,2.23005,0.36,0.18238,0.67979,5,2D1U,1.0,False,0.336,23,False,left,0.0,0.0006025996990501881,2.2397977001965046,2.2391951004974544,0.24816610012203455,0.7478106999769807,0.49964459985494614,
282,0.49741,0.1,2,0.3399,0.25699,0.86218,282,2.38757,-0.144,-0.07461,0.43109,5,1U1D,2.0,False,0.541,38,True,right,0.0,0.0002760002389550209,2.3824457000009716,2.3821696997620165,0.3320611002855003,0.8320226003415883,0.49996150005608797,
283,0.49741,1.2,2,0.22383,0.27357,0.63005,283,2.07253,-0.112,-0.05803,0.44767,5,1D1U,1.0,True,0.334,25,True,left,0.0,0.00029170000925660133,2.0649585998617113,2.0646668998524547,0.21529679978266358,0.7153936000540853,0.5000968002714217,
284,0.49741,0.1,2,0.25699,0.25699,0.49741,284,1.98963,-0.04,-0.01658,0.48083,5,1D1U,1.0,True,0.656,26,True,left,0.0,0.0002811998128890991,1.9976544003002346,1.9973732004873455,0.24794139992445707,0.7484794999472797,0.5005381000228226,
285,0.49741,1.2,2,0.24041,0.27357,0.53057,285,2.08911,0.096,0.04974,0.54715,5,2U1D,2.0,True,0.384,21,True,right,0.0,0.00031139981001615524,2.081356800161302,2.081045400351286,0.23156720027327538,0.7307085003703833,0.4991413000971079,
286,0.49741,0.1,2,0.38135,0.20725,0.57202,286,2.17202,0.024,0.00829,0.51399,5,2U1D,2.0,True,0.321,22,True,right,0.0,0.0007360000163316727,2.1832587998360395,2.182522799819708,0.37440770026296377,0.8749345000833273,0.5005267998203635,
287,0.49741,1.2,2,0.38964,0.31503,0.62176,287,2.53679,0.432,0.21554,0.71295,5,2D1U,2.0,True,0.875,23,False,right,0.0,0.0004980000667273998,2.5411092001013458,2.5406112000346184,0.3825624999590218,0.8827033000998199,0.5001408001407981,
288,0.49741,0.1,2,0.32332,0.31503,0.43109,288,2.08084,0.032,0.01658,0.51399,5,1D1U,2.0,True,0.483,26,False,right,0.0,0.000664799939841032,2.090238200034946,2.089573400095105,0.3149377000518143,0.8155733002349734,0.5006356001831591,
289,0.49741,1.2,2,0.26528,0.25699,0.82072,289,2.32123,-0.04,-0.01658,0.48083,5,1D1U,1.0,True,0.367,26,False,left,0.0,0.0002792002633213997,2.3167531001381576,2.316473899874836,0.2575913998298347,0.7576055000536144,0.5000141002237797,
290,0.49741,0.1,1,0.43109,0.36477,0.43109,290,2.114,-0.216,-0.10777,0.38964,5,1U1D,2.0,True,0.332,39,True,right,0.0,0.0007763998582959175,2.1227277000434697,2.1219513001851737,1.2481493996456265,1.748396699782461,0.5002473001368344,
291,0.49741,1.2,1,0.27357,0.20725,0.60518,291,2.0974,0.032,0.01658,0.51399,5,1D1U,1.0,True,0.501,26,False,left,0.0,0.00032169977203011513,2.1153619000688195,2.1150402002967894,1.3903331998735666,1.890391900204122,0.5000587003305554,
292,0.49741,0.1,1,0.41451,0.30674,0.80414,292,2.50363,-0.04,-0.01658,0.48083,5,1D1U,2.0,True,0.37,26,False,right,0.0,0.0005083000287413597,2.5079109999351203,2.507402699906379,1.6985310995951295,2.199065299704671,0.5005342001095414,
293,0.49741,1.2,1,0.3399,0.27357,0.73782,293,2.27979,-0.144,-0.07461,0.43109,5,1U1D,2.0,True,0.798,40,True,right,0.0,0.0002842000685632229,2.2897177999839187,2.2894335999153554,1.5072331000119448,2.0061445999890566,0.4989114999771118,
294,0.49741,0.1,1,0.31503,0.23212,0.63834,294,2.39585,0.432,0.21554,0.71295,5,2D1U,2.0,False,0.421,23,False,right,0.0,0.0007504001259803772,2.4142109998501837,2.4134605997242033,1.6639912999235094,2.164612699765712,0.5006213998422027,
295,0.49741,1.2,1,0.26528,0.43109,0.86218,295,2.56995,0.024,0.00829,0.51399,5,2U1D,2.0,False,0.443,22,True,right,0.0,0.000784700270742178,2.5726838000118732,2.571899099741131,1.6399586000479758,2.140063799917698,0.5001051998697221,
296,0.49741,0.1,1,0.26528,0.21554,0.87876,296,2.61139,0.504,0.2487,0.7544,5,2D1U,1.0,True,0.395,23,False,left,0.0,0.0005616997368633747,2.6238929997198284,2.623331299982965,1.8993925997056067,2.3991419998928905,0.49974940018728375,
297,0.49741,1.2,1,0.25699,0.27357,0.82901,297,2.37097,0.032,0.01658,0.51399,5,1D1U,2.0,False,0.671,26,False,right,0.0,0.001026500016450882,2.3812979999929667,2.3802714999765158,1.5985611998476088,2.0990682002156973,0.5005070003680885,
298,0.49741,0.1,1,0.36477,0.22383,0.48083,298,2.11399,0.096,0.04974,0.54715,5,2U1D,1.0,True,1.142,23,True,left,0.0,0.0002657999284565449,2.114055600017309,2.1137898000888526,1.388519000262022,1.8893380002118647,0.5008189999498427,
299,0.49741,1.2,1,0.33161,0.25699,0.88705,299,2.43731,-0.072,-0.03316,0.46425,5,1U1D,1.0,False,0.32,40,False,left,0.0,0.0007353001274168491,2.458518899977207,2.4577835998497903,1.6830476000905037,2.18331649992615,0.5002688998356462,
300,0.49741,0.1,2,0.34819,0.39793,0.5057,300,2.50363,0.504,0.2487,0.7544,5,2D1U,2.0,True,0.448,23,False,right,0.0,0.0005720001645386219,2.5139897000044584,2.51341769983992,0.3385924003086984,0.8386136000044644,0.500021199695766,
301,0.49741,1.2,2,0.31503,0.30674,0.41451,301,2.24664,0.432,0.21554,0.71295,5,2D1U,2.0,True,0.415,24,True,right,0.0,0.0007473002187907696,2.2475959002040327,2.246848599985242,0.30587990023195744,0.80576780019328,0.49988789996132255,
302,0.49741,0.1,2,0.30674,0.33161,0.88705,302,2.57825,0.104,0.04974,0.55544,5,1D1U,2.0,True,0.383,27,True,right,0.0,0.0002741999924182892,2.5727626997977495,2.5724884998053312,0.29761929996311665,0.7973480001091957,0.49972870014607906,
303,0.49741,1.2,2,0.35648,0.33161,0.43938,303,2.17203,0.096,0.04974,0.54715,5,2U1D,2.0,True,0.392,23,True,right,0.0,0.0007338998839259148,2.1652729003690183,2.1645390004850924,0.34816520009189844,0.8483144999481738,0.5001492998562753,
304,0.49741,0.1,2,0.19896,0.4228,0.53057,304,2.16373,0.024,0.00829,0.51399,5,2U1D,2.0,True,0.342,24,True,right,0.0,0.0010075001046061516,2.164275399874896,2.1632678997702897,0.18880539992824197,0.6890849000774324,0.5002795001491904,
305,0.49741,1.2,2,0.35648,0.38135,0.62176,305,2.37099,0.024,0.00829,0.51399,5,2U1D,2.0,True,0.743,24,True,right,0.0,0.000260000117123127,2.3732974003069103,2.373037400189787,0.3484676000662148,0.8480855002999306,0.4996179002337158,
306,0.49741,0.1,2,0.29016,0.31503,0.46425,306,2.03939,-0.048,-0.02487,0.47254,5,2U1D,2.0,False,1.87,24,False,right,0.0,0.0007445001974701881,2.0413744999095798,2.0406299997121096,0.2830571001395583,0.7831500000320375,0.5000928998924792,
307,0.49741,1.2,2,0.35648,0.38135,0.70466,307,2.37928,-0.12,-0.05803,0.43938,5,2U1D,1.0,True,0.296,25,True,left,0.0,0.0007231999188661575,2.400221100077033,2.399497900158167,0.3500369000248611,0.849688499700278,0.49965159967541695,
308,0.49741,0.1,2,0.3399,0.3399,0.45596,308,2.07255,-0.12,-0.05803,0.43938,5,2U1D,2.0,False,0.249,25,True,right,0.0,0.0003631003201007843,2.0742808002978563,2.0739176999777555,0.33331190003082156,0.8321903003379703,0.4988784003071487,
