,standardDur,audNoise,order,preDur,postDur,isiDur,trial_num,totalDur,delta_dur_percents,deltaDurS,testDurS,intensities,current_stair,responses,is_correct,response_rts,stair_num_reversal,stair_is_reversal,response_keys,conflictDur,recordedOnsetAudioTest,recordedOffsetAudioTest,recordedDurAudioTest,recordedOnsetVisualStandard,recordedOffsetVisualStandard,recordedDurVisualStandard,modalityPostCueTest
0,0.49917,0.1,2,0.20799,0.22463,0.7654,0,1.74711,-0.9,-0.44925,0.04992,5,lapse_rate,1.0,True,0.929,0,False,left,0.0,0.0009408001787960529,1.7489693998359144,1.7480285996571183,0.19858269998803735,0.6984190996736288,0.49983639968559146,
1,0.49917,1.2,2,0.37438,0.24959,0.71548,1,1.93845,-0.8,-0.39934,0.09983,5,1U1D,1.0,True,2.361,0,False,left,0.0,0.0009039998985826969,1.9415804999880493,1.9406765000894666,0.36515819979831576,0.865183399990201,0.5000252001918852,
2,0.49917,0.1,2,0.44094,0.3827,0.75708,2,2.17972,-0.8,-0.39934,0.09983,5,2U1D,1.0,True,0.429,0,False,left,0.0,0.00031139981001615524,2.1807960998266935,2.1804847000166774,0.43151000002399087,0.9310155999846756,0.4995055999606848,
3,0.49917,0.1,2,0.36606,0.41598,0.85691,3,2.18804,-0.9,-0.44925,0.04992,5,lapse_rate,1.0,True,0.409,0,False,left,0.0,0.00028140004724264145,2.189155100379139,2.1888737003318965,0.35587500035762787,0.8558873999863863,0.5000123996287584,
4,0.49917,1.2,2,0.24959,0.39102,0.54077,4,2.57906,0.8,0.39934,0.89851,5,2D1U,2.0,True,2.868,0,False,right,0.0,0.0003092000260949135,2.573804199695587,2.5734949996694922,0.24018329987302423,0.7403007997199893,0.5001174998469651,
5,0.49917,0.1,2,0.21631,0.39102,0.81531,5,2.82032,0.8,0.39934,0.89851,5,1D1U,2.0,True,0.454,0,False,right,0.0,0.00032819993793964386,2.8305719001218677,2.830243700183928,0.20628090016543865,0.7056638998910785,0.4993829997256398,
6,0.49917,1.2,2,0.2995,0.39934,0.57405,6,1.82198,-0.9,-0.44925,0.04992,5,lapse_rate,1.0,True,0.563,0,False,left,0.0,0.0003061997704207897,1.838285899721086,1.8379796999506652,0.2884225999005139,0.7888416997157037,0.5004190998151898,
7,0.49917,1.2,2,0.44925,0.24127,0.64892,7,2.63728,0.6,0.2995,0.79867,5,1D1U,2.0,True,0.456,0,False,right,0.0,0.000795499887317419,2.648083200212568,2.6472877003252506,0.4397833999246359,0.9394421000033617,0.4996587000787258,
8,0.49917,0.1,2,0.24127,0.32446,0.86523,8,2.1298,-0.6,-0.2995,0.19967,5,1U1D,2.0,False,1.055,0,False,right,0.0,0.0006087999790906906,2.1323148999363184,2.1317060999572277,0.2325397999957204,0.7325535002164543,0.5000137002207339,
9,0.49917,1.2,2,0.44925,0.29118,0.88187,9,2.2213,-0.8,-0.39934,0.09983,5,2U1D,1.0,True,0.607,0,False,left,0.0,0.00030010007321834564,2.2063417001627386,2.20604160008952,0.43959010019898415,0.9397869999520481,0.5001968997530639,
10,0.49917,0.1,2,0.4243,0.21631,0.50749,10,2.54578,0.8,0.39934,0.89851,5,2D1U,2.0,True,7.037,0,False,right,0.0,0.00038399966433644295,2.548329500015825,2.5479455003514886,0.4151973999105394,0.9148315996862948,0.4996341997757554,
11,0.49917,1.2,2,0.23295,0.33278,0.78204,11,2.04661,-0.6,-0.2995,0.19967,5,2U1D,2.0,False,2.067,0,False,right,0.0,0.000465999823063612,2.0475000999867916,2.047034100163728,0.22302080038934946,0.722626100294292,0.4996052999049425,
12,0.49917,0.1,2,0.3827,0.27454,0.58237,12,2.53745,0.6,0.2995,0.79867,5,2D1U,2.0,True,0.408,0,False,right,0.0,0.0003292001783847809,2.5558786001056433,2.5555493999272585,0.3733831997960806,0.8729678001254797,0.4995846003293991,
13,0.49917,1.2,2,0.33278,0.3411,0.46589,13,2.33778,0.4,0.19967,0.69884,5,1D1U,1.0,False,0.432,0,False,left,0.0,0.00028529996052384377,2.3480921001173556,2.3478068001568317,0.32340489979833364,0.8229569001123309,0.49955200031399727,
14,0.49917,0.1,2,0.2995,0.29118,0.61565,14,1.84693,-0.72,-0.35774,0.14143,5,1U1D,1.0,True,0.985,1,True,left,0.0,0.00032350001856684685,1.8478951998986304,1.8475716998800635,0.2893018997274339,0.7897078995592892,0.5004059998318553,
15,0.49917,1.2,2,0.4243,0.2995,0.87355,15,2.14644,-0.9,-0.44925,0.04992,5,lapse_rate,1.0,True,0.449,0,False,left,0.0,0.00026719970628619194,2.1478947000578046,2.1476275003515184,0.4146275999955833,0.9147772002033889,0.5001496002078056,
16,0.49917,1.2,2,0.24959,0.41598,0.55741,16,2.47923,0.52,0.25791,0.75708,5,1D1U,2.0,True,0.393,1,True,right,0.0,0.0002704998478293419,2.4812993998639286,2.481028900016099,0.2396794999949634,0.7401100001297891,0.5004305001348257,
17,0.49917,1.2,2,0.2995,0.39934,0.55741,17,2.70385,0.9,0.44925,0.94843,5,lapse_rate,2.0,True,0.456,0,False,right,0.0,0.00027449987828731537,2.714351899921894,2.7140774000436068,0.2892539999447763,0.7892847997136414,0.5000307997688651,
18,0.49917,0.1,2,0.41598,0.27454,0.7654,18,2.1298,-0.648,-0.32446,0.17471,5,1U1D,1.0,True,0.33,2,True,left,0.0,0.0002590999938547611,2.139364699833095,2.1391055998392403,0.40667250007390976,0.9061103998683393,0.49943789979442954,
19,0.49917,1.2,2,0.24127,0.3827,0.80699,19,2.07156,-0.72,-0.35774,0.14143,5,2U1D,1.0,True,0.491,1,True,left,0.0,0.00029460014775395393,2.074137699790299,2.073843099642545,0.23214570013806224,0.7324426998384297,0.5002969997003675,
20,0.49917,0.1,2,0.37438,0.37438,0.81531,20,2.86191,0.6,0.2995,0.79867,5,2D1U,2.0,True,0.314,0,False,right,0.0,0.0002768002450466156,2.864129399880767,2.8638525996357203,0.36441060015931726,0.8641480002552271,0.49973740009590983,
21,0.49917,0.1,2,0.29118,0.34942,0.56573,21,1.75542,-0.9,-0.44925,0.04992,5,lapse_rate,1.0,True,0.349,0,False,left,0.0,0.00028220005333423615,1.765075999777764,1.7647937997244298,0.2818021001294255,0.7817412000149488,0.4999390998855233,
22,0.49917,1.2,2,0.20799,0.37438,0.74876,22,2.03829,-0.576,-0.29118,0.20799,5,1U1D,2.0,False,0.51,2,False,right,0.0,0.0005014999769628048,2.0409707999788225,2.0404693000018597,0.19868850009515882,0.6990547999739647,0.5003662998788059,
23,0.49917,0.1,2,0.33278,0.23295,0.45757,23,2.22131,0.4,0.19967,0.69884,5,2D1U,2.0,True,0.382,0,False,right,0.0,0.0002752002328634262,2.2055282001383603,2.205252999905497,0.32090310007333755,0.821191200055182,0.5002880999818444,
24,0.49917,1.2,2,0.22463,0.4243,0.59901,24,2.47091,0.448,0.22463,0.7238,5,1D1U,2.0,True,0.513,2,True,right,0.0,0.00029029976576566696,2.464296800084412,2.4640065003186464,0.21439869981259108,0.7142544998787344,0.4998558000661433,
25,0.49917,0.1,2,0.21631,0.19967,0.82363,25,1.88021,-0.72,-0.35774,0.14143,5,2U1D,1.0,True,0.39,1,True,left,0.0,0.0002946997992694378,1.8721190001815557,1.8718243003822863,0.2057344000786543,0.7058164002373815,0.5000820001587272,
26,0.49917,1.2,2,0.35774,0.36606,0.44925,26,2.37106,0.4,0.19967,0.69884,5,2D1U,2.0,True,0.358,0,False,right,0.0,0.0010839998722076416,2.3806383996270597,2.379554399754852,0.3471899996511638,0.8474915996193886,0.5003015999682248,
27,0.49917,0.1,2,0.39102,0.21631,0.77372,27,2.05493,-0.648,-0.32446,0.17471,5,1U1D,1.0,True,0.563,3,True,left,0.0,0.0007627997547388077,2.06560240034014,2.064839600585401,0.38224910013377666,0.88213250041008,0.4998834002763033,
28,0.49917,1.2,2,0.28286,0.44094,0.55741,28,2.4709,0.376,0.19135,0.69052,5,1D1U,2.0,True,0.892,2,False,right,0.0,0.0008682999759912491,2.473641499876976,2.4727731999009848,0.273694499861449,0.7737560998648405,0.5000616000033915,
29,0.49917,1.2,2,0.39934,0.37438,0.88187,29,3.10319,0.9,0.44925,0.94843,5,lapse_rate,2.0,True,0.52,0,False,right,0.0,0.0003003999590873718,3.115457400213927,3.1151570002548397,0.39110870007425547,0.890495500061661,0.49938679998740554,
30,0.49917,0.1,1,0.3411,0.32446,0.50749,30,1.84693,-0.648,-0.32446,0.17471,5,2U1D,2.0,True,0.689,2,True,right,0.0,0.0010529998689889908,1.8485443000681698,1.8474913001991808,1.014913700055331,1.5150124002248049,0.5000987001694739,
31,0.49917,1.2,1,0.43262,0.3411,0.74044,31,2.66225,0.304,0.14975,0.64892,5,1D1U,1.0,True,1.789,2,False,left,0.0,0.0002836999483406544,2.6574451997876167,2.657161499839276,1.8150239000096917,2.3156069996766746,0.5005830996669829,
32,0.49917,1.2,1,0.24127,0.30782,0.78204,32,2.77873,0.9,0.44925,0.94843,5,lapse_rate,2.0,False,0.293,0,False,right,0.0,0.0007210001349449158,2.7844332000240684,2.7837121998891234,1.9651633999310434,2.4649491999298334,0.49978579999879,
33,0.49917,0.1,1,0.44925,0.25791,0.86523,33,2.67057,0.2,0.09983,0.59901,5,2D1U,1.0,True,1.939,0,False,left,0.0,0.00029559992253780365,2.6806359998881817,2.680340399965644,1.9055119999684393,2.405745299998671,0.5002333000302315,
34,0.49917,1.2,1,0.39934,0.40766,0.84027,34,2.35443,-0.576,-0.29118,0.20799,5,1U1D,2.0,True,0.374,4,True,right,0.0,0.0002864999696612358,2.3560064998455346,2.3557199998758733,1.4394121998921037,1.939746799878776,0.5003345999866724,
35,0.49917,0.1,1,0.30782,0.31614,0.89019,35,2.18803,-0.648,-0.32446,0.17471,5,2U1D,2.0,True,1.154,2,True,right,0.0,0.0003428002819418907,2.18876939965412,2.1884265993721783,1.3633544999174774,1.8633674997836351,0.5000129998661578,
36,0.49917,0.1,1,0.36606,0.21631,0.60733,36,2.6373,0.9,0.44925,0.94843,5,lapse_rate,1.0,True,0.303,0,False,left,0.0,0.00028190016746520996,2.648691300302744,2.6484094001352787,1.9153201002627611,2.4152675000950694,0.4999473998323083,
37,0.49917,1.2,1,0.3411,0.40766,0.44094,37,2.30452,0.232,0.11647,0.61565,5,1D1U,1.0,True,0.327,2,False,left,0.0,0.00035510025918483734,2.3143976000137627,2.314042499754578,1.3893804997205734,1.8895475999452174,0.500167100224644,
38,0.49917,0.1,1,0.24127,0.20799,0.85691,38,2.40435,0.2,0.09983,0.59901,5,2D1U,1.0,True,1.918,0,False,left,0.0,0.0006821001879870892,2.414264800027013,2.4135826998390257,1.689636700320989,2.1895339000038803,0.49989719968289137,
39,0.49917,1.2,1,0.30782,0.26622,0.59069,39,1.87189,-0.576,-0.29118,0.20799,5,2U1D,2.0,True,1.089,2,False,right,0.0,0.0006712996400892735,1.873965000268072,1.8732937006279826,1.0990038001909852,1.5990678002126515,0.5000640000216663,
40,0.49917,0.1,1,0.28286,0.4243,0.47421,40,1.93013,-0.504,-0.24959,0.24959,5,1U1D,1.0,False,0.382,4,False,left,0.0,0.0010990002192556858,1.9319025999866426,1.930803599767387,0.9994613998569548,1.4987810999155045,0.49931970005854964,
41,0.49917,1.2,1,0.34942,0.29118,0.50749,41,1.85525,-0.576,-0.29118,0.20799,5,1U1D,2.0,True,1.721,5,True,right,0.0,0.00030170008540153503,1.856580600142479,1.8562789000570774,1.0566131002269685,1.5570181999355555,0.5004050997085869,
42,0.49917,0.1,1,0.44925,0.44094,0.54077,42,2.4293,0.0,0.0,0.49917,5,2D1U,1.0,False,2.156,0,False,left,0.0,0.00027849990874528885,2.4313876000232995,2.431109100114554,1.481668900232762,1.9816224002279341,0.499953499995172,
43,0.49917,1.2,1,0.41598,0.21631,0.73212,43,2.44595,0.16,0.0832,0.58237,5,1D1U,2.0,False,0.383,2,False,right,0.0,0.0005636001005768776,2.4573916997760534,2.4568280996754766,1.7240959997288883,2.224156599957496,0.5000606002286077,
44,0.49917,1.2,1,0.20799,0.32446,0.55741,44,2.53746,0.9,0.44925,0.94843,5,lapse_rate,2.0,False,1.28,0,False,right,0.0,0.000790799967944622,2.557365699671209,2.5565748997032642,1.7070908998139203,2.207085899543017,0.4999949997290969,
45,0.49917,0.1,1,0.39102,0.3827,0.63228,45,2.11316,-0.576,-0.29118,0.20799,5,2U1D,2.0,True,0.429,2,False,right,0.0,0.0007219999097287655,2.1238850001245737,2.123163000214845,1.2240333002991974,1.7237263000570238,0.49969299975782633,
46,0.49917,1.2,1,0.3827,0.39934,0.63228,46,2.52914,0.232,0.11647,0.61565,5,1D1U,2.0,False,1.671,3,True,right,0.0,0.0007189996540546417,2.5396316000260413,2.5389126003719866,1.622967999894172,2.12304800003767,0.5000800001434982,
47,0.49917,1.2,1,0.31614,0.2995,0.6822,47,2.74544,0.9,0.44925,0.94843,5,lapse_rate,1.0,True,0.426,0,False,left,0.0,0.00027249986305832863,2.740833300165832,2.7405608003027737,1.9409966003149748,2.4410115000791848,0.50001489976421,
48,0.49917,0.1,1,0.23295,0.31614,0.60733,48,1.90518,-0.504,-0.24959,0.24959,5,2U1D,2.0,True,0.302,2,False,right,0.0,0.0002907998859882355,1.9138438999652863,1.913553100079298,1.0804935996420681,1.5807445999234915,0.5002510002814233,
49,0.49917,1.2,1,0.44925,0.39934,0.88187,49,2.78704,0.12,0.05824,0.55741,5,2D1U,1.0,True,2.781,1,True,left,0.0,0.0007075001485645771,2.789987999945879,2.7892804997973144,1.8815703000873327,2.3817299003712833,0.5001596002839506,
50,0.49917,0.1,1,0.33278,0.43262,0.69884,50,2.213,-0.504,-0.24959,0.24959,5,1U1D,2.0,True,1.231,6,True,right,0.0,0.0002862997353076935,2.2142682000994682,2.2139819003641605,1.27307160012424,1.7728989999741316,0.49982739984989166,
51,0.49917,1.2,1,0.34942,0.3411,0.59901,51,2.43762,0.304,0.14975,0.64892,5,1D1U,2.0,False,1.704,3,False,right,0.0,0.0003152000717818737,2.448907000012696,2.448591799940914,1.5907259001396596,2.0906699001789093,0.49994400003924966,
52,0.49917,0.1,1,0.3411,0.43262,0.88187,52,3.10319,0.9,0.44925,0.94843,5,lapse_rate,1.0,True,0.433,0,False,left,0.0,0.0007337997667491436,3.097629100084305,3.0968953003175557,2.164375400170684,2.6643450004048645,0.4999696002341807,
53,0.49917,0.1,1,0.31614,0.30782,0.49085,53,2.17139,0.12,0.05824,0.55741,5,2D1U,1.0,True,0.412,1,True,left,0.0,0.0003035999834537506,2.1811095001176,2.180805900134146,1.3560979003086686,1.8560763001441956,0.49997839983552694,
54,0.49917,1.2,1,0.32446,0.3827,0.54077,54,2.02996,-0.432,-0.21631,0.28286,5,1U1D,2.0,True,3.353,6,False,right,0.0,0.0003038998693227768,2.0399782001040876,2.039674300234765,1.1401819000020623,1.6396181001327932,0.49943620013073087,
55,0.49917,0.1,1,0.4243,0.43262,0.71548,55,2.32116,-0.504,-0.24959,0.24959,5,2U1D,2.0,True,1.007,2,False,right,0.0,0.00030289962887763977,2.3221394000574946,2.321836500428617,1.3804570999927819,1.8802212998270988,0.49976419983431697,
56,0.49917,1.2,1,0.23295,0.35774,0.88187,56,2.28787,-0.36,-0.18303,0.31614,5,1U1D,2.0,True,2.303,6,False,right,0.0,0.00030880002304911613,2.2898177998140454,2.2895089997909963,1.423213499598205,1.9231850998476148,0.4999716002494097,
57,0.49917,1.2,1,0.37438,0.25791,0.75708,57,1.93846,-0.9,-0.44925,0.04992,5,lapse_rate,2.0,True,1.269,0,False,right,0.0,0.0010608001612126827,1.9580582999624312,1.9569974998012185,1.1745041999965906,1.674453899729997,0.4999496997334063,
58,0.49917,0.1,1,0.21631,0.41598,0.89851,58,2.31283,-0.432,-0.21631,0.28286,5,2U1D,2.0,True,1.144,2,False,right,0.0,0.0003133001737296581,2.306855699978769,2.306542399805039,1.3899798998609185,1.8902822001837194,0.5003023003228009,
59,0.49917,1.2,1,0.3827,0.22463,0.60733,59,2.40435,0.376,0.19135,0.69052,5,1D1U,1.0,True,2.493,3,False,left,0.0,0.0009841001592576504,2.4059437001124024,2.404959599953145,1.672516900114715,2.172470100224018,0.499953200109303,
60,0.49917,0.1,2,0.39934,0.32446,0.83195,60,2.57905,0.048,0.02496,0.52413,5,2D1U,2.0,True,0.34,2,True,right,0.0,0.0007482003420591354,2.5912238000892103,2.590475599747151,0.39082530001178384,0.8906705998815596,0.49984529986977577,
61,0.49917,1.2,2,0.24127,0.36606,0.67388,61,1.8303,-0.9,-0.44925,0.04992,5,lapse_rate,1.0,True,0.983,0,False,left,0.0,0.0003140997141599655,1.8313473002053797,1.8310332004912198,0.23106470005586743,0.731396300252527,0.5003316001966596,
62,0.49917,1.2,2,0.27454,0.39102,0.56573,62,2.0882,-0.288,-0.14143,0.35774,5,1U1D,2.0,False,0.462,6,False,right,0.0,0.0002838997170329094,2.0990540999919176,2.0987702002748847,0.26627459982410073,0.7658279999159276,0.4995534000918269,
63,0.49917,0.1,2,0.24959,0.33278,0.74876,63,2.35443,0.048,0.02496,0.52413,5,2D1U,2.0,True,0.722,2,True,right,0.0,0.0003039003349840641,2.3740141997113824,2.3737102993763983,0.24051549984142184,0.7405852996744215,0.5000697998329997,
64,0.49917,1.2,2,0.27454,0.32446,0.59069,64,2.33778,0.304,0.14975,0.64892,5,1D1U,1.0,False,0.47,4,True,left,0.0,0.0002973000518977642,2.3653318001888692,2.3650345001369715,0.26548589998856187,0.7650772002525628,0.4995913002640009,
65,0.49917,0.1,2,0.34942,0.3827,0.41598,65,1.93013,-0.432,-0.21631,0.28286,5,2U1D,2.0,False,1.564,2,False,right,0.0,0.0004111998714506626,1.940326999872923,1.9399158000014722,0.34026229986920953,0.840402300003916,0.5001400001347065,
66,0.49917,1.2,2,0.34942,0.40766,0.61565,66,2.18804,-0.36,-0.18303,0.31614,5,1U1D,1.0,True,2.794,7,True,left,0.0,0.00029739970341324806,2.189238299615681,2.188940899912268,0.3391724000684917,0.8393708998337388,0.5001984997652471,
67,0.49917,0.1,2,0.37438,0.32446,0.44094,67,1.68887,-0.9,-0.44925,0.04992,5,lapse_rate,1.0,True,0.331,0,False,left,0.0,0.00025560008361935616,1.6896681999787688,1.6894125998951495,0.3647435996681452,0.8642643997445703,0.4995208000764251,
68,0.49917,0.1,2,0.2995,0.44925,0.6406,68,2.57904,0.376,0.19135,0.69052,5,1D1U,2.0,True,0.5,5,True,right,0.0,0.0006448999047279358,2.5644785999320447,2.563833700027317,0.29054389987140894,0.7903064000420272,0.4997625001706183,
69,0.49917,1.2,2,0.34942,0.41598,0.87355,69,2.62897,-0.024,-0.00832,0.49085,5,2D1U,2.0,False,0.986,2,False,right,0.0,0.0007251999340951443,2.624191999901086,2.623466799966991,0.34018809953704476,0.8403561995364726,0.5001680999994278,
70,0.49917,0.1,2,0.4243,0.25791,0.49917,70,1.93014,-0.504,-0.24959,0.24959,5,2U1D,1.0,True,0.391,3,True,left,0.0,0.0008490998297929764,1.93226799974218,1.9314188999123871,0.41503260005265474,0.9154749000445008,0.5004422999918461,
71,0.49917,1.2,2,0.39102,0.19967,0.83195,71,2.27955,-0.288,-0.14143,0.35774,5,1U1D,1.0,True,1.274,8,True,left,0.0,0.0007538003847002983,2.28272939985618,2.2819755994714797,0.3828253000974655,0.8821960999630392,0.49937079986557364,
72,0.49917,0.1,2,0.43262,0.22463,0.43262,72,2.03829,-0.096,-0.04992,0.44925,5,2D1U,2.0,False,0.379,3,True,right,0.0,0.000725800171494484,2.0412469003349543,2.0405211001634598,0.4249102002941072,0.9245474999770522,0.499637299682945,
73,0.49917,0.1,2,0.3411,0.21631,0.59901,73,2.60402,0.9,0.44925,0.94843,5,lapse_rate,2.0,True,0.393,0,False,right,0.0,0.0007385001517832279,2.606797100044787,2.6060585998930037,0.33206239994615316,0.8317176001146436,0.4996552001684904,
74,0.49917,1.2,2,0.23295,0.33278,0.47421,74,2.18803,0.304,0.14975,0.64892,5,1D1U,2.0,True,2.201,6,True,right,0.0,0.0007239999249577522,2.19014980038628,2.189425800461322,0.22417320031672716,0.7237288001924753,0.49955559987574816,
75,0.49917,0.1,2,0.24127,0.40766,0.87355,75,2.27124,-0.504,-0.24959,0.24959,5,2U1D,2.0,False,0.304,3,True,right,0.0,0.0014287997037172318,2.265059099998325,2.263630300294608,0.23200850002467632,0.7316523999907076,0.4996438999660313,
76,0.49917,1.2,2,0.43262,0.44094,0.54077,76,2.86193,0.9,0.44925,0.94843,5,lapse_rate,2.0,True,0.644,0,False,right,0.0,0.0007386999204754829,2.8656530999578536,2.864914400037378,0.42377909971401095,0.9237061999738216,0.4999271002598107,
77,0.49917,1.2,2,0.44094,0.29118,0.52413,77,2.14644,-0.216,-0.10815,0.39102,5,1U1D,1.0,True,1.151,8,False,left,0.0,0.0007178997620940208,2.139875900000334,2.1391580002382398,0.4315963997505605,0.9313634997233748,0.4997670999728143,
78,0.49917,0.1,2,0.30782,0.28286,0.77372,78,2.47922,0.232,0.11647,0.61565,5,1D1U,2.0,True,0.375,6,False,right,0.0,0.0008009998127818108,2.4655534997582436,2.4647524999454618,0.2981654000468552,0.7988498997874558,0.5006844997406006,
79,0.49917,1.2,2,0.41598,0.44094,0.56573,79,2.3378,-0.168,-0.0832,0.41598,5,2D1U,1.0,True,1.867,3,False,left,0.0,0.0008342000655829906,2.356333800125867,2.355499600060284,0.4063697000965476,0.9064330002292991,0.5000633001327515,
80,0.49917,0.1,2,0.19967,0.24959,0.83195,80,1.98837,-0.576,-0.29118,0.20799,5,2U1D,1.0,True,1.247,3,False,left,0.0,0.0007116999477148056,1.9912199000827968,1.990508200135082,0.19101690035313368,0.6908812001347542,0.4998642997816205,
81,0.49917,1.2,2,0.41598,0.37438,0.71548,81,2.42931,-0.144,-0.07488,0.4243,5,1U1D,2.0,False,0.434,8,False,right,0.0,0.0007215999066829681,2.4304138999432325,2.4296923000365496,0.40532900020480156,0.9056831998750567,0.5003541996702552,
82,0.49917,0.1,2,0.28286,0.3827,0.77372,82,1.98837,-0.9,-0.44925,0.04992,5,lapse_rate,1.0,True,0.302,0,False,left,0.0,0.0005107000470161438,1.9890413000248373,1.9885305999778211,0.2730693998746574,0.7727938001044095,0.49972440022975206,
83,0.49917,0.1,2,0.23295,0.44094,0.57405,83,2.32948,0.16,0.0832,0.58237,5,1D1U,2.0,True,0.461,6,False,right,0.0,0.00048559997230768204,2.3324839998967946,2.331998399924487,0.2240790999494493,0.7243486996740103,0.500269599724561,
84,0.49917,1.2,2,0.39934,0.43262,0.63228,84,2.37939,-0.168,-0.0832,0.41598,5,2D1U,1.0,True,0.868,3,False,left,0.0,0.0006420998834073544,2.389061599969864,2.3884195000864565,0.38929220009595156,0.8893252001143992,0.5000330000184476,
85,0.49917,0.1,2,0.24959,0.30782,0.59901,85,1.86358,-0.576,-0.29118,0.20799,5,2U1D,2.0,False,1.342,3,False,right,0.0,0.0007547000423073769,1.8748886999674141,1.8741339999251068,0.2406330001540482,0.7405416001565754,0.49990860000252724,
86,0.49917,0.1,2,0.26622,0.32446,0.69052,86,2.7288,0.9,0.44925,0.94843,5,lapse_rate,2.0,True,0.304,0,False,right,0.0,0.0007396000437438488,2.7315164003521204,2.7307768003083766,0.2559277000837028,0.756420100107789,0.5004924000240862,
87,0.49917,1.2,2,0.34942,0.20799,0.53245,87,1.76374,-0.648,-0.32446,0.17471,5,2U1D,1.0,True,0.581,3,False,left,0.0,0.0007766000926494598,1.7729239002801478,1.7721473001874983,0.33891910035163164,0.8387482999823987,0.4998291996307671,
88,0.49917,0.1,2,0.37438,0.26622,0.79867,88,2.32946,-0.216,-0.10815,0.39102,5,1U1D,2.0,False,0.408,9,True,right,0.0,0.0006208997219800949,2.3318739999085665,2.3312531001865864,0.36446100007742643,0.8652984998188913,0.5008374997414649,
89,0.49917,1.2,2,0.34942,0.43262,0.59901,89,2.42099,0.088,0.0416,0.54077,5,1D1U,1.0,False,0.674,6,False,left,0.0,0.0007930002175271511,2.413530199788511,2.4127371995709836,0.3391126999631524,0.8384497999213636,0.4993370999582112,
90,0.49917,0.1,1,0.37438,0.39934,0.47421,90,2.19635,-0.096,-0.04992,0.44925,5,2D1U,2.0,True,1.477,4,True,right,0.0,0.000734199769794941,2.214452899992466,2.213718700222671,1.2894981000572443,1.7893809000961483,0.49988280003890395,
91,0.49917,1.2,1,0.3411,0.36606,0.49085,91,1.87189,-0.648,-0.32446,0.17471,5,2U1D,2.0,True,2.836,3,False,right,0.0,0.00032899994403123856,1.8819180000573397,1.8815890001133084,0.9988577999174595,1.4985708999447525,0.49971310002729297,
92,0.49917,0.1,1,0.39934,0.43262,0.53245,92,2.22132,-0.288,-0.14143,0.35774,5,1U1D,1.0,False,0.522,9,False,left,0.0,0.0006766999140381813,2.2158222999423742,2.215145600028336,1.2824936998076737,1.7824272997677326,0.4999335999600589,
93,0.49917,1.2,1,0.44094,0.4243,0.75708,93,2.70386,0.16,0.0832,0.58237,5,1D1U,1.0,True,2.164,7,True,left,0.0,0.0005940999835729599,2.7074898998253047,2.706895799841732,1.7741336999461055,2.274278699886054,0.5001449999399483,
94,0.49917,0.1,1,0.27454,0.41598,0.46589,94,2.10483,-0.096,-0.04992,0.44925,5,2D1U,1.0,False,0.277,4,True,left,0.0,0.0006602001376450062,2.107001000083983,2.106340799946338,1.182517500128597,1.6824110001325607,0.4998935000039637,
95,0.49917,1.2,1,0.24959,0.30782,0.49085,95,2.49586,0.9,0.44925,0.94843,5,lapse_rate,2.0,False,0.502,0,False,right,0.0,0.0009038001298904419,2.507473399862647,2.5065695997327566,1.6827042996883392,2.1825028997845948,0.49979860009625554,
96,0.49917,1.2,1,0.40766,0.22463,0.88187,96,2.22132,-0.576,-0.29118,0.20799,5,2U1D,2.0,True,0.219,4,True,right,0.0,0.0007255002856254578,2.2321190000511706,2.231393499765545,1.49003960005939,1.9900774997659028,0.5000378997065127,
97,0.49917,0.1,1,0.29118,0.27454,0.65724,97,2.13811,-0.168,-0.0832,0.41598,5,2D1U,2.0,True,1.93,5,True,right,0.0,0.0007420997135341167,2.1557644000276923,2.155022300314158,1.3556769997812808,1.8560338001698256,0.5003568003885448,
98,0.49917,1.2,1,0.27454,0.20799,0.88187,98,2.40434,0.088,0.0416,0.54077,5,1D1U,1.0,True,1.305,8,True,left,0.0,0.0005466998554766178,2.4151216000318527,2.414574900176376,1.6901298998855054,2.1903261998668313,0.5001962999813259,
99,0.49917,1.2,1,0.25791,0.33278,0.53245,99,1.67223,-0.9,-0.44925,0.04992,5,lapse_rate,2.0,True,2.077,0,False,right,0.0,0.0007218997925519943,1.6730124996975064,1.6722905999049544,0.8309193998575211,1.3312540999613702,0.5003347001038492,
100,0.49917,0.1,1,0.24959,0.34942,0.66556,100,2.07988,-0.36,-0.18303,0.31614,5,1U1D,2.0,True,0.432,9,False,right,0.0,0.000605700071901083,2.073475200217217,2.072869500145316,1.2235133000649512,1.7236178000457585,0.5001044999808073,
101,0.49917,1.2,1,0.31614,0.22463,0.60733,101,2.15476,0.016,0.00832,0.50749,5,1D1U,1.0,True,1.753,8,False,left,0.0,0.0003418000414967537,2.157182600349188,2.156840800307691,1.423481300007552,1.9232603004202247,0.49977900041267276,
102,0.49917,0.1,1,0.4243,0.23295,0.53245,102,2.10485,-0.168,-0.0832,0.41598,5,2D1U,2.0,True,0.399,5,True,right,0.0,0.0007533999159932137,2.09776319982484,2.0970097999088466,1.3646046998910606,1.8648124998435378,0.5002077999524772,
103,0.49917,1.2,1,0.39102,0.37438,0.7238,103,2.19636,-0.576,-0.29118,0.20799,5,2U1D,2.0,True,0.262,4,True,right,0.0,0.0007238001562654972,2.207456400152296,2.2067325999960303,1.3158447002060711,1.8159750001505017,0.5001302999444306,
104,0.49917,0.1,1,0.37438,0.19967,0.74044,104,2.76209,0.9,0.44925,0.94843,5,lapse_rate,1.0,True,0.377,0,False,left,0.0,0.0007636998780071735,2.7742956997826695,2.7735319999046624,2.0577350999228656,2.5578056001104414,0.5000705001875758,
105,0.49917,0.1,1,0.36606,0.39934,0.82363,105,2.44594,-0.288,-0.14143,0.35774,5,1U1D,2.0,True,0.241,10,True,right,0.0,0.0007539000362157822,2.449116200208664,2.448362300172448,1.5413160999305546,2.0407966002821922,0.4994805003516376,
106,0.49917,1.2,1,0.31614,0.26622,0.62396,106,1.95508,-0.504,-0.24959,0.24959,5,2U1D,2.0,True,1.539,4,False,right,0.0,0.0005300003103911877,1.9564064000733197,1.9558763997629285,1.1813560002483428,1.682479000184685,0.5011229999363422,
107,0.49917,0.1,1,0.3411,0.23295,0.6822,107,2.22963,-0.056,-0.02496,0.47421,5,1D1U,1.0,False,0.529,8,False,left,0.0,0.0007901000790297985,2.2404295997694135,2.2396394996903837,1.4906958998180926,1.991226399783045,0.5005304999649525,
108,0.49917,1.2,1,0.40766,0.4243,0.83195,108,2.5541,-0.216,-0.10815,0.39102,5,1U1D,2.0,True,2.184,10,False,right,0.0,0.0007597999647259712,2.5742652001790702,2.5735054002143443,1.6241414998658001,2.124240200035274,0.5000987001694739,
109,0.49917,1.2,1,0.44094,0.41598,0.62396,109,2.02997,-0.9,-0.44925,0.04992,5,lapse_rate,1.0,False,1.982,0,False,left,0.0,0.000692400150001049,2.0226390999741852,2.021946699824184,1.1060709999874234,1.6054548001848161,0.4993838001973927,
110,0.49917,0.1,1,0.24959,0.24127,0.62396,110,2.06324,-0.096,-0.04992,0.44925,5,2D1U,2.0,True,0.473,6,True,right,0.0,0.0007349997758865356,2.0733169997110963,2.0725819999352098,1.3146012998186052,1.8149351999163628,0.5003339000977576,
111,0.49917,1.2,1,0.20799,0.23295,0.43262,111,1.62232,-0.504,-0.24959,0.24959,5,2U1D,1.0,False,1.195,4,False,left,0.0,0.0007138997316360474,1.622893700376153,1.622179800644517,0.8809549999423325,1.381678500212729,0.5007235002703965,
112,0.49917,0.1,1,0.3411,0.20799,0.56573,112,2.04661,-0.128,-0.06656,0.43262,5,1D1U,1.0,False,0.399,9,True,left,0.0,0.000716999638825655,2.0393726998008788,2.038655700162053,1.3317232998088002,1.8313861996866763,0.49966289987787604,
113,0.49917,0.1,1,0.32446,0.28286,0.89019,113,2.94511,0.9,0.44925,0.94843,5,lapse_rate,1.0,True,0.354,0,False,left,0.0,0.0008680000901222229,2.956426199991256,2.9555581999011338,2.156961599830538,2.657159599941224,0.5001980001106858,
114,0.49917,1.2,1,0.41598,0.21631,0.74044,114,2.2962,-0.144,-0.07488,0.4243,5,1U1D,2.0,True,1.101,10,False,right,0.0,0.0007180999964475632,2.314890599809587,2.3141724998131394,1.5730106998234987,2.0731440000236034,0.5001333002001047,
115,0.49917,0.1,1,0.39934,0.30782,0.6406,115,2.29618,-0.096,-0.04992,0.44925,5,2D1U,2.0,True,0.966,6,True,right,0.0,0.0004864996299147606,2.3081568996421993,2.3076704000122845,1.4829514999873936,1.9828021000139415,0.4998506000265479,
116,0.49917,1.2,1,0.2995,0.27454,0.43262,116,1.99668,-0.024,-0.00832,0.49085,5,2D1U,1.0,False,0.651,6,False,left,0.0,0.0007289997301995754,2.008255199994892,2.0075262002646923,1.21696970006451,1.7167962999083102,0.49982659984380007,
117,0.49917,0.1,1,0.30782,0.4243,0.59901,117,2.77873,0.9,0.44925,0.94843,5,lapse_rate,1.0,True,0.374,0,False,left,0.0,0.0008689002133905888,2.772883700206876,2.772014799993485,1.8557470003142953,2.356445000041276,0.5006979997269809,
118,0.49917,0.1,1,0.4243,0.35774,0.82363,118,2.31283,-0.576,-0.29118,0.20799,5,2U1D,2.0,True,1.083,5,True,right,0.0,0.0009591002017259598,2.3238189998082817,2.3228598996065557,1.4491902999579906,1.9488516999408603,0.4996613999828696,
119,0.49917,1.2,1,0.44925,0.43262,0.4243,119,2.20468,-0.2,-0.09983,0.39934,5,1D1U,2.0,True,2.964,9,False,right,0.0,0.0006307000294327736,2.198219600133598,2.197588900104165,1.2656855001114309,1.765575900208205,0.4998904000967741,
120,0.49917,0.1,2,0.22463,0.34942,0.40766,120,1.94677,-0.072,-0.03328,0.46589,5,1U1D,2.0,False,0.438,10,False,right,0.0,0.0009131999686360359,1.9491126001812518,1.9481994002126157,0.21561369998380542,0.7151740002445877,0.49956030026078224,
121,0.49917,1.2,2,0.40766,0.4243,0.47421,121,2.01333,-0.576,-0.29118,0.20799,5,2U1D,1.0,True,0.454,5,True,left,0.0,0.000732900109142065,2.007795600220561,2.007062700111419,0.39932020008563995,0.899220900144428,0.49990070005878806,
122,0.49917,0.1,2,0.21631,0.39102,0.7654,122,2.30452,-0.128,-0.06656,0.43262,5,1D1U,2.0,False,1.349,10,True,right,0.0,0.0007468997500836849,2.29908369993791,2.298336800187826,0.20713619980961084,0.7070848001167178,0.49994860030710697,
123,0.49917,1.2,2,0.39102,0.34942,0.49085,123,2.15476,-0.144,-0.07488,0.4243,5,1U1D,2.0,False,1.531,11,True,right,0.0,0.0007239999249577522,2.1742842998355627,2.173560299910605,0.38213959988206625,0.8820338998921216,0.4998943000100553,
124,0.49917,1.2,2,0.44094,0.44925,0.53245,124,1.97173,-0.9,-0.44925,0.04992,5,lapse_rate,1.0,True,0.261,0,False,left,0.0,0.0007813000120222569,1.9738354999572039,1.9730541999451816,0.4325405997224152,0.9312685998156667,0.49872800009325147,
125,0.49917,0.1,2,0.35774,0.4243,0.39934,125,2.1298,-0.096,-0.04992,0.44925,5,2D1U,2.0,False,0.394,7,True,right,0.0,0.0006943996995687485,2.1222752002067864,2.1215808005072176,0.3472339999862015,0.847416799981147,0.5001827999949455,
126,0.49917,1.2,2,0.40766,0.40766,0.46589,126,2.1714,-0.216,-0.10815,0.39102,5,1U1D,1.0,True,1.272,11,False,left,0.0,0.0009400998242199421,2.1649772003293037,2.164037100505084,0.3984101000241935,0.8981147003360093,0.49970460031181574,
127,0.49917,0.1,2,0.29118,0.22463,0.53245,127,1.96341,-0.168,-0.0832,0.41598,5,2D1U,2.0,False,0.32,7,False,right,0.0,0.0006678001955151558,1.9811656000092626,1.9804977998137474,0.2811575997620821,0.7812208998948336,0.5000633001327515,
128,0.49917,1.2,2,0.26622,0.3827,0.66556,128,2.21299,-0.2,-0.09983,0.39934,5,1D1U,2.0,False,1.654,11,True,right,0.0,0.0006511001847684383,2.215361500158906,2.2147103999741375,0.25665330002084374,0.7564883003942668,0.4998350003734231,
129,0.49917,0.1,2,0.27454,0.32446,0.40766,129,1.55575,-0.9,-0.44925,0.04992,5,lapse_rate,1.0,True,0.5,0,False,left,0.0,0.0007537002675235271,1.5562460999935865,1.555492399726063,0.26475240010768175,0.7647005002945662,0.4999481001868844,
130,0.49917,0.1,2,0.26622,0.24959,0.59901,130,1.86358,-0.504,-0.24959,0.24959,5,2U1D,2.0,False,0.539,6,True,right,0.0,0.0006697997450828552,1.8736162995919585,1.8729464998468757,0.2571669998578727,0.7572134998627007,0.500046500004828,
131,0.49917,1.2,2,0.4243,0.2995,0.80699,131,2.39602,-0.272,-0.13311,0.36606,5,1D1U,2.0,False,0.534,11,False,right,0.0,0.0005344003438949585,2.4076165999285877,2.4070821995846927,0.41688039992004633,0.9161808998323977,0.49930049991235137,
132,0.49917,0.1,2,0.30782,0.28286,0.81531,132,2.32946,-0.144,-0.07488,0.4243,5,1U1D,2.0,False,0.373,12,True,right,0.0,0.0007283999584615231,2.3314048000611365,2.330676400102675,0.29833769984543324,0.7985764998011291,0.5002387999556959,
133,0.49917,1.2,2,0.3827,0.27454,0.66556,133,2.02996,-0.576,-0.29118,0.20799,5,2U1D,1.0,True,0.4,7,True,left,0.0,0.00033190008252859116,2.0232810000889003,2.0229491000063717,0.37348870001733303,0.8732814001850784,0.49979270016774535,
134,0.49917,0.1,2,0.32446,0.44094,0.58237,134,2.22964,-0.24,-0.11647,0.3827,5,2D1U,2.0,False,0.314,7,False,right,0.0,0.0007484001107513905,2.224255600012839,2.2235071999020875,0.3154848995618522,0.8157633999362588,0.5002785003744066,
135,0.49917,0.1,2,0.25791,0.27454,0.46589,135,1.54743,-0.9,-0.44925,0.04992,5,lapse_rate,1.0,True,0.365,0,False,left,0.0,0.0007496997714042664,1.547533500008285,1.5467838002368808,0.24753620009869337,0.7479288000613451,0.5003925999626517,
136,0.49917,1.2,2,0.20799,0.44094,0.55741,136,2.09653,-0.216,-0.10815,0.39102,5,1U1D,2.0,False,1.687,13,True,right,0.0,0.0008320999331772327,2.106259100139141,2.105427000205964,0.19837710028514266,0.6982045001350343,0.49982739984989166,
137,0.49917,0.1,2,0.27454,0.3411,0.44094,137,1.89685,-0.312,-0.15807,0.3411,5,2D1U,2.0,False,0.348,7,False,right,0.0,0.0006543002091348171,1.896774800028652,1.8961204998195171,0.2643689997494221,0.7640022998675704,0.4996333001181483,
138,0,0,0,0,0,0,0,0,0,0,0,0,0,0,0,0,0,0,0,0,0,0,0,0,0,0,0
139,0.49917,1.2,2,0.43262,0.30782,0.77372,139,2.22132,-0.576,-0.29118,0.20799,5,2U1D,1.0,True,1.183,7,True,left,0.0,0.0007432997226715088,2.207694800104946,2.2069515003822744,0.4238725998438895,0.9246362000703812,0.5007636002264917,
140,0.49917,0.1,2,0.25791,0.30782,0.78204,140,2.1714,-0.344,-0.17471,0.32446,5,1D1U,2.0,False,0.36,11,False,right,0.0,0.0005256999284029007,2.1818811004050076,2.1813554004766047,0.2491631000302732,0.7488576001487672,0.49969450011849403,
141,0.49917,1.2,2,0.21631,0.24127,0.87355,141,2.07989,-0.504,-0.24959,0.24959,5,2U1D,2.0,False,1.457,8,True,right,0.0,0.0005868002772331238,2.090968099888414,2.090381299611181,0.20721019990742207,0.7083359998650849,0.5011257999576628,
142,0.49917,0.1,2,0.2995,0.2995,0.47421,142,1.8802,-0.384,-0.19135,0.30782,5,2D1U,2.0,False,0.963,7,False,right,0.0,0.0005197999998927116,1.8978883000090718,1.8973685000091791,0.2903247997164726,0.7897097999230027,0.4993850002065301,
143,0.49917,1.2,2,0.35774,0.21631,0.78204,143,2.213,-0.288,-0.14143,0.35774,5,1U1D,2.0,False,1.163,13,False,right,0.0,0.0005785999819636345,2.206688000354916,2.2061094003729522,0.3486104002222419,0.8481963002122939,0.499585899990052,
144,0.49917,0.1,2,0.28286,0.34942,0.62396,144,2.04659,-0.416,-0.20799,0.29118,5,1D1U,1.0,True,1.146,11,False,left,0.0,0.0004070000723004341,2.0487038996070623,2.048296899534762,0.2735387999564409,0.7734687998890877,0.49992999993264675,
145,0.49917,1.2,2,0.20799,0.27454,0.74044,145,2.0466,-0.344,-0.17471,0.32446,5,1D1U,1.0,True,2.205,12,True,left,0.0,0.0006358996033668518,2.048668500036001,2.0480326004326344,0.1985883000306785,0.6984588000923395,0.499870500061661,
146,0.49917,0.1,2,0.32446,0.32446,0.70716,146,2.12979,-0.456,-0.22463,0.27454,5,2D1U,2.0,False,0.726,7,False,right,0.0,0.0006889998912811279,2.1405507000163198,2.1398617001250386,0.31567579973489046,0.8160482998937368,0.5003725001588464,
147,0.49917,1.2,2,0.19967,0.29118,0.50749,147,1.73046,-0.528,-0.26622,0.23295,5,2D1U,2.0,False,1.086,7,False,right,0.0,0.000758300069719553,1.739453500136733,1.7386952000670135,0.18934480007737875,0.6889076000079513,0.4995627999305725,
148,0.49917,0.1,2,0.25791,0.43262,0.71548,148,2.11317,-0.576,-0.29118,0.20799,5,2U1D,2.0,False,0.848,9,True,right,0.0,0.0005842000246047974,2.1159943998791277,2.115410199854523,0.24893230013549328,0.749600799754262,0.5006684996187687,
149,0.49917,1.2,2,0.23295,0.23295,0.43262,149,1.71383,-0.36,-0.18303,0.31614,5,1U1D,1.0,True,2.298,13,False,left,0.0,0.0003200001083314419,1.7147653000429273,1.7144452999345958,0.2224583998322487,0.7226851000450552,0.5002267002128065,
150,0.49917,0.1,1,0.21631,0.20799,0.40766,150,1.69719,-0.272,-0.13311,0.36606,5,1D1U,1.0,False,0.697,12,False,left,0.0,0.0007295999675989151,1.6989325997419655,1.6982029997743666,0.9816161999478936,1.4813842000439763,0.4997680000960827,
151,0.49917,1.2,1,0.34942,0.30782,0.45757,151,1.78869,-0.648,-0.32446,0.17471,5,2U1D,2.0,True,0.173,9,False,right,0.0,0.0007221000269055367,1.7730386001057923,1.7723165000788867,0.9728180002421141,1.4732246999628842,0.5004066997207701,
152,0.49917,0.1,1,0.34942,0.44925,0.49917,152,2.15475,-0.288,-0.14143,0.35774,5,1U1D,2.0,True,0.547,14,True,right,0.0,0.000781400129199028,2.165538900066167,2.164757499936968,1.1987840002402663,1.6987195000983775,0.49993549985811114,
153,0.49917,1.2,1,0.24127,0.43262,0.74044,153,2.11317,-0.6,-0.2995,0.19967,5,2D1U,2.0,True,0.314,7,False,right,0.0,0.0007440997287631035,2.1160498997196555,2.1153057999908924,1.1739771999418736,1.6742865997366607,0.5003093997947872,
154,0.49917,0.1,1,0.27454,0.26622,0.82363,154,2.18802,-0.344,-0.17471,0.32446,5,1D1U,2.0,True,0.362,13,True,right,0.0,0.0002650003880262375,2.180063800420612,2.179798800032586,1.4137234999798238,1.9142351001501083,0.5005116001702845,
155,0.49917,1.2,1,0.2995,0.37438,0.75708,155,2.29619,-0.272,-0.13311,0.36606,5,1D1U,2.0,True,2.356,14,True,right,0.0,0.0007229000329971313,2.314502399880439,2.313779499847442,1.4137965999543667,1.9142574002034962,0.5004608002491295,
156,0.49917,0.1,1,0.43262,0.34942,0.64892,156,2.1298,-0.6,-0.2995,0.19967,5,2D1U,2.0,True,0.266,7,False,right,0.0,0.0006466996856033802,2.131683100014925,2.1310364003293216,1.2735250000841916,1.7732770000584424,0.4997519999742508,
157,0.49917,1.2,1,0.39934,0.39102,0.51581,157,2.03829,-0.528,-0.26622,0.23295,5,2D1U,2.0,True,0.859,8,True,right,0.0,0.0007734000682830811,2.0474213999696076,2.0466479999013245,1.1384180998429656,1.6387718999758363,0.5003538001328707,
158,0.49917,0.1,1,0.41598,0.2995,0.69052,158,2.29619,-0.216,-0.10815,0.39102,5,1U1D,2.0,True,0.336,14,False,right,0.0,0.0007830997928977013,2.298178999684751,2.2973958998918533,1.4901123996824026,1.9901567995548248,0.5000443998724222,
159,0.49917,1.2,1,0.28286,0.24959,0.58237,159,1.7887,-0.648,-0.32446,0.17471,5,2U1D,1.0,False,1.024,9,False,left,0.0,0.0010947003029286861,1.7898681997321546,1.788773499429226,1.0315696997568011,1.5314635997638106,0.4998939000070095,
160,0.49917,0.1,1,0.43262,0.20799,0.73212,160,2.27124,-0.2,-0.09983,0.39934,5,1D1U,1.0,False,2.403,14,False,left,0.0,0.0007348000071942806,2.2735617998987436,2.2728269998915493,1.5571326999925077,2.0572348996065557,0.500102199614048,
161,0.49917,1.2,1,0.4243,0.26622,0.62396,161,2.0466,-0.528,-0.26622,0.23295,5,2D1U,2.0,True,0.416,8,True,right,0.0,0.0007520001381635666,2.0328974002040923,2.0321454000659287,1.2746218000538647,1.7746812999248505,0.5000594998709857,
162,0.49917,0.1,1,0.2995,0.25791,0.70716,162,1.90517,-0.72,-0.35774,0.14143,5,2U1D,2.0,True,0.779,9,False,right,0.0,0.0006865998730063438,1.8997172000817955,1.899030600208789,1.1406163000501692,1.640593399759382,0.4999770997092128,
163,0.49917,1.2,1,0.21631,0.32446,0.61565,163,1.79702,-0.72,-0.35774,0.14143,5,2U1D,2.0,True,2.326,9,False,right,0.0,0.0006391000933945179,1.8054510997608304,1.8048119996674359,0.9639917998574674,1.4641757998615503,0.5001840000040829,
164,0.49917,0.1,1,0.31614,0.41598,0.46589,164,2.12148,-0.144,-0.07488,0.4243,5,1U1D,1.0,False,0.595,14,False,left,0.0,0.000780000351369381,2.147928399965167,2.1471483996137977,1.1982371998019516,1.6978133996017277,0.4995761997997761,
165,0.49917,1.2,1,0.30782,0.22463,0.69884,165,2.09652,-0.272,-0.13311,0.36606,5,1D1U,2.0,True,0.981,15,True,right,0.0,0.0007119001820683479,2.1072848001495004,2.106572899967432,1.3649357999674976,1.864750999957323,0.4998151999898255,
166,0.49917,0.1,1,0.3827,0.21631,0.73212,166,2.10484,-0.456,-0.22463,0.27454,5,2D1U,2.0,True,2.453,8,False,right,0.0,0.0013393997214734554,2.1149913002736866,2.113651900552213,1.3812822001054883,1.881151800043881,0.49986959993839264,
167,0.49917,1.2,1,0.24127,0.44925,0.88187,167,2.4709,-0.2,-0.09983,0.39934,5,1D1U,2.0,True,0.299,16,True,right,0.0,0.0006710998713970184,2.4817081997171044,2.4810370998457074,1.5150772999040782,2.014886799734086,0.49980949983000755,
168,0.49917,0.1,1,0.22463,0.3411,0.70716,168,1.94677,-0.648,-0.32446,0.17471,5,2U1D,2.0,True,0.412,10,True,right,0.0,0.0008264998905360699,1.9483655001968145,1.9475390003062785,1.0989085999317467,1.5984231000766158,0.4995145001448691,
169,0.49917,1.2,1,0.31614,0.4243,0.39934,169,2.02997,-0.216,-0.10815,0.39102,5,1U1D,1.0,False,0.834,15,True,left,0.0,0.0007305997423827648,2.040388399735093,2.0396577999927104,1.0989490998908877,1.599112699739635,0.5001635998487473,
170,0.49917,0.1,1,0.25791,0.26622,0.44094,170,1.73878,-0.456,-0.22463,0.27454,5,2D1U,1.0,False,0.56,8,False,left,0.0,0.0007357997819781303,1.7405203999951482,1.73978460021317,0.9656575000844896,1.465256500057876,0.4995989999733865,
171,0.49917,1.2,1,0.22463,0.24959,0.79036,171,2.19637,-0.128,-0.06656,0.43262,5,1D1U,2.0,True,0.538,16,False,right,0.0,0.0006209998391568661,2.191413599997759,2.190792600158602,1.4407489001750946,1.9405902000144124,0.4998412998393178,
172,0.49917,0.1,1,0.22463,0.40766,0.75708,172,2.06325,-0.648,-0.32446,0.17471,5,2U1D,2.0,True,0.305,10,True,right,0.0,0.0010293996892869473,2.073580199852586,2.072550800163299,1.1488946001045406,1.6485361997038126,0.499641599599272,
173,0.49917,1.2,1,0.37438,0.3411,0.44094,173,1.86358,-0.576,-0.29118,0.20799,5,2U1D,1.0,False,0.634,10,False,left,0.0,0.0005508000031113625,1.8736708001233637,1.8731200001202524,1.0150931999087334,1.5151585000567138,0.5000653001479805,
174,0.49917,0.1,1,0.21631,0.44925,0.40766,174,1.80534,-0.528,-0.26622,0.23295,5,2D1U,2.0,True,0.245,9,True,right,0.0,0.0004976000636816025,1.8067180998623371,1.8062204997986555,0.848299500066787,1.3479108000174165,0.4996112999506295,
175,0.49917,1.2,1,0.24959,0.31614,0.79867,175,2.22131,-0.288,-0.14143,0.35774,5,1U1D,2.0,True,0.53,15,False,right,0.0,0.0009404998272657394,2.2161209997721016,2.215180499944836,1.3994156997650862,1.899518399965018,0.5001027001999319,
176,0.49917,0.1,1,0.4243,0.43262,0.49917,176,2.32947,-0.056,-0.02496,0.47421,5,1D1U,1.0,False,0.33,16,False,left,0.0,0.0007612002082169056,2.323329799808562,2.322568599600345,1.389596899971366,1.8899578000418842,0.5003609000705183,
177,0.49917,1.2,1,0.24959,0.29118,0.44925,177,1.72214,-0.528,-0.26622,0.23295,5,2D1U,1.0,False,2.383,9,True,left,0.0,0.0005210996605455875,1.7313044997863472,1.7307834001258016,0.9226251998916268,1.4230481996200979,0.500422999728471,
178,0.49917,0.1,1,0.43262,0.43262,0.59901,178,2.16309,-0.6,-0.2995,0.19967,5,2D1U,2.0,True,0.412,9,False,right,0.0,0.001248400192707777,2.165562399663031,2.1643139994703233,1.2232579998672009,1.7235274999402463,0.5002695000730455,
179,0.49917,1.2,1,0.35774,0.44094,0.65724,179,2.34611,-0.216,-0.10815,0.39102,5,1U1D,1.0,False,0.97,16,True,left,0.0,0.0004987996071577072,2.3494942001998425,2.3489954005926847,1.3998732999898493,1.8999348999932408,0.5000616000033915,
180,0.49917,0.1,2,0.30782,0.35774,0.77372,180,2.11316,-0.648,-0.32446,0.17471,5,2U1D,1.0,True,0.777,11,True,left,0.0,0.0007104999385774136,2.1145760999061167,2.1138655999675393,0.29815519973635674,0.7981805000454187,0.500025300309062,
181,0.49917,1.2,2,0.43262,0.41598,0.48253,181,2.26292,-0.128,-0.06656,0.43262,5,1D1U,1.0,True,0.67,17,True,left,0.0,0.0005771000869572163,2.2656641001813114,2.265087000094354,0.42442720010876656,0.9241180000826716,0.4996907999739051,
182,0.49917,0.1,2,0.34942,0.23295,0.48253,182,2.03828,-0.056,-0.02496,0.47421,5,1D1U,2.0,False,0.274,18,True,right,0.0,0.0007623001001775265,2.0408328999765217,2.040070599876344,0.3405205002054572,0.8408107999712229,0.5002902997657657,
183,0.49917,1.2,2,0.26622,0.21631,0.69884,183,1.88021,-0.6,-0.2995,0.19967,5,2D1U,1.0,True,0.312,9,False,left,0.0,0.0007414999417960644,1.891011799685657,1.890270299743861,0.25746449967846274,0.7576041999273002,0.5001397002488375,
184,0.49917,0.1,2,0.22463,0.40766,0.65724,184,1.96341,-0.648,-0.32446,0.17471,5,2U1D,1.0,True,1.714,11,True,left,0.0,0.0004114997573196888,1.9821560997515917,1.981744599994272,0.21581019973382354,0.7157026999630034,0.49989250022917986,
185,0.49917,1.2,2,0.34942,0.3827,0.83195,185,2.42098,-0.288,-0.14143,0.35774,5,1U1D,2.0,False,1.26,17,True,right,0.0,0.0011953003704547882,2.4231436997652054,2.4219483993947506,0.34008039999753237,0.8403599997982383,0.5002795998007059,
186,0.49917,0.1,2,0.25791,0.2995,0.49917,186,1.87189,-0.36,-0.18303,0.31614,5,1U1D,2.0,False,0.497,17,False,right,0.0,0.0005624997429549694,1.873282099608332,1.872719599865377,0.24865600001066923,0.7478205999359488,0.4991645999252796,
187,0.49917,1.2,2,0.41598,0.22463,0.77372,187,2.34612,-0.128,-0.06656,0.43262,5,1D1U,2.0,False,0.411,19,True,right,0.0,0.0006079999729990959,2.3569577001035213,2.3563497001305223,0.4072819999419153,0.9069420001469553,0.49966000020504,
188,0.49917,0.1,2,0.41598,0.3411,0.82363,188,2.47922,-0.2,-0.09983,0.39934,5,1D1U,2.0,False,1.598,19,False,right,0.0,0.0005447999574244022,2.4745598998852074,2.474015099927783,0.40779929980635643,0.9076636997051537,0.4998643998987973,
189,0.49917,1.2,2,0.39102,0.35774,0.89851,189,2.35443,-0.576,-0.29118,0.20799,5,2U1D,1.0,True,0.446,12,True,left,0.0,0.0007257000543177128,2.366037900093943,2.365312200039625,0.3825051002204418,0.8821618999354541,0.4996567997150123,
190,0.49917,0.1,2,0.33278,0.36606,0.84859,190,2.27955,-0.528,-0.26622,0.23295,5,2D1U,2.0,False,0.798,10,True,right,0.0,0.0006645997054874897,2.2909729997627437,2.290308400057256,0.323656199965626,0.8234643000178039,0.4998081000521779,
191,0.49917,1.2,2,0.41598,0.41598,0.54909,191,2.08821,-0.576,-0.29118,0.20799,5,2U1D,1.0,True,0.278,12,True,left,0.0,0.0006765997968614101,2.0898794000968337,2.0892028002999723,0.405908000189811,0.9062663000077009,0.5003582998178899,
192,0.49917,0.1,2,0.44925,0.3827,0.50749,192,2.12147,-0.432,-0.21631,0.28286,5,1U1D,2.0,False,0.889,17,False,right,0.0,0.0008065002039074898,2.123175200074911,2.1223686998710036,0.440257600042969,0.9401823999360204,0.4999247998930514,
193,0.49917,1.2,2,0.44094,0.30782,0.57405,193,2.18804,-0.272,-0.13311,0.36606,5,1D1U,2.0,False,1.433,19,False,right,0.0,0.0008640997111797333,2.1824047998525202,2.1815407001413405,0.4323971001431346,0.9321228000335395,0.49972569989040494,
194,0.49917,0.1,2,0.43262,0.26622,0.74876,194,2.14644,-0.6,-0.2995,0.19967,5,2D1U,1.0,True,0.409,11,True,left,0.0,0.0006468999199569225,2.140455299988389,2.139808400068432,0.4238716997206211,0.9241296998225152,0.5002580001018941,
195,0.49917,1.2,2,0.30782,0.41598,0.84027,195,2.31283,-0.504,-0.24959,0.24959,5,2U1D,2.0,False,0.512,12,False,right,0.0,0.00046609994024038315,2.3142669000662863,2.313800800126046,0.29776550037786365,0.7982624000869691,0.5004968997091055,
196,0.49917,0.1,2,0.34942,0.24959,0.44925,196,1.79702,-0.504,-0.24959,0.24959,5,1U1D,2.0,False,0.69,17,False,right,0.0,0.0007438999600708485,1.79884949978441,1.7981055998243392,0.34078559977933764,0.840125999879092,0.49934040009975433,
197,0.49917,1.2,2,0.33278,0.39102,0.86523,197,2.41266,-0.344,-0.17471,0.32446,5,1D1U,2.0,False,1.1,19,False,right,0.0,0.0007174997590482235,2.4310415000654757,2.4303240003064275,0.3224940001964569,0.8227305002510548,0.5002365000545979,
198,0.49917,0.1,2,0.35774,0.4243,0.59901,198,2.1714,-0.416,-0.20799,0.29118,5,1D1U,2.0,False,0.816,19,False,right,0.0,0.0006494000554084778,2.173510799650103,2.1728613995946944,0.34771210001781583,0.8479074998758733,0.5001953998580575,
199,0.49917,1.2,2,0.36606,0.35774,0.65724,199,2.0882,-0.576,-0.29118,0.20799,5,2U1D,1.0,True,0.473,13,True,left,0.0,0.0007607000879943371,2.090273399837315,2.0895126997493207,0.356869800016284,0.8569778995588422,0.5001080995425582,
200,0.49917,0.1,2,0.41598,0.37438,0.69884,200,2.18804,-0.6,-0.2995,0.19967,5,2D1U,2.0,False,0.633,11,True,right,0.0,0.0005822996608912945,2.1909429002553225,2.190360600594431,0.4069809000939131,0.9071933999657631,0.50021249987185,
201,0.49917,1.2,2,0.40766,0.39934,0.84859,201,2.41267,-0.488,-0.24127,0.25791,5,1D1U,1.0,True,1.464,19,False,left,0.0,0.0007418999448418617,2.414582499768585,2.413840599823743,0.3980041998438537,0.8980057998560369,0.5000016000121832,
202,0.49917,0.1,2,0.28286,0.33278,0.77372,202,2.17971,-0.416,-0.20799,0.29118,5,1D1U,2.0,False,0.233,20,True,right,0.0,0.0007361001335084438,2.197908299975097,2.1971721998415887,0.27314369985833764,0.7731079999357462,0.49996430007740855,
203,0.49917,1.2,2,0.35774,0.33278,0.41598,203,1.77206,-0.672,-0.33278,0.16639,5,2D1U,1.0,True,0.338,11,False,left,0.0,0.0007834997959434986,1.7735902001149952,1.7728067003190517,0.34846229990944266,0.8485710001550615,0.5001087002456188,
204,0.49917,0.1,2,0.39934,0.32446,0.53245,204,1.96341,-0.576,-0.29118,0.20799,5,1U1D,2.0,False,0.326,17,False,right,0.0,0.0008112001232802868,1.9811760000884533,1.980364799965173,0.3896118998527527,0.8893821998499334,0.4997702999971807,
205,0.49917,1.2,2,0.27454,0.4243,0.80699,205,2.21299,-0.576,-0.29118,0.20799,5,2U1D,1.0,True,0.462,13,True,left,0.0,0.0007514003664255142,2.224167499691248,2.2234160993248224,0.26577929966151714,0.7657657996751368,0.49998650001361966,
206,0.49917,0.1,2,0.2995,0.31614,0.63228,206,1.91348,-0.672,-0.33278,0.16639,5,2D1U,2.0,False,2.25,11,False,right,0.0,0.0008074003271758556,1.9239583001472056,1.9231508998200297,0.2901611998677254,0.7901435997337103,0.4999823998659849,
207,0.49917,1.2,2,0.2995,0.25791,0.56573,207,1.79702,-0.648,-0.32446,0.17471,5,1U1D,1.0,True,0.438,17,False,left,0.0,0.000274099875241518,1.8065035999752581,1.8062295001000166,0.28945419983938336,0.7893309998326004,0.499876799993217,
208,0.49917,0.1,2,0.34942,0.37438,0.78204,208,2.2546,-0.504,-0.24959,0.24959,5,2U1D,2.0,False,0.374,14,True,right,0.0,0.0004883003421127796,2.2576721999794245,2.2571838996373117,0.3409199002198875,0.8409529002383351,0.5000330000184476,
209,0.49917,1.2,2,0.3411,0.30782,0.7654,209,2.1714,-0.488,-0.24127,0.25791,5,1D1U,1.0,True,1.165,21,True,left,0.0,0.0007766997441649437,2.1812392002902925,2.1804625005461276,0.33135190000757575,0.8310996000654995,0.4997477000579238,
210,0.49917,0.1,1,0.39102,0.32446,0.64892,210,2.15475,-0.416,-0.20799,0.29118,5,1D1U,2.0,True,0.319,22,True,right,0.0,0.00041770003736019135,2.1652077003382146,2.1647900003008544,1.3231715001165867,1.8235091003589332,0.5003376002423465,
211,0.49917,1.2,1,0.26622,0.22463,0.70716,211,1.82197,-0.744,-0.37438,0.12479,5,2D1U,2.0,True,1.376,11,False,right,0.0,0.0006422996520996094,1.8400053000077605,1.839363000355661,1.0898306001909077,1.5894947000779212,0.49966409988701344,
212,0.49917,0.1,1,0.29118,0.40766,0.71548,212,2.03828,-0.744,-0.37438,0.12479,5,2D1U,2.0,True,0.316,11,False,right,0.0,0.0007624002173542976,2.0475838999263942,2.04682149970904,1.1232961998321116,1.623459900263697,0.5001637004315853,
213,0.49917,1.2,1,0.43262,0.37438,0.49085,213,2.00501,-0.576,-0.29118,0.20799,5,1U1D,2.0,True,0.745,18,True,right,0.0,0.0006637000478804111,1.9973134999163449,1.9966497998684645,1.1225282000377774,1.6229750998318195,0.5004468997940421,
214,0.49917,0.1,1,0.20799,0.27454,0.62396,214,1.81365,-0.576,-0.29118,0.20799,5,2U1D,2.0,True,0.252,15,True,right,0.0,0.0006627999246120453,1.807020400185138,1.806357600260526,1.0320895998738706,1.5327202999033034,0.5006307000294328,
215,0.49917,1.2,1,0.34942,0.41598,0.48253,215,2.07156,-0.344,-0.17471,0.32446,5,1D1U,2.0,True,0.735,22,False,right,0.0,0.0007275003008544445,2.0809390996582806,2.080211599357426,1.1476479000411928,1.6481133997440338,0.500465499702841,
216,0.49917,0.1,1,0.44094,0.40766,0.45757,216,2.01333,-0.576,-0.29118,0.20799,5,2U1D,2.0,True,0.344,15,True,right,0.0,0.0006467001512646675,2.0069213998503983,2.0062746996991336,1.0979531998746097,1.5979375001043081,0.4999843002296984,
217,0.49917,1.2,1,0.40766,0.29118,0.48253,217,1.84693,-0.672,-0.33278,0.16639,5,2D1U,2.0,True,1.49,12,True,right,0.0,0.0007432000711560249,1.840746299829334,1.840003099758178,1.0497638997621834,1.5496228002011776,0.49985890043899417,
218,0.49917,0.1,1,0.39102,0.41598,0.59069,218,2.06325,-0.672,-0.33278,0.16639,5,2D1U,2.0,True,0.369,12,True,right,0.0,0.0007426002994179726,2.0659687002189457,2.0652260999195278,1.1405695001594722,1.640398500021547,0.49982899986207485,
219,0.49917,1.2,1,0.35774,0.35774,0.43262,219,1.89686,-0.504,-0.24959,0.24959,5,1U1D,2.0,True,1.734,18,False,right,0.0,0.0008316999301314354,1.8978395001031458,1.8970078001730144,1.031314400024712,1.5315358000807464,0.5002214000560343,
220,0.49917,0.1,1,0.21631,0.21631,0.49917,220,1.79702,-0.272,-0.13311,0.36606,5,1D1U,2.0,True,0.296,22,False,right,0.0,0.0008282996714115143,1.7985872002318501,1.7977589005604386,1.0730067999102175,1.5732549000531435,0.500248100142926,
221,0.49917,1.2,1,0.33278,0.24127,0.56573,221,1.92181,-0.432,-0.21631,0.28286,5,1U1D,2.0,True,0.433,18,False,right,0.0,0.0005554002709686756,1.931036100257188,1.9304806999862194,1.1731567000970244,1.6729139001108706,0.49975720001384616,
222,0.49917,0.1,1,0.44094,0.36606,0.50749,222,2.06325,-0.504,-0.24959,0.24959,5,2U1D,1.0,False,0.762,16,True,left,0.0,0.0007104999385774136,2.073709800373763,2.0729993004351854,1.190468500368297,1.6904402002692223,0.49997169990092516,
223,0.49917,1.2,1,0.36606,0.24127,0.55741,223,1.8719,-0.576,-0.29118,0.20799,5,2U1D,2.0,True,0.275,17,True,right,0.0,0.000449600163847208,1.8819487998262048,1.8814991996623576,1.1231982996687293,1.623438899870962,0.5002406002022326,
224,0.49917,0.1,1,0.29118,0.21631,0.44925,224,1.85525,-0.2,-0.09983,0.39934,5,1D1U,1.0,False,0.328,22,False,left,0.0,0.0007616998627781868,1.8571357000619173,1.8563740001991391,1.132581999991089,1.6322937002405524,0.4997117002494633,
225,0.49917,1.2,1,0.29118,0.3827,0.54909,225,1.92181,-0.6,-0.2995,0.19967,5,2D1U,1.0,False,2.519,12,False,left,0.0,0.0004183999262750149,1.9394601001404226,1.9390417002141476,1.0304518002085388,1.5307799000293016,0.5003280998207629,
226,0.49917,0.1,1,0.23295,0.3827,0.65724,226,1.98005,-0.576,-0.29118,0.20799,5,2U1D,2.0,True,0.389,17,True,right,0.0,0.00045610032975673676,2.007145999930799,2.0066898996010423,1.0910447998903692,1.5907620997168124,0.4997172998264432,
227,0.49917,1.2,1,0.41598,0.32446,0.73212,227,2.13812,-0.672,-0.33278,0.16639,5,2D1U,1.0,False,1.344,13,True,left,0.0,0.0007806001231074333,2.141432899981737,2.1406522998586297,1.307494199834764,1.8076543998904526,0.5001602000556886,
228,0.49917,0.1,1,0.2995,0.23295,0.41598,228,1.76374,-0.36,-0.18303,0.31614,5,1U1D,2.0,True,1.456,18,False,right,0.0,0.000772200059145689,1.7817116999067366,1.780939499847591,1.0234300000593066,1.5229468001052737,0.4995168000459671,
229,0.49917,1.2,1,0.24959,0.4243,0.64892,229,2.18804,-0.272,-0.13311,0.36606,5,1D1U,2.0,True,0.375,23,True,right,0.0,0.0008681998588144779,2.182161600328982,2.1812934004701674,1.2567134001292288,1.7572798002511263,0.5005664001218975,
230,0.49917,0.1,1,0.30782,0.25791,0.53245,230,1.84694,-0.504,-0.24959,0.24959,5,2U1D,2.0,True,0.487,18,True,right,0.0,0.000591999851167202,1.848332699853927,1.8477407000027597,1.0819179001264274,1.5816873000003397,0.49976939987391233,
231,0.49917,1.2,1,0.34942,0.31614,0.87355,231,2.28787,-0.504,-0.24959,0.24959,5,2U1D,1.0,False,1.707,18,True,left,0.0,0.0007285000756382942,2.2818553000688553,2.281126799993217,1.4648957001045346,1.9648831002414227,0.499987400136888,
232,0.49917,0.1,1,0.36606,0.4243,0.86523,232,2.36275,-0.576,-0.29118,0.20799,5,2U1D,2.0,True,0.328,19,True,right,0.0,0.0005152998492121696,2.3565620998851955,2.3560468000359833,1.4313067002221942,1.9315885999239981,0.5002818997018039,
233,0.49917,1.2,1,0.44925,0.3411,0.80699,233,2.45425,-0.288,-0.14143,0.35774,5,1U1D,2.0,True,0.971,18,False,right,0.0,0.0006968998350203037,2.4650237997993827,2.4643268999643624,1.6064845002256334,2.106732999905944,0.5002484996803105,
234,0.49917,0.1,1,0.3411,0.23295,0.87355,234,2.07156,-0.744,-0.37438,0.12479,5,2D1U,2.0,True,0.54,13,False,right,0.0,0.0007186997681856155,2.0822521997615695,2.081533499993384,1.332079699728638,1.8322089998982847,0.5001293001696467,
235,0.49917,1.2,1,0.20799,0.22463,0.49917,235,1.8303,-0.2,-0.09983,0.39934,5,1D1U,2.0,True,1.301,24,True,right,0.0,0.0002899002283811569,1.8311377000063658,1.8308477997779846,1.0983251999132335,1.5975401997566223,0.4992149998433888,
236,0.49917,0.1,1,0.43262,0.23295,0.46589,236,1.75542,-0.744,-0.37438,0.12479,5,2D1U,1.0,False,2.69,13,False,left,0.0,0.0007378999143838882,1.7566760000772774,1.7559381001628935,1.0149284000508487,1.5149977998808026,0.5000693998299539,
237,0.49917,1.2,1,0.3411,0.35774,0.55741,237,1.84693,-0.816,-0.40766,0.09151,5,2D1U,1.0,False,2.383,13,False,left,0.0,0.0002470999024808407,1.8408471001312137,1.8406000002287328,0.9828595998696983,1.4826609999872744,0.4998014001175761,
238,0.49917,0.1,1,0.29118,0.35774,0.62396,238,2.16307,-0.216,-0.10815,0.39102,5,1U1D,1.0,False,0.236,18,False,left,0.0,0.0007796999998390675,2.1741073997691274,2.1733276997692883,1.2993512996472418,1.7991042998619378,0.49975300021469593,
239,0.49917,1.2,1,0.44094,0.27454,0.66556,239,2.0882,-0.576,-0.29118,0.20799,5,2U1D,2.0,True,0.247,19,True,right,0.0,0.0008335001766681671,2.0887277997098863,2.087894299533218,1.3051414997316897,1.8056085999123752,0.5004671001806855,
240,0.49917,0.1,2,0.21631,0.2995,0.82363,240,2.27123,-0.128,-0.06656,0.43262,5,1D1U,2.0,False,0.366,24,False,right,0.0,0.0007569999434053898,2.2739845998585224,2.273227599915117,0.20706859976053238,0.7071027001366019,0.5000341003760695,
241,0.49917,1.2,2,0.41598,0.21631,0.84859,241,2.33779,-0.288,-0.14143,0.35774,5,1U1D,1.0,True,2.591,19,True,left,0.0,0.0007244995795190334,2.3565619001165032,2.355837400536984,0.40654930006712675,0.9060861999168992,0.49953689984977245,
242,0.49917,0.1,2,0.44094,0.2995,0.71548,242,2.35443,-0.2,-0.09983,0.39934,5,1D1U,2.0,False,0.55,25,True,right,0.0,0.0007335999980568886,2.355870199855417,2.35513659985736,0.4313393998891115,0.9315673001110554,0.5002279002219439,
243,0.49917,1.2,2,0.4243,0.28286,0.66556,243,1.93013,-0.888,-0.44094,0.05824,5,2D1U,1.0,True,0.299,13,False,left,0.0,0.0007047001272439957,1.9312895997427404,1.9305848996154964,0.4146750997751951,0.9147553998045623,0.5000803000293672,
244,0.49917,0.1,2,0.39934,0.24127,0.45757,244,1.65559,-0.888,-0.44094,0.05824,5,2D1U,1.0,True,0.575,13,False,left,0.0,0.0006548999808728695,1.6660755998454988,1.665420699864626,0.390926499851048,0.8909612996503711,0.5000347997993231,
245,0.49917,1.2,2,0.43262,0.41598,0.79867,245,2.39603,-0.504,-0.24959,0.24959,5,2U1D,2.0,False,1.878,20,True,right,0.0,0.0008386000990867615,2.4148570001125336,2.414018400013447,0.42328570038080215,0.9230807004496455,0.49979500006884336,
246,0.49917,0.1,2,0.40766,0.28286,0.59069,246,1.87189,-0.816,-0.40766,0.09151,5,2D1U,1.0,True,0.478,14,True,left,0.0,0.000668100081384182,1.8813364002853632,1.880668300203979,0.39829650009050965,0.8976572002284229,0.4993607001379132,
247,0.49917,1.2,2,0.44925,0.20799,0.81531,247,2.17971,-0.576,-0.29118,0.20799,5,2U1D,2.0,False,1.339,21,True,right,0.0,0.000457600224763155,2.187863999977708,2.1874063997529447,0.43781560007482767,0.9378186999820173,0.5000030999071896,
248,0.49917,0.1,2,0.24959,0.3827,0.82363,248,2.32115,-0.272,-0.13311,0.36606,5,1D1U,2.0,False,0.208,25,False,right,0.0,0.0006062001921236515,2.3317300998605788,2.331123899668455,0.2400328000076115,0.7397133996710181,0.4996805996634066,
249,0.49917,1.2,2,0.2995,0.44094,0.57405,249,2.20468,-0.216,-0.10815,0.39102,5,1U1D,1.0,True,0.434,20,True,left,0.0,0.000449600163847208,2.2154990998096764,2.215049499645829,0.2902959999628365,0.7904161997139454,0.5001201997511089,
250,0.49917,0.1,2,0.24959,0.40766,0.41598,250,1.66391,-0.816,-0.40766,0.09151,5,2D1U,1.0,True,0.458,14,True,left,0.0,0.0008375998586416245,1.6724506001919508,1.6716130003333092,0.23965700017288327,0.7398270000703633,0.50016999989748,
251,0.49917,1.2,2,0.31614,0.39102,0.69884,251,2.02996,-0.744,-0.37438,0.12479,5,2D1U,1.0,True,0.347,14,False,left,0.0,0.0008830996230244637,2.024271599948406,2.0233885003253818,0.30766439996659756,0.8074591001495719,0.49979470018297434,
252,0.49917,0.1,2,0.4243,0.3411,0.65724,252,2.09652,-0.648,-0.32446,0.17471,5,2U1D,1.0,True,1.005,21,False,left,0.0,0.0007744999602437019,2.1148473997600377,2.114072899799794,0.414326099678874,0.9147199997678399,0.5003939000889659,
253,0.49917,1.2,2,0.37438,0.28286,0.59901,253,1.93013,-0.648,-0.32446,0.17471,5,2U1D,1.0,True,0.423,21,False,left,0.0,0.0007114000618457794,1.9411022998392582,1.9403908997774124,0.366644199937582,0.8668419998139143,0.5001977998763323,
254,0.49917,0.1,2,0.44094,0.33278,0.69052,254,2.28787,-0.344,-0.17471,0.32446,5,1D1U,2.0,False,0.277,25,False,right,0.0,0.0007563997060060501,2.289332800079137,2.288576400373131,0.4316324000246823,0.9320288999006152,0.5003964998759329,
255,0.49917,1.2,2,0.39934,0.33278,0.56573,255,2.22132,-0.144,-0.07488,0.4243,5,1U1D,2.0,False,0.366,20,False,right,0.0,0.0008522002026438713,2.2056247000582516,2.2047724998556077,0.3973128003999591,0.8965485002845526,0.4992356998845935,
256,0.49917,0.1,2,0.43262,0.44925,0.4243,256,2.09652,-0.416,-0.20799,0.29118,5,1D1U,1.0,True,0.746,25,False,left,0.0,0.0007281997241079807,2.1070285998284817,2.1063004001043737,0.42353849997743964,0.9235069998539984,0.4999684998765588,
257,0.49917,1.2,2,0.35774,0.24959,0.48253,257,1.91349,-0.344,-0.17471,0.32446,5,1D1U,2.0,False,2.169,26,True,right,0.0,0.0007835002616047859,1.9236722998321056,1.9228887995705009,0.3483783998526633,0.8485261998139322,0.5001477999612689,
258,0.49917,0.1,2,0.43262,0.29118,0.41598,258,1.84694,-0.576,-0.29118,0.20799,5,2U1D,1.0,True,0.256,22,True,left,0.0,0.0005813003517687321,1.8573245997540653,1.8567432994022965,0.42387419985607266,0.9237522999756038,0.49987810011953115,
259,0.49917,1.2,2,0.23295,0.2995,0.49917,259,1.92181,-0.216,-0.10815,0.39102,5,1U1D,1.0,True,1.101,21,True,left,0.0,0.00038559967651963234,1.9323781998828053,1.9319926002062857,0.22434760024771094,0.7239247001707554,0.49957709992304444,
260,0.49917,0.1,2,0.22463,0.3827,0.78204,260,2.01333,-0.744,-0.37438,0.12479,5,2D1U,1.0,True,0.747,14,False,left,0.0,0.0005819001235067844,2.024002400226891,2.0234205001033843,0.21561160031706095,0.7155347000807524,0.4999230997636914,
261,0.49917,1.2,2,0.24959,0.32446,0.59069,261,1.8303,-0.672,-0.33278,0.16639,5,2D1U,1.0,True,0.559,14,False,left,0.0,0.0008093998767435551,1.839352599810809,1.8385431999340653,0.23953069979324937,0.7393381996080279,0.49980749981477857,
262,0.49917,0.1,2,0.37438,0.28286,0.46589,262,2.0466,-0.144,-0.07488,0.4243,5,1U1D,2.0,False,0.383,22,True,right,0.0,0.0006642001681029797,2.033600399736315,2.032936199568212,0.36675669997930527,0.8662697998806834,0.49951309990137815,
263,0.49917,1.2,2,0.39934,0.3827,0.75708,263,2.24628,-0.576,-0.29118,0.20799,5,2U1D,1.0,True,1.569,22,True,left,0.0,0.0007632998749613762,2.249446399975568,2.2486831001006067,0.39063739962875843,0.8907766998745501,0.5001393002457917,
264,0.49917,0.1,2,0.43262,0.44925,0.6822,264,2.35442,-0.416,-0.20799,0.29118,5,1D1U,2.0,False,0.477,27,True,right,0.0,0.000749299768358469,2.358029100112617,2.3572798003442585,0.42453370010480285,0.924424999859184,0.4998912997543812,
265,0.49917,1.2,2,0.24127,0.24959,0.87355,265,2.12149,-0.488,-0.24127,0.25791,5,1D1U,1.0,True,0.841,27,False,left,0.0,0.0007699998095631599,2.132751500234008,2.1319815004244447,0.23271419992670417,0.7326032998971641,0.49988909997045994,
266,0.49917,0.1,2,0.39934,0.34942,0.6822,266,2.22131,-0.416,-0.20799,0.29118,5,1D1U,2.0,False,0.343,28,True,right,0.0,0.0007382002659142017,2.223115499597043,2.2223772993311286,0.38943269988521934,0.8896494996733963,0.500216799788177,
267,0.49917,1.2,2,0.30782,0.29118,0.83195,267,2.17971,-0.504,-0.24959,0.24959,5,2U1D,1.0,True,0.473,22,False,left,0.0,0.00043400004506111145,2.1984747000969946,2.1980407000519335,0.2984708999283612,0.7984539000317454,0.49998300010338426,
268,0.49917,0.1,2,0.40766,0.37438,0.43262,268,1.88022,-0.672,-0.33278,0.16639,5,2D1U,2.0,False,1.3,14,False,right,0.0,0.0007738000713288784,1.8899186002090573,1.8891448001377285,0.3983771000057459,0.8981706001795828,0.49979350017383695,
269,0.49917,1.2,2,0.40766,0.31614,0.79036,269,2.40435,-0.216,-0.10815,0.39102,5,1U1D,2.0,False,0.331,23,True,right,0.0,0.0006416002288460732,2.3986526001244783,2.3980109998956323,0.3987759002484381,0.8986173998564482,0.49984149960801005,
270,0.49917,0.1,1,0.24127,0.4243,0.49085,270,2.01333,-0.288,-0.14143,0.35774,5,1U1D,2.0,True,0.274,23,False,right,0.0,0.0008298000320792198,2.02296489989385,2.022135099861771,1.0814511999487877,1.581601900048554,0.5001507000997663,
271,0.49917,1.2,1,0.3411,0.2995,0.4243,271,1.68886,-0.744,-0.37438,0.12479,5,2D1U,2.0,True,0.31,15,True,right,0.0,0.0007107001729309559,1.690952300094068,1.690241599921137,0.8824309003539383,1.3826386001892388,0.5002076998353004,
272,0.49917,0.1,1,0.29118,0.43262,0.71548,272,2.32947,-0.216,-0.10815,0.39102,5,1U1D,2.0,True,0.806,24,True,right,0.0,0.00029159989207983017,2.3229522998444736,2.3226606999523938,1.3895548000000417,1.8900828999467194,0.5005280999466777,
273,0.49917,1.2,1,0.30782,0.34942,0.44925,273,1.85525,-0.504,-0.24959,0.24959,5,2U1D,1.0,False,0.835,22,False,left,0.0,0.0014649000950157642,1.8661382002756,1.8646733001805842,0.9994207001291215,1.4990150001831353,0.49959430005401373,
274,0.49917,0.1,1,0.44094,0.23295,0.86523,274,2.2962,-0.488,-0.24127,0.25791,5,1D1U,2.0,True,1.11,29,True,right,0.0,0.0007110000587999821,2.29806030029431,2.29734930023551,1.5567999999038875,2.056561800185591,0.49976180028170347,
275,0.49917,1.2,1,0.26622,0.24959,0.58237,275,1.88853,-0.416,-0.20799,0.29118,5,1D1U,1.0,False,1.991,30,True,left,0.0,0.0003037001006305218,1.8899556999094784,1.889651999808848,1.1318585998378694,1.6320493002422154,0.500190700404346,
276,0.49917,0.1,1,0.39934,0.3411,0.44094,276,1.88854,-0.576,-0.29118,0.20799,5,2U1D,2.0,True,0.292,23,True,right,0.0,0.000982899684458971,1.8896170002408326,1.8886341005563736,1.039417200256139,1.5399775998666883,0.5005603996105492,
277,0.49917,1.2,1,0.25791,0.4243,0.53245,277,1.83862,-0.744,-0.37438,0.12479,5,2D1U,1.0,False,1.956,15,True,left,0.0,0.0002696998417377472,1.8400151999667287,1.839745500124991,0.9060032996349037,1.406465099658817,0.5004618000239134,
278,0.49917,0.1,1,0.3827,0.36606,0.84859,278,2.18803,-0.816,-0.40766,0.09151,5,2D1U,2.0,True,0.387,15,False,right,0.0,0.00046999985352158546,2.1887699998915195,2.188300000037998,1.3132674000225961,1.813814700115472,0.500547300092876,
279,0.49917,1.2,1,0.22463,0.44094,0.64892,279,2.23796,-0.144,-0.07488,0.4243,5,1U1D,1.0,False,0.379,24,False,left,0.0,0.0006782002747058868,2.2489527999423444,2.2482745996676385,1.2901432001963258,1.7901495001278818,0.500006299931556,
280,0.49917,0.1,1,0.39102,0.24127,0.89019,280,2.27956,-0.488,-0.24127,0.25791,5,1D1U,2.0,True,0.843,31,True,right,0.0,0.000613899901509285,2.2889881003648043,2.288374200463295,1.5306665999814868,2.0309566003270447,0.5002900003455579,
281,0.49917,1.2,1,0.28286,0.41598,0.53245,281,2.12148,-0.216,-0.10815,0.39102,5,1U1D,2.0,True,0.297,25,True,right,0.0,0.0006128000095486641,2.1328773996792734,2.1322645996697247,1.1999617996625602,1.6994643998332322,0.49950260017067194,
282,0.49917,0.1,1,0.39102,0.39102,0.50749,282,2.07988,-0.416,-0.20799,0.29118,5,1D1U,2.0,True,1.926,32,True,right,0.0,0.0005475999787449837,2.0817742999643087,2.0812266999855638,1.1814683000557125,1.6818209998309612,0.5003526997752488,
283,0.49917,1.2,1,0.2995,0.30782,0.74044,283,1.93844,-0.816,-0.40766,0.09151,5,2D1U,2.0,True,1.557,15,False,right,0.0,0.0007588998414576054,1.9482947001233697,1.947535800281912,1.1233548000454903,1.6232749000191689,0.4999200999736786,
284,0.49917,0.1,1,0.3827,0.30782,0.79036,284,2.18804,-0.576,-0.29118,0.20799,5,2U1D,1.0,False,1.765,23,True,left,0.0,0.0006443997845053673,2.189665900077671,2.1890215002931654,1.372905799653381,1.8727015000768006,0.4997957004234195,
285,0.49917,1.2,1,0.41598,0.35774,0.45757,285,1.90517,-0.648,-0.32446,0.17471,5,2U1D,2.0,True,0.292,23,False,right,0.0,0.0005793999880552292,1.897995499894023,1.8974160999059677,1.0390935000032187,1.5396770001389086,0.50058350013569,
286,0.49917,0.1,1,0.44925,0.26622,0.82363,286,2.16306,-0.744,-0.37438,0.12479,5,2D1U,2.0,True,0.258,16,True,right,0.0,0.0006344998255372047,2.1647128998301923,2.164078400004655,1.3900607996620238,1.8900254997424781,0.49996470008045435,
287,0.49917,1.2,1,0.33278,0.44094,0.78204,287,2.37939,-0.344,-0.17471,0.32446,5,1D1U,2.0,True,0.512,32,False,right,0.0,0.0008008996956050396,2.380838700104505,2.3800378004089,1.4395753000862896,1.9391665998846292,0.4995912997983396,
288,0.49917,0.1,1,0.22463,0.22463,0.58237,288,1.89686,-0.272,-0.13311,0.36606,5,1D1U,1.0,False,0.384,32,False,left,0.0,0.0007143998518586159,1.8984185997396708,1.8977041998878121,1.1651948997750878,1.6649217000231147,0.49972680024802685,
289,0.49917,1.2,1,0.26622,0.20799,0.41598,289,1.56407,-0.648,-0.32446,0.17471,5,2U1D,1.0,False,0.426,23,False,left,0.0,0.00063699996098876,1.5732444999739528,1.572607500012964,0.8475548001006246,1.3474019998684525,0.499847199767828,
290,0.49917,0.1,1,0.4243,0.39934,0.70716,290,2.45427,-0.144,-0.07488,0.4243,5,1U1D,1.0,False,0.472,26,True,left,0.0,0.0007138000801205635,2.4636499998159707,2.46293619973585,1.547434600070119,2.0463776998221874,0.4989430997520685,
291,0.49917,1.2,1,0.22463,0.26622,0.47421,291,1.85525,-0.216,-0.10815,0.39102,5,1U1D,1.0,False,0.65,27,True,left,0.0,0.0006094998680055141,1.8640028000809252,1.8633933002129197,1.0809470997191966,1.5807464998215437,0.49979940010234714,
292,0.49917,0.1,1,0.22463,0.21631,0.55741,292,1.85526,-0.288,-0.14143,0.35774,5,1U1D,1.0,False,0.385,27,False,left,0.0,0.0003172997385263443,1.8560003996826708,1.8556830999441445,1.130449399817735,1.6309520998038352,0.5005026999861002,
293,0.49917,1.2,1,0.24127,0.31614,0.41598,293,1.79702,-0.344,-0.17471,0.32446,5,1D1U,1.0,False,0.799,33,True,left,0.0,0.0002597002312541008,1.8163809003308415,1.8161212000995874,0.974089200142771,1.4747411999851465,0.5006519998423755,
294,0.49917,0.1,1,0.44925,0.39102,0.87355,294,2.33778,-0.744,-0.37438,0.12479,5,2D1U,2.0,True,0.466,16,True,right,0.0,0.0006956001743674278,2.3495223000645638,2.3488266998901963,1.4409329001791775,1.9402816002257168,0.4993487000465393,
295,0.49917,1.2,1,0.36606,0.21631,0.52413,295,1.7471,-0.72,-0.35774,0.14143,5,2U1D,2.0,True,0.918,23,False,right,0.0,0.0007639001123607159,1.7568493001163006,1.7560854000039399,1.023208700120449,1.5230252002365887,0.49981650011613965,
296,0.49917,0.1,1,0.2995,0.39102,0.50749,296,1.83861,-0.72,-0.35774,0.14143,5,2U1D,2.0,True,0.781,23,False,right,0.0,0.0006413999944925308,1.8486712998710573,1.8480298998765647,0.9407653999514878,1.4406722001731396,0.4999068002216518,
297,0.49917,1.2,1,0.44094,0.2995,0.74876,297,2.16308,-0.648,-0.32446,0.17471,5,2U1D,2.0,True,0.737,24,True,right,0.0,0.0008334997110068798,2.1641688998788595,2.1633354001678526,1.355687300208956,1.8556148000061512,0.4999274997971952,
298,0.49917,0.1,1,0.24959,0.34942,0.47421,298,1.88853,-0.36,-0.18303,0.31614,5,1U1D,2.0,True,1.821,27,False,right,0.0,0.000735200010240078,1.8898559999652207,1.8891207999549806,1.031716000288725,1.5315972003154457,0.49988120002672076,
299,0.49917,1.2,1,0.20799,0.36606,0.77372,299,2.01333,-0.672,-0.33278,0.16639,5,2D1U,2.0,True,1.121,16,False,right,0.0,0.0007000998593866825,2.016915400046855,2.0162153001874685,1.141677400097251,1.6413421998731792,0.49966479977592826,
300,0.49917,0.1,2,0.25791,0.30782,0.48253,300,1.72214,-0.648,-0.32446,0.17471,5,2U1D,1.0,True,0.342,24,True,left,0.0,0.0007555000483989716,1.739559100009501,1.738803599961102,0.2481085998006165,0.7482868996448815,0.500178299844265,
301,0.49917,1.2,2,0.3411,0.3411,0.7238,301,2.26291,-0.288,-0.14143,0.35774,5,1U1D,2.0,False,0.524,28,True,right,0.0,0.0007528997957706451,2.256175300106406,2.2554224003106356,0.33108279993757606,0.8311858000233769,0.5001030000858009,
302,0.49917,0.1,2,0.44094,0.44925,0.41598,302,2.12148,-0.36,-0.18303,0.31614,5,1U1D,2.0,False,0.709,29,True,right,0.0,0.0007202001288533211,2.140794300008565,2.140074099879712,0.4322107001207769,0.9326169998385012,0.5004062997177243,
303,0.49917,1.2,2,0.43262,0.39934,0.43262,303,2.04661,-0.432,-0.21631,0.28286,5,1U1D,1.0,True,0.291,29,False,left,0.0,0.00110140023753047,2.0563651002012193,2.055263699963689,0.42337780026718974,0.9232862000353634,0.4999083997681737,
304,0.49917,0.1,2,0.41598,0.19967,0.58237,304,2.01333,-0.36,-0.18303,0.31614,5,1U1D,2.0,False,0.342,30,True,right,0.0,0.0007385001517832279,2.0238451999612153,2.023106699809432,0.40715699968859553,0.9069240996614099,0.4997670999728143,
305,0.49917,1.2,2,0.40766,0.33278,0.55741,305,2.07988,-0.432,-0.21631,0.28286,5,1U1D,1.0,True,0.412,31,True,left,0.0,0.0008109998889267445,2.098499800078571,2.097688800189644,0.39847159991040826,0.8977659000083804,0.49929430009797215,
306,0.49917,0.1,2,0.39102,0.39102,0.79036,306,2.38771,-0.36,-0.18303,0.31614,5,1U1D,2.0,False,0.273,32,True,right,0.0,0.000606900081038475,2.3909301003441215,2.390323200263083,0.3824330000206828,0.8819031999446452,0.49947019992396235,
307,0.49917,1.2,2,0.31614,0.21631,0.74876,307,2.06324,-0.432,-0.21631,0.28286,5,1U1D,1.0,True,0.802,33,True,left,0.0,0.0007072002626955509,2.065193500369787,2.0644863001070917,0.3069291999563575,0.8067705002613366,0.4998413003049791,
308,0.49917,0.1,2,0.20799,0.35774,0.59069,308,1.97173,-0.36,-0.18303,0.31614,5,1U1D,2.0,False,0.521,34,True,right,0.0,0.0007066000252962112,1.9801946999505162,1.97948809992522,0.1971559999510646,0.6971431002020836,0.499987100251019,
