,standardDur,audNoise,order,preDur,postDur,isiDur,trial_num,totalDur,delta_dur_percents,deltaDurS,testDurS,intensities,current_stair,responses,is_correct,response_rts,stair_num_reversal,stair_is_reversal,response_keys,conflictDur,recordedOnsetAudioTest,recordedOffsetAudioTest,recordedDurAudioTest,recordedOnsetVisualStandard,recordedOffsetVisualStandard,recordedDurVisualStandard,modalityPostCueTest
0,0.49942,1.2,1,0.3163,0.41618,0.53271,0,1.86449,-0.8,-0.39954,0.09988,5,2U1D,2.0,True,1.813,0,False,right,0.0,0.0007950998842716217,1.8749769001733512,1.8741818002890795,0.9415394000243396,1.4412963001523167,0.49975690012797713,
1,0.49942,0.1,1,0.34127,0.19977,0.72416,1,1.81456,-0.9,-0.44948,0.04994,5,lapse_rate,2.0,True,0.535,0,False,right,0.0,0.000860600033774972,1.8163361002225429,1.815475500188768,1.108000700129196,1.6080908000003546,0.5000900998711586,
2,0.49942,0.1,2,0.22474,0.37456,0.39954,2,2.39722,0.8,0.39954,0.89896,5,2D1U,2.0,True,0.564,0,False,right,0.0,0.00026890006847679615,2.408759899903089,2.408490999834612,0.21665079984813929,0.7168752998113632,0.5002244999632239,
3,0.49942,1.2,1,0.20809,0.3163,0.73248,3,1.85617,-0.8,-0.39954,0.09988,5,1U1D,2.0,True,1.958,0,False,right,0.0,0.0006995999719947577,1.8580277999863029,1.857328200014308,1.0333241999614984,1.5336647999938577,0.5003406000323594,
4,0.49942,0.1,1,0.41618,0.42451,0.48277,4,1.92276,-0.8,-0.39954,0.09988,5,2U1D,2.0,True,1.103,0,False,right,0.0,0.0007418999448418617,1.9255179001484066,1.9247760002035648,0.9919528001919389,1.4924979000352323,0.5005450998432934,
5,0.49942,0.1,2,0.32462,0.30798,0.54104,5,2.62196,0.9,0.44948,0.9489,5,lapse_rate,2.0,True,0.581,0,False,right,0.0,0.0007488999981433153,2.616666200105101,2.6159173001069576,0.31665770011022687,0.8166853999719024,0.5000276998616755,
6,0.49942,1.2,2,0.23306,0.29965,0.47445,6,2.40554,0.8,0.39954,0.89896,5,1D1U,1.0,False,4.706,0,False,left,0.0,0.0007966000121086836,2.4076607001479715,2.406864100135863,0.2243288999889046,0.724390699993819,0.5000618000049144,
7,0.49942,0.1,2,0.25803,0.38289,0.50774,7,1.84785,-0.6,-0.29965,0.19977,5,1U1D,1.0,True,0.625,0,False,left,0.0,0.0007831000257283449,1.8330774998757988,1.8322943998500705,0.24976469995453954,0.749531599925831,0.4997668999712914,
8,0.49942,0.1,2,0.26636,0.30798,0.73248,8,1.85618,-0.9,-0.44948,0.04994,5,lapse_rate,1.0,True,1.022,0,False,left,0.0,0.0004933001473546028,1.866207899991423,1.8657145998440683,0.2579610999673605,0.7579488998744637,0.4999877999071032,
9,0.49942,1.2,2,0.39954,0.27468,0.59098,9,2.76346,1.0,0.49942,0.99884,5,1D1U,2.0,True,1.796,0,False,right,0.0,0.0010251000057905912,2.764980399981141,2.7639552999753505,0.3900816000532359,0.890089699998498,0.5000080999452621,
10,0.49942,0.1,2,0.283,0.39121,0.4911,10,1.8645,-0.6,-0.29965,0.19977,5,2U1D,1.0,True,2.257,0,False,left,0.0,0.0008648999501019716,1.874941400019452,1.87407650006935,0.2749862999189645,0.7750238000880927,0.5000375001691282,
11,0.49942,1.2,2,0.29133,0.20809,0.83237,11,2.73017,0.8,0.39954,0.89896,5,2D1U,2.0,True,1.534,0,False,right,0.0,0.0010400000028312206,2.7245833000633866,2.7235433000605553,0.28337269998155534,0.7829374999273568,0.4995647999458015,
12,0.49942,0.1,1,0.27468,0.29965,0.62427,12,2.49709,0.6,0.29965,0.79907,5,2D1U,1.0,True,0.506,0,False,left,0.0,0.0002935000229626894,2.5078515999484807,2.507558099925518,1.6910841998178512,2.191159499809146,0.5000752999912947,
13,0.49942,1.2,2,0.39121,0.26636,0.61595,13,2.71351,0.88,0.44115,0.94057,5,1D1U,2.0,True,4.717,1,True,right,0.0,0.0008313001599162817,2.7312744001392275,2.7304430999793112,0.38156180013902485,0.8812824001070112,0.49972059996798635,
14,0.49942,0.1,1,0.26636,0.19977,0.66589,14,1.93109,-0.4,-0.19977,0.29965,5,1U1D,1.0,False,38.852,0,False,left,0.0,0.0008025001734495163,1.9332178998738527,1.9324153997004032,1.2244913999456912,1.7248708000406623,0.5003794000949711,
15,0.49942,1.2,1,0.40786,0.33295,0.62427,15,1.91444,-0.9,-0.44948,0.04994,5,lapse_rate,2.0,True,3.062,0,False,right,0.0,0.0008100001141428947,1.9251278000883758,1.924317799974233,1.0752115999348462,1.5751241000834852,0.4999125001486391,
16,0.49942,1.2,1,0.42451,0.29965,0.87398,16,2.29733,-0.6,-0.29965,0.19977,5,2U1D,2.0,True,4.198,0,False,right,0.0,0.0007660000119358301,2.290945000015199,2.2901790000032634,1.4915960000362247,1.99169519986026,0.5000991998240352,
17,0.49942,0.1,2,0.24139,0.33295,0.62427,17,2.58034,0.76,0.38289,0.88231,5,1D1U,2.0,True,1.417,1,False,right,0.0,0.000762399984523654,2.5905188999604434,2.5897564999759197,0.23252620012499392,0.7324149000924081,0.49988869996741414,
18,0.49942,1.2,1,0.25803,0.29133,0.65757,18,1.94774,-0.52,-0.25803,0.24139,5,1U1D,2.0,True,2.907,1,True,right,0.0,0.0003038998693227768,1.948298699920997,1.9479948000516742,1.1482307000551373,1.6480324999429286,0.4998017998877913,
19,0.49942,0.1,2,0.24139,0.30798,0.4911,19,1.83954,-0.4,-0.19977,0.29965,5,2U1D,1.0,True,11.25,0,False,left,0.0,0.0007754000835120678,1.8495821999385953,1.8488067998550832,0.2328981999307871,0.7332261998672038,0.5003279999364167,
20,0.49942,1.2,2,0.35792,0.33295,0.58266,20,2.72185,0.9,0.44948,0.9489,5,lapse_rate,1.0,False,55.901,0,False,left,0.0,0.0003728000447154045,2.716473500011489,2.7161006999667734,0.34983909991569817,0.849437499884516,0.49959839996881783,
21,0.49942,1.2,2,0.44115,0.27468,0.6326,21,2.64692,0.6,0.29965,0.79907,5,2D1U,1.0,False,1.507,0,False,left,0.0,0.0007933999877423048,2.6487348000518978,2.6479414000641555,0.43220050004310906,0.932360100094229,0.5001596000511199,
22,0.49942,0.1,2,0.21642,0.27468,0.67422,22,2.48878,0.64,0.3163,0.82404,5,1D1U,2.0,True,0.646,1,False,right,0.0,0.0008020999375730753,2.4910929000470787,2.4902908001095057,0.20784600009210408,0.7077218000777066,0.4998757999856025,
23,0.49942,1.2,2,0.33295,0.30798,0.81572,23,2.23075,-0.448,-0.22474,0.27468,5,1U1D,1.0,True,0.782,2,True,left,0.0,0.0006876999977976084,2.232963199960068,2.2322754999622703,0.32483839988708496,0.8246612998191267,0.49982289993204176,
24,0.49942,0.1,2,0.32462,0.29965,0.59098,24,2.01432,-0.4,-0.19977,0.29965,5,2U1D,1.0,True,0.461,0,False,left,0.0,0.0009392998181283474,2.0250075000803918,2.0240682002622634,0.31650549988262355,0.8166048999410123,0.5000994000583887,
25,0.49942,0.1,2,0.25803,0.39954,0.56601,25,2.6719,0.9,0.44948,0.9489,5,lapse_rate,2.0,True,0.352,0,False,right,0.0,0.000838699983432889,2.6815951999742538,2.680756499990821,0.24824540014378726,0.7486072999890894,0.5003618998453021,
26,0.49942,1.2,2,0.36624,0.34959,0.61595,26,2.68854,0.72,0.35792,0.85734,5,2D1U,1.0,False,0.923,1,True,left,0.0,0.0010356998536735773,2.6908956000115722,2.6898599001578987,0.35748240002430975,0.8575069999787956,0.5000245999544859,
27,0.49942,0.1,1,0.29133,0.34959,0.76578,27,2.66357,0.52,0.25803,0.75745,5,1D1U,1.0,True,1.631,1,False,left,0.0,0.00170519994571805,2.665553499944508,2.66384829999879,1.8072831998579204,2.309287399984896,0.5020042001269758,
28,0.49942,1.2,1,0.39121,0.24139,0.69086,28,2.22242,-0.2,-0.09988,0.39954,5,2U1D,2.0,True,1.733,0,False,right,0.0,0.0008302000351250172,2.2236254001036286,2.2227952000685036,1.4736065999604762,1.9735489001031965,0.49994230014272034,
29,0.49942,0.1,2,0.29965,0.24971,0.87398,29,2.23074,-0.376,-0.19144,0.30798,5,1U1D,1.0,True,0.339,2,False,left,0.0,0.0008543001022189856,2.242171199992299,2.24131689989008,0.29200950008817017,0.7920750000048429,0.5000654999166727,
30,0.49942,1.2,2,0.3163,0.3163,0.61595,30,2.69687,0.9,0.44948,0.9489,5,lapse_rate,2.0,True,1.181,0,False,right,0.0,0.0008793000597506762,2.7082667001523077,2.707387400092557,0.3083160000387579,0.8083154000341892,0.4999993999954313,
31,0.49942,1.2,1,0.32462,0.40786,0.64925,31,2.80508,0.84,0.41618,0.92393,5,2D1U,1.0,True,0.356,1,False,left,0.0,0.0010124000255018473,2.8000320000573993,2.7990196000318974,1.8917264000046998,2.391818900126964,0.500092500122264,
32,0.49942,0.1,1,0.40786,0.34127,0.72416,32,2.89664,0.84,0.41618,0.92393,5,2D1U,1.0,True,0.743,1,False,left,0.0,0.0010941000655293465,2.914307199884206,2.9132130998186767,2.047879699850455,2.547452799975872,0.4995731001254171,
33,0.49942,0.1,1,0.30798,0.44115,0.43283,33,2.63028,0.9,0.44948,0.9489,5,lapse_rate,1.0,True,0.297,0,False,left,0.0,0.0008103000000119209,2.63983520003967,2.639024900039658,1.6812485998962075,2.1812670999206603,0.5000185000244528,
34,0.49942,1.2,2,0.37456,0.32462,0.65757,34,2.55536,0.4,0.19977,0.69919,5,1D1U,1.0,False,0.602,1,False,left,0.0,0.0008684999775141478,2.5583329999353737,2.5574644999578595,0.3666443000547588,0.8663679000455886,0.4997235999908298,
35,0.49942,0.1,2,0.22474,0.36624,0.59098,35,2.03097,-0.304,-0.14983,0.34959,5,1U1D,1.0,True,0.825,2,False,left,0.0,0.0007857000455260277,2.023399699945003,2.0226139998994768,0.21531759994104505,0.7151723999995738,0.4998548000585288,
36,0.49942,1.2,2,0.27468,0.41618,0.64092,36,2.23074,-0.2,-0.09988,0.39954,5,2U1D,1.0,True,0.768,0,False,left,0.0,0.0007853999268263578,2.2418019000906497,2.2410165001638234,0.2669975000899285,0.7667969001922756,0.49979940010234714,
37,0.49942,0.1,2,0.21642,0.24971,0.79907,37,2.4971,0.472,0.23306,0.73248,5,1D1U,2.0,True,0.293,2,True,right,0.0,0.0008644999470561743,2.515831399941817,2.5149668999947608,0.2073962998110801,0.7076591998338699,0.5002629000227898,
38,0.49942,1.2,1,0.30798,0.30798,0.73248,38,1.8978,-0.9,-0.44948,0.04994,5,lapse_rate,1.0,False,1.758,0,False,left,0.0,0.000282500172033906,1.898781699826941,1.898499199654907,1.082298900000751,1.5822721999138594,0.49997329991310835,
39,0.49942,1.2,1,0.41618,0.25803,0.88231,39,2.55536,-0.0,0.0,0.49942,5,2U1D,1.0,False,1.325,0,False,left,0.0,0.0008103000000119209,2.5664687999524176,2.5656584999524057,1.7912371000275016,2.2913138000294566,0.500076700001955,
40,0.49942,0.1,2,0.39954,0.44948,0.56601,40,2.79676,0.768,0.38289,0.88231,5,2D1U,2.0,True,0.325,2,True,right,0.0,0.0009699000511318445,2.7996213000733405,2.7986514000222087,0.3913066000677645,0.8911669000517577,0.4998602999839932,
41,0.49942,1.2,2,0.35792,0.34959,0.58266,41,2.17248,-0.232,-0.11653,0.38289,5,1U1D,1.0,True,0.379,2,False,left,0.0,0.0008187000639736652,2.1742917001247406,2.173473000060767,0.349534000037238,0.849297400098294,0.499763400061056,
42,0.49942,0.1,2,0.43283,0.43283,0.42451,42,2.6719,0.768,0.38289,0.88231,5,2D1U,2.0,True,0.271,2,True,right,0.0,0.0008333998266607523,2.66671309992671,2.6658797001000494,0.4248719001188874,0.925030899932608,0.5001589998137206,
43,0.49942,1.2,2,0.34959,0.43283,0.86566,43,2.56368,-0.16,-0.08324,0.41618,5,1U1D,1.0,True,0.414,2,False,left,0.0,0.0007872998248785734,2.5751523999497294,2.574365100124851,0.3417177000083029,0.8417071998119354,0.4999894998036325,
44,0.49942,0.1,1,0.3163,0.44115,0.52439,44,2.48045,0.4,0.19977,0.69919,5,1D1U,1.0,True,1.162,3,True,left,0.0,0.000798200024291873,2.4996891000773758,2.498890900053084,1.5327674001455307,2.032706500031054,0.4999390998855233,
45,0.49942,1.2,1,0.3163,0.34959,0.66589,45,2.7801,0.9,0.44948,0.9489,5,lapse_rate,1.0,True,0.384,0,False,left,0.0,0.0011132999788969755,2.773411799920723,2.772298499941826,1.9233925000298768,2.4234517998993397,0.5000592998694628,
46,0.49942,1.2,2,0.21642,0.20809,0.49942,46,1.8645,-0.12,-0.05827,0.44115,5,2U1D,1.0,True,2.741,1,True,left,0.0,0.0007943999953567982,1.866926999995485,1.8661326000001281,0.2085451998282224,0.7086583999916911,0.5001132001634687,
47,0.49942,0.1,2,0.24971,0.32462,0.71583,47,2.23073,-0.12,-0.05827,0.44115,5,2U1D,2.0,False,0.945,1,True,right,0.0,0.0002999999560415745,2.2334753000177443,2.2331753000617027,0.24158699996769428,0.7416026000864804,0.5000156001187861,
48,0.49942,1.2,2,0.3163,0.29133,0.84901,48,2.62195,0.328,0.16647,0.66589,5,1D1U,2.0,True,2.006,3,False,right,0.0,0.0008894000202417374,2.6169595001265407,2.616070100106299,0.3089234000071883,0.8086799001321197,0.49975650012493134,
49,0.49942,0.1,1,0.283,0.29133,0.46612,49,2.48877,0.9,0.44948,0.9489,5,lapse_rate,1.0,True,0.389,0,False,left,0.0,0.0007688000332564116,2.491562800016254,2.4907939999829978,1.6913761999458075,2.191605599829927,0.5002293998841196,
50,0.49942,0.1,2,0.44115,0.33295,0.47445,50,2.20577,-0.088,-0.04162,0.4578,5,1U1D,1.0,True,0.678,2,False,left,0.0,0.0012655998580157757,2.216301399981603,2.2150358001235873,0.4328469999600202,0.9331654000561684,0.5003184000961483,
51,0.49942,1.2,1,0.24971,0.42451,0.76578,51,2.78843,0.696,0.34959,0.84901,5,2D1U,1.0,True,0.46,2,False,left,0.0,0.0009200999047607183,2.7904944999609143,2.7895744000561535,1.8572297999635339,2.3572791998740286,0.5000493999104947,
52,0.49942,0.1,1,0.29133,0.21642,0.73248,52,2.12254,-0.24,-0.11653,0.38289,5,2U1D,2.0,True,0.441,1,False,right,0.0,0.000761799979954958,2.1316331000998616,2.1308713001199067,1.3983414999675006,1.8986303000710905,0.5002888001035899,
53,0.49942,1.2,1,0.35792,0.34127,0.59098,53,2.73849,0.9,0.44948,0.9489,5,lapse_rate,1.0,True,1.769,0,False,left,0.0,0.0008885001298040152,2.7496839000377804,2.7487953999079764,1.8916025999933481,2.3917202001903206,0.5001176001969725,
54,0.49942,1.2,2,0.19977,0.39121,0.68254,54,2.39721,0.256,0.12485,0.62427,5,1D1U,1.0,False,1.197,3,False,left,0.0,0.0007495998870581388,2.4083881999831647,2.4076386000961065,0.19226990011520684,0.6919313999824226,0.49966149986721575,
55,0.49942,0.1,2,0.35792,0.23306,0.49942,55,2.08092,-0.016,-0.00832,0.4911,5,1U1D,2.0,False,0.869,2,False,right,0.0,0.0008296000305563211,2.0888354999478906,2.0880058999173343,0.34705989994108677,0.8469364000484347,0.49987650010734797,
56,0.49942,1.2,2,0.38289,0.22474,0.46612,56,2.42218,0.696,0.34959,0.84901,5,2D1U,2.0,True,2.063,2,False,right,0.0,0.0007656000088900328,2.4413737000431865,2.4406081000342965,0.37463809992186725,0.8746573000680655,0.5000192001461983,
57,0.49942,0.1,1,0.39954,0.38289,0.64925,57,2.74682,0.624,0.30798,0.81572,5,2D1U,1.0,True,0.315,2,False,left,0.0,0.0010318001732230186,2.7495605000294745,2.7485286998562515,1.8579460999462754,2.3578667999245226,0.4999206999782473,
58,0.49942,1.2,2,0.29965,0.44948,0.52439,58,2.15583,-0.24,-0.11653,0.38289,5,2U1D,1.0,True,0.798,1,False,left,0.0,0.0007869999390095472,2.157045800006017,2.1562588000670075,0.29018669994547963,0.7906229000072926,0.500436200061813,
59,0.49942,1.2,1,0.44115,0.3163,0.69086,59,1.99767,-0.9,-0.44948,0.04994,5,lapse_rate,1.0,False,1.258,0,False,left,0.0,0.0008747999090701342,1.9995571000035852,1.998682300094515,1.1748580001294613,1.6751183001324534,0.5002603000029922,
60,0.49942,0.1,1,0.39121,0.32462,0.44115,60,2.1142,-0.088,-0.04162,0.4578,5,1U1D,1.0,False,0.84,3,True,left,0.0,0.0007799000013619661,2.1243579001165926,2.1235780001152307,1.2827342001255602,1.7822278002277017,0.4994936001021415,
61,0.49942,1.2,1,0.43283,0.24139,0.87398,61,2.71351,0.328,0.16647,0.66589,5,1D1U,1.0,True,0.426,4,True,left,0.0,0.0006651999428868294,2.716327599948272,2.7156624000053853,1.9659778999630362,2.4661424001678824,0.5001645002048463,
62,0.49942,0.1,1,0.34959,0.43283,0.52439,62,2.75513,0.9,0.44948,0.9489,5,lapse_rate,1.0,True,0.24,0,False,left,0.0,0.001007300103083253,2.766401399858296,2.7653940997552127,1.8163765999488533,2.316365199862048,0.4999885999131948,
63,0.49942,0.1,2,0.283,0.44948,0.86566,63,2.51374,-0.16,-0.08324,0.41618,5,1U1D,1.0,True,0.581,3,False,left,0.0,0.0007732999511063099,2.516202599974349,2.515429300023243,0.27471660007722676,0.7745942999608815,0.4998776998836547,
64,0.49942,1.2,1,0.29965,0.40786,0.47445,64,2.09756,-0.168,-0.08324,0.41618,5,2U1D,1.0,False,1.831,2,True,left,0.0,0.0008278999011963606,2.114782600197941,2.1139547002967447,1.1814683000557125,1.6815868001431227,0.5001185000874102,
65,0.49942,0.1,1,0.37456,0.41618,0.43283,65,2.34726,0.256,0.12485,0.62427,5,1D1U,2.0,False,0.324,5,True,right,0.0,0.001264600083231926,2.3577634000685066,2.3564987999852747,1.4244894001167268,1.9246153000276536,0.5001258999109268,
66,0.49942,1.2,1,0.44115,0.34127,0.42451,66,2.52207,0.624,0.30798,0.81572,5,2D1U,2.0,False,1.295,2,False,right,0.0,0.0008188001811504364,2.516444999957457,2.5156261997763067,1.6747955000028014,2.174768599914387,0.49997309991158545,
67,0.49942,1.2,2,0.21642,0.26636,0.4911,67,1.52324,-0.9,-0.44948,0.04994,5,lapse_rate,1.0,True,0.627,0,False,left,0.0,0.0007408999372273684,1.5252786001656204,1.524537700228393,0.20828200015239418,0.7082778001204133,0.49999579996801913,
68,0.49942,0.1,2,0.43283,0.19977,0.74913,68,2.26404,-0.24,-0.11653,0.38289,5,2U1D,2.0,False,0.598,3,True,right,0.0,0.0005001998506486416,2.258408499881625,2.2579083000309765,0.42506519984453917,0.9250737000256777,0.5000085001811385,
69,0.49942,1.2,1,0.30798,0.39121,0.75745,69,2.62195,0.328,0.16647,0.66589,5,1D1U,1.0,True,1.31,6,True,left,0.0,0.0008468001615256071,2.623658899916336,2.6228120997548103,1.7237458999734372,2.223414800129831,0.49966890015639365,
70,0.49942,0.1,1,0.37456,0.3163,0.72416,70,2.37224,-0.088,-0.04162,0.4578,5,1U1D,2.0,True,0.896,4,True,right,0.0,0.0004412000998854637,2.381440799916163,2.3809995998162776,1.5482139000669122,2.0481266998685896,0.49991279980167747,
71,0.49942,1.2,2,0.22474,0.30798,0.82404,71,2.70519,0.696,0.34959,0.84901,5,2D1U,1.0,False,1.439,3,True,left,0.0,0.0002850999590009451,2.6997964000329375,2.6995113000739366,0.21618800004944205,0.7161059000063688,0.4999178999569267,
72,0.49942,0.1,2,0.29133,0.24971,0.72416,72,2.38889,0.256,0.12485,0.62427,5,1D1U,2.0,True,0.3,7,True,right,0.0,0.0008824998512864113,2.391792600043118,2.3909101001918316,0.28343409998342395,0.7834619998466223,0.5000278998631984,
73,0.49942,1.2,2,0.25803,0.39121,0.44115,73,2.08091,-0.016,-0.00832,0.4911,5,1U1D,1.0,True,1.983,4,False,left,0.0,0.0009614001028239727,2.0909361999947578,2.089974799891934,0.24997729994356632,0.7496561000589281,0.4996788001153618,
74,0.49942,0.1,2,0.26636,0.41618,0.40786,74,2.47213,0.768,0.38289,0.88231,5,2D1U,2.0,True,1.09,3,False,right,0.0,0.0008137000259011984,2.4742557001300156,2.4734420001041144,0.25729680014774203,0.7574855000711977,0.5001886999234557,
75,0.49942,1.2,1,0.26636,0.39121,0.42451,75,1.92277,-0.312,-0.15815,0.34127,5,2U1D,1.0,False,0.472,3,False,left,0.0,0.0009419000707566738,1.9315212999936193,1.9305793999228626,1.0234172001946718,1.5233736000955105,0.49995639990083873,
76,0.49942,1.2,2,0.43283,0.3163,0.89896,76,3.09641,0.9,0.44948,0.9489,5,lapse_rate,2.0,True,0.434,0,False,right,0.0,0.0010142999235540628,3.1077477000653744,3.1067334001418203,0.42482650000602007,0.9252341999672353,0.5004076999612153,
77,0.49942,0.1,2,0.38289,0.34959,0.44948,77,1.98936,-0.384,-0.19144,0.30798,5,2U1D,1.0,True,0.291,3,False,left,0.0,0.00030019995756447315,1.9749942000489682,1.9746940000914037,0.3745442000217736,0.8747833000961691,0.5002391000743955,
78,0.49942,1.2,2,0.36624,0.34959,0.66589,78,2.47212,0.184,0.09156,0.59098,5,1D1U,1.0,False,1.667,7,False,left,0.0,0.00036390009336173534,2.4747608001343906,2.474396900041029,0.35786230000667274,0.8580893001053482,0.5002270000986755,
79,0.49942,1.2,2,0.26636,0.44115,0.50774,79,1.76461,-0.9,-0.44948,0.04994,5,lapse_rate,1.0,True,0.417,0,False,left,0.0,0.0006891000084578991,1.7741016999352723,1.7734125999268144,0.25725860008969903,0.757240999955684,0.4999823998659849,
80,0.49942,0.1,2,0.27468,0.35792,0.50774,80,2.16415,0.056,0.02497,0.52439,5,1U1D,2.0,True,0.383,4,False,right,0.0,0.00027520000003278255,2.1658493001013994,2.1655741001013666,0.2655933001078665,0.7657442002091557,0.5001509001012892,
81,0.49942,1.2,2,0.42451,0.27468,0.67422,81,2.75514,0.768,0.38289,0.88231,5,2D1U,2.0,True,1.452,3,False,right,0.0,0.0006493998225778341,2.766402200097218,2.7657528002746403,0.41665760008618236,0.9164286002051085,0.49977100011892617,
82,0.49942,1.2,1,0.44948,0.34127,0.72416,82,2.06427,-0.9,-0.44948,0.04994,5,lapse_rate,1.0,False,1.982,0,False,left,0.0,0.0002815001644194126,2.074858099920675,2.0745765997562557,1.216366299893707,1.7162356998305768,0.49986939993686974,
83,0.49942,0.1,1,0.36624,0.39121,0.74081,83,2.84669,0.696,0.34959,0.84901,5,2D1U,1.0,True,0.394,4,True,left,0.0,0.0006240000948309898,2.8499120001215488,2.849288000026718,1.9496723001357168,2.4500829000025988,0.500410599866882,
84,0.49942,1.2,1,0.40786,0.24971,0.75745,84,2.22242,-0.384,-0.19144,0.30798,5,2U1D,2.0,True,0.374,3,False,right,0.0,0.0006705000996589661,2.240735200000927,2.240064699901268,1.465982399880886,1.9658979999367148,0.4999156000558287,
85,0.49942,0.1,1,0.22474,0.21642,0.67422,85,2.1059,-0.016,-0.00832,0.4911,5,1U1D,2.0,True,0.3,4,False,right,0.0,0.0007054000161588192,2.1079073001164943,2.1072019001003355,1.383061100030318,1.8826668001711369,0.49960570014081895,
86,0.49942,1.2,1,0.36624,0.34959,0.48277,86,2.32229,0.256,0.12485,0.62427,5,1D1U,1.0,True,0.886,8,True,left,0.0,0.00026979995891451836,2.325283900136128,2.3250141001772135,1.4671985001768917,1.9670286001637578,0.4998300999868661,
87,0.49942,0.1,2,0.34127,0.37456,0.51607,87,2.58033,0.696,0.34959,0.84901,5,2D1U,2.0,True,0.186,4,True,right,0.0,0.00026570004411041737,2.5906559999566525,2.590390299912542,0.3319741999730468,0.8321462001185864,0.5001720001455396,
88,0.49942,1.2,2,0.3163,0.29965,0.83237,88,2.53872,0.184,0.09156,0.59098,5,1D1U,1.0,False,0.947,9,True,left,0.0,0.0005781000945717096,2.5495794999878854,2.5490013998933136,0.30785669991746545,0.80793819995597,0.5000815000385046,
89,0.49942,0.1,1,0.26636,0.29133,0.82404,89,2.40554,0.056,0.02497,0.52439,5,1U1D,2.0,False,0.327,4,False,right,0.0,0.0008008000440895557,2.400300299981609,2.3994994999375194,1.6086910997983068,2.1087345997802913,0.5000434999819845,
90,0.49942,1.2,2,0.44948,0.19977,0.84069,90,2.33063,-0.312,-0.15815,0.34127,5,2U1D,1.0,True,0.424,4,True,left,0.0,0.001095999963581562,2.325222199782729,2.3241261998191476,0.4417313998565078,0.9419481998775154,0.5002168000210077,
91,0.49942,0.1,2,0.36624,0.39954,0.4578,91,1.77294,-0.9,-0.44948,0.04994,5,lapse_rate,1.0,True,0.376,0,False,left,0.0,0.0005687999073415995,1.7664686001371592,1.7658998002298176,0.35822270018979907,0.8581102001480758,0.49988749995827675,
92,0.49942,0.1,2,0.41618,0.42451,0.4578,92,1.84785,-0.9,-0.44948,0.04994,5,lapse_rate,1.0,True,0.615,0,False,left,0.0,0.0007015999872237444,1.8497854000888765,1.8490838001016527,0.4079380000475794,0.9079639001283795,0.5000259000808001,
93,0.49942,0.1,2,0.22474,0.19977,0.89896,93,2.3889,0.128,0.06659,0.56601,5,1U1D,2.0,True,0.442,5,True,right,0.0,0.0007726000621914864,2.3913489000406116,2.39057629997842,0.21632850007154047,0.7160106999799609,0.49968219990842044,
94,0.49942,1.2,2,0.27468,0.25803,0.79075,94,2.6386,0.624,0.30798,0.81572,5,2D1U,2.0,True,1.175,4,False,right,0.0,0.0007541000377386808,2.6497088000178337,2.648954699980095,0.26649009995162487,0.766344300005585,0.4998542000539601,
95,0.49942,0.1,2,0.44115,0.41618,0.88231,95,2.86333,0.256,0.12485,0.62427,5,1D1U,2.0,True,0.292,10,True,right,0.0,0.0013516000472009182,2.8655320000834763,2.8641804000362754,0.432232600171119,0.9319826001301408,0.4997499999590218,
96,0.49942,1.2,1,0.41618,0.37456,0.68254,96,2.31397,-0.312,-0.15815,0.34127,5,2U1D,1.0,False,0.481,4,True,left,0.0,0.0006765001453459263,2.3078437000513077,2.3071671999059618,1.4328553001396358,1.9327897001057863,0.4999343999661505,
97,0.49942,0.1,1,0.29965,0.29965,0.89063,97,2.51374,0.056,0.02497,0.52439,5,1U1D,2.0,False,0.606,6,True,right,0.0,0.0008354999590665102,2.524071500170976,2.5232360002119094,1.7074866001494229,2.2074206001125276,0.4999339999631047,
98,0.49942,1.2,1,0.43283,0.25803,0.75745,98,2.76345,0.624,0.30798,0.81572,5,2D1U,1.0,True,0.303,4,False,left,0.0,0.0009700998198240995,2.7748562002088875,2.7738861003890634,2.000123400008306,2.500230500008911,0.500107100000605,
99,0.49942,0.1,1,0.20809,0.22474,0.44115,99,1.96438,0.184,0.09156,0.59098,5,1D1U,1.0,True,0.545,11,True,left,0.0,0.0007569999434053898,1.965216499986127,1.9644595000427216,1.2318648002110422,1.7318272001575679,0.4999623999465257,
100,0.49942,1.2,1,0.33295,0.24971,0.62427,100,2.01433,-0.384,-0.19144,0.30798,5,2U1D,1.0,False,0.429,5,True,left,0.0,0.0008568000048398972,2.016927600139752,2.016070800134912,1.258347700117156,1.758034999947995,0.49968729983083904,
101,0.49942,1.2,1,0.38289,0.39954,0.75745,101,2.9882,0.9,0.44948,0.9489,5,lapse_rate,1.0,True,0.284,0,False,left,0.0,0.0010451001580804586,2.992148899938911,2.9911037997808307,2.083489199867472,2.583498500054702,0.5000093001872301,
102,0.49942,0.1,1,0.25803,0.29133,0.74913,102,2.3556,0.112,0.05827,0.55769,5,1D1U,2.0,False,1.568,11,False,right,0.0,0.0008191999513655901,2.357544200029224,2.3567250000778586,1.5577010998968035,2.057687300024554,0.49998620012775064,
103,0.49942,1.2,1,0.3163,0.44115,0.54936,103,2.37224,0.128,0.06659,0.56601,5,1U1D,2.0,False,1.405,7,True,right,0.0,0.0008168998174369335,2.382537999888882,2.381721100071445,1.4245557999238372,1.9247913998551667,0.5002355999313295,
104,0.49942,0.1,1,0.22474,0.39121,0.49942,104,1.88947,-0.456,-0.22474,0.27468,5,2U1D,2.0,True,0.24,5,False,right,0.0,0.0008150001522153616,1.8916500001214445,1.890834999969229,0.991689900169149,1.4914190000854433,0.4997290999162942,
105,0.49942,1.2,1,0.34127,0.23306,0.81572,105,2.66357,0.552,0.27468,0.7741,5,2D1U,1.0,True,0.848,4,False,left,0.0,0.0007354998961091042,2.6580616999417543,2.6573262000456452,1.924832500051707,2.4248118000105023,0.4999792999587953,
106,0.49942,0.1,2,0.34127,0.34959,0.4911,106,2.63028,0.9,0.44948,0.9489,5,lapse_rate,2.0,True,0.174,0,False,right,0.0,0.0008053998462855816,2.633152199909091,2.6323468000628054,0.33344769990071654,0.8334510000422597,0.5000033001415431,
107,0.49942,0.1,2,0.32462,0.26636,0.89063,107,2.03097,-0.9,-0.44948,0.04994,5,lapse_rate,1.0,True,0.382,0,False,left,0.0,0.0008321998175233603,2.024148700060323,2.0233165002427995,0.3157609000336379,0.8157933000475168,0.5000324000138789,
108,0.49942,0.1,2,0.22474,0.38289,0.82404,108,2.52207,0.184,0.09156,0.59098,5,1D1U,2.0,True,0.362,12,True,right,0.0,0.0007664000149816275,2.5219900999218225,2.521223699906841,0.2137849999126047,0.7139413999393582,0.5001564000267535,
109,0.49942,1.2,2,0.25803,0.26636,0.44115,109,1.73964,-0.456,-0.22474,0.27468,5,2U1D,1.0,True,2.01,5,False,left,0.0,0.0007713001687079668,1.7493749000132084,1.7486035998445004,0.24965599994175136,0.749725499888882,0.5000694999471307,
110,0.49942,0.1,2,0.36624,0.22474,0.67422,110,2.36392,0.2,0.09988,0.5993,5,1U1D,2.0,True,0.317,7,False,right,0.0,0.0008358999621123075,2.3744992001447827,2.3736633001826704,0.3583124000579119,0.8581981000024825,0.49988569994457066,
111,0.49942,1.2,1,0.41618,0.23306,0.82404,111,2.7468,0.552,0.27468,0.7741,5,2D1U,2.0,False,0.541,4,False,right,0.0,0.0010251998901367188,2.7411155998706818,2.740090399980545,2.0077531000133604,2.507627099985257,0.4998739999718964,
112,0.49942,0.1,2,0.42451,0.43283,0.53271,112,2.44716,0.112,0.05827,0.55769,5,1D1U,2.0,True,0.287,13,True,right,0.0,0.0007943001110106707,2.441232700133696,2.4404384000226855,0.4162535001523793,0.9162124001886696,0.4999589000362903,
113,0.49942,1.2,2,0.40786,0.37456,0.85734,113,2.44716,-0.384,-0.19144,0.30798,5,2U1D,1.0,True,0.362,6,True,left,0.0,0.00072310003452003,2.450114800129086,2.4493917000945657,0.40024999994784594,0.9000432000029832,0.4997932000551373,
114,0.49942,0.1,2,0.44115,0.29965,0.84069,114,2.89663,0.624,0.30798,0.81572,5,2D1U,2.0,True,0.242,5,True,right,0.0,0.0010263000149279833,2.9081261998508126,2.9070998998358846,0.4331683998461813,0.9331520998384804,0.4999836999922991,
115,0.49942,1.2,1,0.25803,0.32462,0.89896,115,2.54704,0.128,0.06659,0.56601,5,1U1D,1.0,True,0.332,8,True,left,0.0,0.0008315001614391804,2.5573698000516742,2.556538299890235,1.7159408000297844,2.215735699981451,0.4997948999516666,
116,0.49942,0.1,2,0.29133,0.34127,0.49942,116,1.68138,-0.9,-0.44948,0.04994,5,lapse_rate,1.0,True,0.302,0,False,left,0.0,0.0008707998786121607,1.6829389999620616,1.6820682000834495,0.28311620000749826,0.783117099897936,0.5000008998904377,
117,0.49942,0.1,1,0.21642,0.23306,0.47445,117,1.93942,0.04,0.01665,0.51607,5,1D1U,1.0,True,0.728,13,False,left,0.0,0.0009538999292999506,1.9489024998620152,1.9479485999327153,1.1988274999894202,1.6987159999553114,0.49988849996589124,
118,0.49942,1.2,1,0.21642,0.34959,0.73248,118,1.84785,-0.9,-0.44948,0.04994,5,lapse_rate,1.0,False,0.792,0,False,left,0.0,0.0008141000289469957,1.8335383001249284,1.8327242000959814,0.9919150001369417,1.4919947001617402,0.5000797000247985,
119,0.49942,1.2,1,0.34127,0.29965,0.56601,119,2.52207,0.624,0.30798,0.81572,5,2D1U,1.0,True,1.623,5,True,left,0.0,0.0007976999040693045,2.51644209981896,2.5156443999148905,1.7164685998577625,2.2164867999963462,0.5000182001385838,
120,0.49942,0.1,1,0.41618,0.32462,0.84901,120,2.39721,-0.384,-0.19144,0.30798,5,2U1D,2.0,True,0.253,6,True,right,0.0,0.0007823000196367502,2.415334800025448,2.4145525000058115,1.5653017999138683,2.065435600001365,0.5001338000874966,
121,0.49942,1.2,2,0.24139,0.32462,0.78242,121,2.37224,0.056,0.02497,0.52439,5,1U1D,1.0,False,0.546,8,False,left,0.0,0.00026670005172491074,2.38284879992716,2.3825820998754352,0.23294600006192923,0.732700299937278,0.4997542998753488,
122,0.49942,0.1,2,0.44115,0.37456,0.61595,122,2.27235,-0.312,-0.15815,0.34127,5,2U1D,1.0,True,1.2,6,False,left,0.0,0.0007837999146431684,2.282739599933848,2.2819558000192046,0.4324735999107361,0.932320199906826,0.49984659999608994,
123,0.49942,1.2,2,0.44948,0.26636,0.84069,123,2.53872,-0.032,-0.01665,0.48277,5,1D1U,1.0,True,0.52,13,False,left,0.0,0.001595200039446354,2.5502250001300126,2.5486298000905663,0.44181300001218915,0.9418515001889318,0.5000385001767427,
124,0.49942,0.1,1,0.35792,0.22474,0.74913,124,2.60531,0.552,0.27468,0.7741,5,2D1U,1.0,True,0.53,6,True,left,0.0,0.0007915999740362167,2.5999106999952346,2.5991191000211984,1.8749155001714826,2.375199700007215,0.5002841998357326,
125,0.49942,0.1,2,0.32462,0.33295,0.74913,125,1.95606,-0.9,-0.44948,0.04994,5,lapse_rate,1.0,True,0.235,0,False,left,0.0,0.0007336998824030161,1.9580377000384033,1.9573040001560003,0.3165963999927044,0.8164022001437843,0.4998058001510799,
126,0.49942,1.2,2,0.37456,0.30798,0.84069,126,2.58866,0.128,0.06659,0.56601,5,1U1D,2.0,True,1.419,9,True,right,0.0,0.0007659997791051865,2.5828671001363546,2.5821011003572494,0.3664323000703007,0.8665714000817388,0.5001391000114381,
127,0.49942,0.1,1,0.42451,0.3163,0.82404,127,2.40554,-0.312,-0.15815,0.34127,5,2U1D,2.0,True,0.285,6,False,right,0.0,0.0008274000138044357,2.408591799903661,2.4077643998898566,1.5833710997831076,2.083533399971202,0.5001623001880944,
128,0.49942,0.1,2,0.34959,0.29133,0.56601,128,2.65525,0.9,0.44948,0.9489,5,lapse_rate,2.0,True,0.342,0,False,right,0.0,0.0008746001403778791,2.6569806998595595,2.6561060997191817,0.3403922999277711,0.8403959998395294,0.5000036999117583,
129,0.49942,1.2,2,0.33295,0.26636,0.76578,129,2.3889,0.056,0.02497,0.52439,5,1U1D,1.0,False,1.392,10,True,left,0.0,0.0007768000941723585,2.391418799990788,2.3906419998966157,0.3248819001019001,0.8247171998955309,0.49983529979363084,
130,0.49942,0.1,2,0.30798,0.29133,0.69086,130,2.56369,0.552,0.27468,0.7741,5,2D1U,2.0,True,0.294,6,True,right,0.0,0.0007560001686215401,2.558475599857047,2.5577195996884257,0.2999261999502778,0.7999201000202447,0.4999939000699669,
131,0.49942,1.2,1,0.35792,0.44948,0.8074,131,2.63029,0.04,0.01665,0.51607,5,1D1U,1.0,True,0.455,13,False,left,0.0,0.0007753998506814241,2.6319283000193536,2.631152900168672,1.6735644000582397,2.1735444001387805,0.4999800000805408,
132,0.49942,0.1,2,0.29965,0.34127,0.85734,132,2.38057,-0.24,-0.11653,0.38289,5,2U1D,2.0,False,0.352,6,False,right,0.0,0.0009261001832783222,2.391677400097251,2.3907512999139726,0.29171169991604984,0.7918996000662446,0.5001879001501948,
133,0.49942,1.2,1,0.30798,0.22474,0.71583,133,2.23074,-0.032,-0.01665,0.48277,5,1D1U,1.0,False,0.401,13,False,left,0.0,0.000986199826002121,2.242094400105998,2.241108200279996,1.500254699960351,2.0003730000462383,0.5001183000858873,
134,0.49942,0.1,1,0.21642,0.25803,0.64925,134,2.18913,0.128,0.06659,0.56601,5,1U1D,1.0,True,0.633,11,True,left,0.0,0.0009475001133978367,2.1739961998537183,2.1730486997403204,1.424028999870643,1.923988699913025,0.4999597000423819,
135,0.49942,1.2,1,0.37456,0.39954,0.78242,135,3.00484,0.9,0.44948,0.9489,5,lapse_rate,1.0,True,0.705,0,False,left,0.0,0.0010522999800741673,2.9988675999920815,2.9978153000120074,2.0987716999370605,2.598562200088054,0.49979050015099347,
136,0.49942,1.2,2,0.43283,0.41618,0.64925,136,2.73849,0.48,0.24139,0.74081,5,2D1U,2.0,True,0.824,6,False,right,0.0,0.0011404999531805515,2.7581160000991076,2.756975500145927,0.42482950002886355,0.9250330000650138,0.5002035000361502,
137,0.49942,0.1,2,0.32462,0.24971,0.54936,137,2.36392,0.48,0.24139,0.74081,5,2D1U,2.0,True,0.223,6,False,right,0.0,0.0008702001068741083,2.3654244001954794,2.3645542000886053,0.3154672000091523,0.8154237000271678,0.4999565000180155,
138,0.49942,1.2,2,0.43283,0.21642,0.60763,138,2.20578,-0.104,-0.04994,0.44948,5,1D1U,1.0,True,0.447,14,True,left,0.0,0.0004165999125689268,2.1994527999777347,2.1990362000651658,0.42466609994880855,0.9246829999610782,0.5000169000122696,
139,0.49942,0.1,2,0.3163,0.25803,0.60763,139,2.20577,0.056,0.02497,0.52439,5,1U1D,2.0,True,1.049,12,True,right,0.0,0.0008289001416414976,2.2000754999462515,2.19924659980461,0.3083932001609355,0.8083492000587285,0.49995599989779294,
140,0.49942,1.2,2,0.35792,0.33295,0.50774,140,2.0393,-0.312,-0.15815,0.34127,5,2U1D,1.0,True,1.432,7,True,left,0.0,0.000793699873611331,2.0496196998283267,2.0488259999547154,0.349657200044021,0.8495610000099987,0.49990379996597767,
141,0.49942,0.1,1,0.30798,0.33295,0.6326,141,2.26405,-0.016,-0.00832,0.4911,5,1U1D,2.0,True,1.065,12,False,right,0.0,0.0008096001110970974,2.256838799919933,2.256029199808836,1.4238718000706285,1.9237879998981953,0.49991619982756674,
142,0.49942,1.2,2,0.23306,0.33295,0.72416,142,2.27236,-0.032,-0.01665,0.48277,5,1D1U,1.0,True,0.609,15,True,left,0.0,0.000277599785476923,2.2670223000459373,2.2667447002604604,0.22534020012244582,0.7254238000605255,0.5000835999380797,
143,0.49942,0.1,2,0.42451,0.39121,0.88231,143,2.53872,-0.312,-0.15815,0.34127,5,2U1D,2.0,False,0.664,7,True,right,0.0,0.0005908000748604536,2.5404133000411093,2.539822499966249,0.4154197999741882,0.915243900148198,0.4998241001740098,
144,0.49942,1.2,1,0.39121,0.33295,0.44948,144,2.19745,0.056,0.02497,0.52439,5,1U1D,1.0,True,1.13,12,False,left,0.0,0.0012184998486191034,2.1993778999894857,2.1981594001408666,1.3577032999601215,1.8574936999939382,0.4997904000338167,
145,0.49942,0.1,2,0.26636,0.39121,0.40786,145,2.27236,0.408,0.20809,0.70751,5,2D1U,2.0,True,0.41,6,False,right,0.0,0.00077629997394979,2.2752825000789016,2.274506200104952,0.25874339998699725,0.7589273999910802,0.5001840000040829,
146,0.49942,1.2,1,0.37456,0.39121,0.87398,146,2.84668,0.408,0.20809,0.70751,5,2D1U,2.0,False,0.458,6,False,right,0.0,0.0006041999440640211,2.833499199943617,2.832894999999553,1.9502594999503344,2.450254099909216,0.49999459995888174,
147,0.49942,0.1,2,0.35792,0.27468,0.4578,147,1.8978,-0.384,-0.19144,0.30798,5,2U1D,2.0,False,0.834,7,False,right,0.0,0.0006411999929696321,1.8984423000365496,1.89780110004358,0.348412899998948,0.8485359000042081,0.5001230000052601,
148,0.49942,1.2,2,0.35792,0.32462,0.46612,148,2.38889,0.48,0.24139,0.74081,5,2D1U,2.0,True,0.424,7,True,right,0.0,0.000869999872520566,2.3915778000373393,2.3907078001648188,0.34965389990247786,0.8496262000408024,0.4999723001383245,
149,0.49942,0.1,2,0.35792,0.24139,0.52439,149,2.11422,-0.016,-0.00832,0.4911,5,1U1D,2.0,False,0.388,12,False,right,0.0,0.0007626002188771963,2.1252717000897974,2.12450909987092,0.35019060014747083,0.8501834999769926,0.4999928998295218,
150,0.49942,1.2,2,0.35792,0.37456,0.66589,150,2.41386,0.04,0.01665,0.51607,5,1D1U,1.0,False,0.783,15,False,left,0.0,0.000798800028860569,2.415525200078264,2.4147264000494033,0.3488642000593245,0.848683699965477,0.4998194999061525,
151,0.49942,0.1,2,0.21642,0.37456,0.79075,151,2.15583,-0.456,-0.22474,0.27468,5,2U1D,1.0,True,0.623,7,False,left,0.0,0.0008617001585662365,2.1575924998614937,2.1567307997029275,0.207577999914065,0.7075844998471439,0.5000064999330789,
152,0.49942,1.2,1,0.38289,0.30798,0.65757,152,2.58867,0.48,0.24139,0.74081,5,2D1U,1.0,True,1.669,7,True,left,0.0,0.001110800076276064,2.5917952000163496,2.5906843999400735,1.7749462001957,2.275045300135389,0.500099099939689,
153,0.49942,0.1,1,0.34959,0.21642,0.49942,153,2.27236,0.408,0.20809,0.70751,5,2D1U,1.0,True,1.313,8,True,left,0.0,0.0008149000350385904,2.2664909998420626,2.265676099807024,1.550015099812299,2.0499274998437613,0.4999124000314623,
154,0.49942,1.2,2,0.41618,0.26636,0.66589,154,2.30565,-0.088,-0.04162,0.4578,5,1U1D,1.0,True,0.365,13,True,left,0.0,0.0008469999302178621,2.2999948000069708,2.299147800076753,0.40829319995827973,0.9081802000291646,0.4998870000708848,
155,0.49942,0.1,1,0.3163,0.25803,0.69086,155,2.3223,0.112,0.05827,0.55769,5,1D1U,1.0,True,0.979,16,True,left,0.0,0.0008501999545842409,2.340491099981591,2.339640900027007,1.5572551998775452,2.0571615998633206,0.49990639998577535,
156,0.49942,1.2,1,0.32462,0.39954,0.88231,156,2.38057,-0.456,-0.22474,0.27468,5,2U1D,1.0,False,1.373,7,False,left,0.0,0.0007968000136315823,2.3986148999538273,2.3978180999401957,1.4737272001802921,1.9741191000211984,0.5003918998409063,
157,0.49942,0.1,2,0.44115,0.30798,0.87398,157,2.6386,0.04,0.01665,0.51607,5,1D1U,2.0,True,0.405,17,True,right,0.0,0.0008829999715089798,2.6491810001898557,2.6482980002183467,0.43263580021448433,0.9325828000437468,0.4999469998292625,
158,0.49942,1.2,2,0.20809,0.24971,0.79075,158,2.23907,-0.016,-0.00832,0.4911,5,1U1D,1.0,True,1.445,14,True,left,0.0,0.0011193000245839357,2.2492975001223385,2.2481782000977546,0.1992613000329584,0.6993048000149429,0.5000434999819845,
159,0.49942,0.1,1,0.38289,0.21642,0.72416,159,2.05595,-0.528,-0.26636,0.23306,5,2U1D,2.0,True,0.328,7,False,right,0.0,0.000677900156006217,2.0569106000475585,2.0562326998915523,1.3319931000005454,1.8318839999847114,0.499890899984166,
160,0.49942,1.2,2,0.42451,0.34959,0.82404,160,2.80507,0.408,0.20809,0.70751,5,2D1U,2.0,True,0.622,8,True,right,0.0,0.0009747000876814127,2.79909750004299,2.7981227999553084,0.41569370008073747,0.9157260998617858,0.5000323997810483,
161,0.49942,0.1,2,0.35792,0.30798,0.54936,161,2.19745,-0.032,-0.01665,0.48277,5,1D1U,2.0,False,0.166,17,False,right,0.0,0.0007504001259803772,2.2071545999497175,2.206404199823737,0.348873799899593,0.848843399900943,0.49996960000135005,
162,0.49942,1.2,2,0.37456,0.34127,0.87398,162,2.75512,0.336,0.16647,0.66589,5,2D1U,1.0,False,0.564,8,False,left,0.0,0.0010315999388694763,2.7575657998677343,2.756534199928865,0.3657897999510169,0.86580969998613,0.5000199000351131,
163,0.49942,0.1,1,0.39954,0.25803,0.42451,163,1.81456,-0.528,-0.26636,0.23306,5,2U1D,2.0,True,0.414,7,False,right,0.0,0.0008455000352114439,1.8086665000300854,1.807820999994874,1.0503930000122637,1.5504012000747025,0.5000082000624388,
164,0.49942,1.2,2,0.43283,0.33295,0.84069,164,2.38057,-0.456,-0.22474,0.27468,5,2U1D,1.0,True,0.597,8,True,left,0.0,0.0007966000121086836,2.383150599896908,2.382353999884799,0.42506069992668927,0.9249435998499393,0.4998828999232501,
165,0.49942,0.1,1,0.29133,0.40786,0.82404,165,2.47213,-0.104,-0.04994,0.44948,5,1D1U,2.0,True,0.462,18,True,right,0.0,0.0007899999618530273,2.474354299949482,2.473564299987629,1.5576822001021355,2.0576905999332666,0.5000083998311311,
166,0.49942,1.2,1,0.39954,0.22474,0.47445,166,2.12254,0.056,0.02497,0.52439,5,1U1D,2.0,False,1.536,14,False,right,0.0,0.0007690000347793102,2.1421238998882473,2.141354899853468,1.3921457000542432,1.8921165999490768,0.49997089989483356,
167,0.49942,0.1,2,0.37456,0.29965,0.59098,167,2.03929,-0.456,-0.22474,0.27468,5,2U1D,1.0,True,0.626,8,True,left,0.0,0.0009006001055240631,2.048418699996546,2.047518099891022,0.3650075998157263,0.8651523999869823,0.5001448001712561,
168,0.49942,1.2,1,0.21642,0.44115,0.41618,168,2.13918,0.128,0.06659,0.56601,5,1U1D,1.0,True,2.038,15,True,left,0.0,0.0009045999031513929,2.1490527000278234,2.148148100124672,1.1904589999467134,1.6905362999532372,0.5000773000065237,
169,0.49942,0.1,2,0.29965,0.24139,0.62427,169,2.1475,-0.032,-0.01665,0.48277,5,1D1U,2.0,False,0.305,19,True,right,0.0,0.000802299939095974,2.141322899842635,2.140520599903539,0.29137689992785454,0.791776199825108,0.5003992998972535,
170,0.49942,1.2,1,0.39121,0.26636,0.43283,170,2.0393,-0.104,-0.04994,0.44948,5,1D1U,1.0,False,2.183,20,True,left,0.0,0.0007966000121086836,2.04090670007281,2.0401101000607014,1.2657385000493377,1.7657455999869853,0.5000070999376476,
171,0.49942,0.1,1,0.22474,0.34959,0.52439,171,2.30565,0.408,0.20809,0.70751,5,2D1U,1.0,True,0.3,9,True,left,0.0,0.000853199977427721,2.3159944000653923,2.3151412000879645,1.4492169001605362,1.9494263001251966,0.5002093999646604,
172,0.49942,1.2,1,0.37456,0.41618,0.83237,172,2.64692,0.056,0.02497,0.52439,5,1U1D,2.0,False,2.379,16,True,right,0.0,0.0007902998477220535,2.649076199857518,2.648285900009796,1.7239816999062896,2.2240865998901427,0.5001048999838531,
173,0.49942,0.1,1,0.29965,0.37456,0.62427,173,2.50541,0.408,0.20809,0.70751,5,2D1U,1.0,True,0.46,9,True,left,0.0,0.0008980999700725079,2.5164254000410438,2.5155273000709713,1.6249548001214862,2.1249300001654774,0.4999752000439912,
174,0.49942,1.2,2,0.39954,0.38289,0.64925,174,2.59699,0.336,0.16647,0.66589,5,2D1U,2.0,True,0.405,10,True,right,0.0,0.00026940018869936466,2.5989023000001907,2.5986328998114914,0.3905780999921262,0.890400999924168,0.49982289993204176,
175,0.49942,0.1,2,0.44948,0.41618,0.56601,175,2.23907,-0.384,-0.19144,0.30798,5,2U1D,1.0,True,0.355,8,False,left,0.0,0.0007601000834256411,2.2494624000974,2.2487023000139743,0.441338500007987,0.941006800159812,0.49966830015182495,
176,0.49942,1.2,2,0.39954,0.41618,0.87398,176,2.59698,-0.176,-0.09156,0.40786,5,1D1U,1.0,True,1.365,20,False,left,0.0,0.0009590000845491886,2.598378299968317,2.597419299883768,0.3897480999585241,0.8896438998635858,0.4998957999050617,
177,0.49942,0.1,1,0.27468,0.27468,0.65757,177,2.15583,-0.104,-0.04994,0.44948,5,1D1U,2.0,True,1.213,21,True,right,0.0,0.0008551999926567078,2.157779400004074,2.1569242000114173,1.3745631999336183,1.874695099890232,0.5001318999566138,
178,0.49942,1.2,2,0.39954,0.42451,0.41618,178,2.30566,0.128,0.06659,0.56601,5,1U1D,1.0,False,0.849,17,True,left,0.0,0.0007881999481469393,2.2995329000987113,2.2987447001505643,0.391184400068596,0.8912371001206338,0.5000527000520378,
179,0.49942,0.1,1,0.30798,0.34959,0.6326,179,2.09757,-0.384,-0.19144,0.30798,5,2U1D,1.0,False,0.675,8,False,left,0.0,0.0007238001562654972,2.107787400018424,2.1070635998621583,1.2411268998403102,1.7415177000220865,0.5003908001817763,
180,0.49942,1.2,1,0.37456,0.24139,0.74081,180,2.13086,-0.456,-0.22474,0.27468,5,2U1D,1.0,False,0.228,9,True,left,0.0,0.0009256999474018812,2.1411373999435455,2.1402116999961436,1.3827261999249458,1.882699300069362,0.4999731001444161,
181,0.49942,0.1,1,0.40786,0.29965,0.69919,181,2.57201,0.336,0.16647,0.66589,5,2D1U,1.0,True,1.239,10,True,left,0.0,0.0007768000941723585,2.5662545000668615,2.565477699972689,1.7669190000742674,2.266624400159344,0.4997054000850767,
182,0.49942,1.2,1,0.34959,0.25803,0.86566,182,2.45547,-0.032,-0.01665,0.48277,5,1D1U,2.0,True,2.682,21,False,right,0.0,0.0008030999451875687,2.473279800033197,2.4724767000880092,1.690160600002855,2.1899976001586765,0.49983700015582144,
183,0.49942,0.1,2,0.21642,0.23306,0.39954,183,1.98104,0.264,0.13318,0.6326,5,2D1U,2.0,True,0.337,10,False,right,0.0,0.0008143999148160219,1.9835170998703688,1.9827026999555528,0.20857100002467632,0.7085469998419285,0.49997599981725216,
184,0.49942,1.2,1,0.23306,0.20809,0.44948,184,1.62311,-0.528,-0.26636,0.23306,5,2U1D,2.0,True,1.492,9,False,right,0.0,0.0008980000857263803,1.625091099878773,1.6241930997930467,0.9081603998783976,1.4081726998556405,0.500012299977243,
185,0.49942,0.1,2,0.27468,0.24139,0.52439,185,2.13918,0.2,0.09988,0.5993,5,1U1D,2.0,True,0.337,17,False,right,0.0,0.0008127999026328325,2.141774399904534,2.1409616000019014,0.2665436998941004,0.7668339998926967,0.5002902999985963,
186,0.49942,1.2,1,0.32462,0.33295,0.82404,186,2.4971,0.04,0.01665,0.51607,5,1D1U,1.0,True,1.902,21,False,left,0.0,0.0002997000701725483,2.5163735998794436,2.516073899809271,1.6580693998839706,2.1579847999382764,0.4999154000543058,
187,0.49942,0.1,2,0.36624,0.20809,0.44115,187,1.99767,-0.032,-0.01665,0.48277,5,1D1U,1.0,True,2.122,21,False,left,0.0,0.0008248998783528805,1.9995301000308245,1.9987052001524717,0.3577780001796782,0.8578650001436472,0.500086999963969,
188,0.49942,1.2,1,0.30798,0.22474,0.73248,188,1.99768,-0.528,-0.26636,0.23306,5,2U1D,2.0,True,1.387,9,False,right,0.0,0.0007718000560998917,2.0082826998550445,2.0075108997989446,1.2665538999717683,1.7666581999510527,0.5001042999792844,
189,0.49942,0.1,2,0.19977,0.21642,0.71583,189,1.90612,-0.456,-0.22474,0.27468,5,2U1D,1.0,True,0.684,10,True,left,0.0,0.0003930001985281706,1.9164229999296367,1.9160299997311085,0.1911796999629587,0.6911170999519527,0.499937399988994,
190,0.49942,1.2,1,0.3163,0.44115,0.66589,190,2.55536,0.264,0.13318,0.6326,5,2D1U,2.0,False,1.142,10,False,right,0.0,0.0007498001214116812,2.557642900152132,2.5568931000307202,1.607620800146833,2.1076687001623213,0.5000479000154883,
191,0.49942,0.1,2,0.34127,0.30798,0.89063,191,2.60531,0.128,0.06659,0.56601,5,1U1D,2.0,True,1.581,18,True,right,0.0,0.0007479998748749495,2.607479900121689,2.606731900246814,0.33231239998713136,0.8324822001159191,0.5001698001287878,
192,0.49942,1.2,1,0.32462,0.27468,0.56601,192,1.93941,-0.456,-0.22474,0.27468,5,2U1D,2.0,True,2.24,10,True,right,0.0,0.000737000023946166,1.9398410001304,1.939104000106454,1.156649500131607,1.6566389999352396,0.4999894998036325,
193,0.49942,0.1,2,0.19977,0.23306,0.64092,193,2.23906,0.336,0.16647,0.66589,5,2D1U,2.0,True,0.69,11,True,right,0.0,0.0008782001677900553,2.232852900167927,2.231974700000137,0.19097630004398525,0.691007100045681,0.5000308000016958,
194,0.49942,1.2,2,0.42451,0.3163,0.54936,194,2.31398,0.056,0.02497,0.52439,5,1U1D,1.0,False,1.283,18,False,left,0.0,0.0007679001428186893,2.316835799952969,2.3160678998101503,0.41688590007834136,0.9499515001662076,0.5330656000878662,
195,0.49942,0.1,2,0.38289,0.42451,0.67422,195,2.49711,0.04,0.01665,0.51607,5,1D1U,2.0,True,0.739,21,False,right,0.0,0.0008195999544113874,2.515536400023848,2.5147168000694364,0.373685099883005,0.8738809998612851,0.5001958999782801,
196,0.49942,1.2,2,0.42451,0.37456,0.7741,196,2.38057,-0.384,-0.19144,0.30798,5,2U1D,1.0,True,1.127,10,False,left,0.0,0.0007040000054985285,2.383132099872455,2.3824280998669565,0.416345999808982,0.916210199939087,0.499864200130105,
197,0.49942,0.1,1,0.41618,0.29133,0.79075,197,2.30566,-0.384,-0.19144,0.30798,5,2U1D,2.0,True,0.261,10,False,right,0.0,0.0008012000471353531,2.315950500080362,2.3151493000332266,1.5077586001716554,2.0078823000658303,0.5001236998941749,
198,0.49942,1.2,2,0.39954,0.38289,0.79075,198,2.41387,-0.312,-0.15815,0.34127,5,2U1D,1.0,True,0.609,10,False,left,0.0,0.0007735998369753361,2.417106700129807,2.4163331002928317,0.3922643999103457,0.8920841000508517,0.49981970014050603,
199,0.49942,0.1,2,0.22474,0.40786,0.78242,199,2.48045,0.128,0.06659,0.56601,5,1U1D,2.0,True,0.354,19,True,right,0.0,0.0005079000256955624,2.4915334000252187,2.491025499999523,0.21630630013532937,0.7163637999910861,0.5000574998557568,
200,0.49942,1.2,1,0.24139,0.42451,0.74913,200,2.58034,0.336,0.16647,0.66589,5,2D1U,2.0,False,1.703,11,True,right,0.0,0.0008600000292062759,2.6000256999395788,2.5991656999103725,1.650041799992323,2.1500039000529796,0.49996210006065667,
201,0.49942,0.1,2,0.24971,0.29133,0.43283,201,1.95606,-0.032,-0.01665,0.48277,5,1D1U,2.0,False,0.495,21,False,right,0.0,0.0009353999048471451,1.9573953999206424,1.9564600000157952,0.2409345000050962,0.7407643999904394,0.4998298999853432,
202,0.49942,1.2,1,0.20809,0.27468,0.84069,202,2.34727,0.056,0.02497,0.52439,5,1U1D,1.0,True,1.433,20,True,left,0.0,0.0004893001168966293,2.3579641000833362,2.3574747999664396,1.5662973001599312,2.066321900114417,0.5000245999544859,
203,0.49942,0.1,2,0.40786,0.41618,0.58266,203,2.24739,-0.312,-0.15815,0.34127,5,2U1D,2.0,False,1.044,10,False,right,0.0,0.000749099999666214,2.249724799999967,2.248975700000301,0.3997520999982953,0.8997591000515968,0.5000070000533015,
204,0.49942,1.2,2,0.283,0.3163,0.86566,204,2.27236,-0.384,-0.19144,0.30798,5,2U1D,2.0,False,0.835,11,True,right,0.0,0.000830099917948246,2.2829581999685615,2.2821281000506133,0.27464819978922606,0.7746399999596179,0.4999918001703918,
205,0.49942,0.1,1,0.36624,0.20809,0.7741,205,2.55536,0.408,0.20809,0.70751,5,2D1U,1.0,True,0.729,11,False,left,0.0,0.0005191999953240156,2.5652703000232577,2.5647511000279337,1.8401752000208944,2.34026059997268,0.5000853999517858,
206,0.49942,1.2,2,0.25803,0.35792,0.74081,206,2.30566,-0.104,-0.04994,0.44948,5,1D1U,1.0,True,0.484,22,True,left,0.0,0.0008240998722612858,2.3079979999456555,2.307173900073394,0.24942629993893206,0.7491903000045568,0.4997640000656247,
207,0.49942,0.1,2,0.44115,0.20809,0.86566,207,2.72183,0.408,0.20809,0.70751,5,2D1U,2.0,True,0.409,11,False,right,0.0,0.0010899000335484743,2.733023799955845,2.7319338999222964,0.43332870001904666,0.9328962999861687,0.4995675999671221,
208,0.49942,1.2,1,0.22474,0.34127,0.62427,208,1.96438,-0.456,-0.22474,0.27468,5,2U1D,2.0,True,1.656,11,False,right,0.0,0.0007533999159932137,1.983204900054261,1.9824515001382679,1.116405599983409,1.6165894998703152,0.5001838998869061,
209,0.49942,0.1,1,0.38289,0.22474,0.59098,209,2.18913,-0.016,-0.00832,0.4911,5,1U1D,1.0,False,1.449,20,False,left,0.0,0.00027629989199340343,2.1918256001081318,2.1915493002161384,1.4588448000140488,1.9587567001581192,0.4999119001440704,
210,0.49942,1.2,2,0.33295,0.32462,0.5993,210,2.23906,-0.032,-0.01665,0.48277,5,1D1U,1.0,True,1.138,23,True,left,0.0,0.0008065998554229736,2.2414272997993976,2.2406206999439746,0.32463159994222224,0.824732800014317,0.5001012000720948,
211,0.49942,0.1,2,0.27468,0.44948,0.79075,211,2.5304,0.04,0.01665,0.51607,5,1D1U,2.0,True,0.327,23,False,right,0.0,0.0007827999070286751,2.524217199999839,2.5234344000928104,0.2659412999637425,0.7658446999266744,0.49990339996293187,
212,0.49942,1.2,2,0.35792,0.24139,0.49942,212,1.87283,-0.456,-0.22474,0.27468,5,2U1D,1.0,True,0.755,11,False,left,0.0,0.0007865999359637499,1.8831450000870973,1.8823584001511335,0.34974550013430417,0.8494448000565171,0.49969929992221296,
213,0.49942,0.1,2,0.36624,0.29133,0.83237,213,2.44716,-0.088,-0.04162,0.4578,5,1U1D,2.0,False,0.778,21,True,right,0.0,0.0007929001003503799,2.448203899897635,2.4474109997972846,0.3565439998637885,0.856566600035876,0.5000226001720876,
214,0.49942,1.2,1,0.34959,0.41618,0.83237,214,2.51374,-0.16,-0.08324,0.41618,5,1U1D,2.0,True,0.424,21,False,right,0.0,0.0007927999831736088,2.51577840000391,2.5149856000207365,1.5906893000937998,2.0905142000410706,0.49982489994727075,
215,0.49942,0.1,1,0.40786,0.24971,0.67422,215,2.4971,0.336,0.16647,0.66589,5,2D1U,1.0,True,8.606,12,True,left,0.0,0.000745799858123064,2.507872699992731,2.507126900134608,1.7412616000510752,2.2411545000504702,0.499892899999395,
216,0.49942,1.2,1,0.24971,0.39121,0.64092,216,2.26403,-0.032,-0.01665,0.48277,5,1D1U,2.0,True,0.598,23,False,right,0.0,0.0008143999148160219,2.258388299960643,2.257573900045827,1.3667440998833627,1.8667061999440193,0.49996210006065667,
217,0.49942,0.1,1,0.29133,0.20809,0.66589,217,2.33062,0.336,0.16647,0.66589,5,2D1U,1.0,True,1.009,12,True,left,0.0,0.00027190009132027626,2.3334615998901427,2.3331896997988224,1.6169024999253452,2.11688489979133,0.4999823998659849,
218,0.49942,1.2,2,0.26636,0.42451,0.57433,218,2.39722,0.264,0.13318,0.6326,5,2D1U,1.0,False,8.831,12,False,left,0.0,0.0007511998992413282,2.4152925999369472,2.414541400037706,0.2569575000088662,0.7570463998708874,0.5000888998620212,
219,0.49942,0.1,1,0.21642,0.24971,0.79075,219,2.27237,0.04,0.01665,0.51607,5,1D1U,2.0,False,2.237,23,False,right,0.0,0.0007160999812185764,2.272258299868554,2.2715421998873353,1.5141780998092145,2.013918499927968,0.4997404001187533,
220,0.49942,1.2,2,0.32462,0.41618,0.65757,220,2.35559,-0.088,-0.04162,0.4578,5,1U1D,1.0,True,0.648,22,True,left,0.0,0.0008491999469697475,2.3504177001304924,2.3495685001835227,0.31699200021103024,0.8169672000221908,0.49997519981116056,
221,0.49942,0.1,2,0.24971,0.27468,0.81572,221,2.14751,-0.384,-0.19144,0.30798,5,2U1D,1.0,True,2.824,12,True,left,0.0,0.0012969998642802238,2.149484399938956,2.1481874000746757,0.24120840011164546,0.7410854999907315,0.499877099879086,
222,0.49942,1.2,1,0.39954,0.40786,0.88231,222,2.68023,-0.016,-0.00832,0.4911,5,1U1D,2.0,True,2.481,22,False,right,0.0,0.0007481002248823643,2.698259900091216,2.6975117998663336,1.765233000041917,2.264883700059727,0.49965070001780987,
223,0.49942,0.1,2,0.25803,0.37456,0.47445,223,1.91444,-0.384,-0.19144,0.30798,5,2U1D,2.0,False,0.914,12,True,right,0.0,0.0007627001032233238,1.916452500037849,1.9156897999346256,0.24959419993683696,0.74966109986417,0.500066899927333,
224,0.49942,1.2,1,0.29965,0.34127,0.57433,224,1.98935,-0.456,-0.22474,0.27468,5,2U1D,2.0,True,1.861,13,True,right,0.0,0.0007440999615937471,2.0000538998283446,1.9993097998667508,1.1418852999340743,1.6419090998824686,0.5000237999483943,
225,0.49942,0.1,2,0.283,0.19977,0.48277,225,2.13085,0.336,0.16647,0.66589,5,2D1U,2.0,True,0.402,13,True,right,0.0,0.0008235001005232334,2.1418200000189245,2.1409964999184012,0.27521740016527474,0.7751570001710206,0.4999396000057459,
226,0.49942,1.2,2,0.26636,0.37456,0.40786,226,2.10589,0.112,0.05827,0.55769,5,1D1U,1.0,False,0.574,24,True,left,0.0,0.0004725998733192682,2.100024899933487,2.099552300060168,0.2585036000236869,0.7585159000009298,0.500012299977243,
227,0.49942,0.1,2,0.32462,0.43283,0.53271,227,2.38056,0.184,0.09156,0.59098,5,1D1U,2.0,True,0.298,24,False,right,0.0,0.0008996999822556973,2.383283699862659,2.3823839998804033,0.3166425998788327,0.8166179000400007,0.499975300161168,
228,0.49942,1.2,1,0.26636,0.44115,0.44948,228,2.1808,0.056,0.02497,0.52439,5,1U1D,2.0,False,1.488,22,False,right,0.0,0.0007519000209867954,2.183376899920404,2.182624999899417,1.2335399999283254,1.7335226000286639,0.49998260010033846,
229,0.49942,0.1,2,0.3163,0.32462,0.44948,229,1.8645,-0.456,-0.22474,0.27468,5,2U1D,1.0,True,0.347,13,True,left,0.0,0.0010653999634087086,1.8742078999057412,1.8731424999423325,0.30769169982522726,0.8074503999669105,0.4997587001416832,
230,0.49942,1.2,1,0.24139,0.283,0.43283,230,1.76462,-0.384,-0.19144,0.30798,5,2U1D,2.0,True,0.936,14,True,right,0.0,0.000583200016990304,1.7662806999869645,1.7656974999699742,0.97437660000287,1.474618200212717,0.5002416002098471,
231,0.49942,0.1,2,0.283,0.38289,0.78242,231,2.61362,0.336,0.16647,0.66589,5,2D1U,2.0,True,0.298,13,True,right,0.0,0.00029000011272728443,2.632824200205505,2.6325342000927776,0.2743931000586599,0.7744320000056177,0.5000388999469578,
232,0.49942,1.2,2,0.3163,0.27468,0.5993,232,1.99768,-0.384,-0.19144,0.30798,5,2U1D,1.0,True,0.342,14,True,left,0.0,0.0008050000760704279,1.9993692999705672,1.9985642998944968,0.3077759000007063,0.8076589000411332,0.49988300004042685,
233,0.49942,0.1,2,0.27468,0.24139,0.53271,233,2.11421,0.128,0.06659,0.56601,5,1U1D,2.0,True,0.475,23,True,right,0.0,0.0008742997888475657,2.116553000174463,2.1156787003856152,0.2664991000201553,0.7665950001683086,0.5000959001481533,
234,0.49942,1.2,2,0.29965,0.35792,0.4578,234,2.13918,0.056,0.02497,0.52439,5,1U1D,1.0,False,0.517,24,True,left,0.0,0.000268799951300025,2.1496228999458253,2.1493540999945253,0.291109099984169,0.7913643999490887,0.5002552999649197,
235,0.49942,0.1,1,0.20809,0.20809,0.89063,235,2.43883,0.264,0.13318,0.6326,5,2D1U,2.0,False,0.614,14,True,right,0.0,0.0003229000139981508,2.4502621998544782,2.44993929984048,1.7250386998057365,2.2252118999604136,0.500173200154677,
236,0.49942,1.2,2,0.3163,0.23306,0.56601,236,2.17248,0.112,0.05827,0.55769,5,1D1U,1.0,False,0.347,25,True,left,0.0,0.0007714000530540943,2.17425260017626,2.173481200123206,0.3077134001068771,0.8075941000133753,0.4998806999064982,
237,0.49942,0.1,1,0.35792,0.283,0.84069,237,2.3223,-0.312,-0.15815,0.34127,5,2U1D,2.0,True,0.271,14,False,right,0.0,0.0007299999706447124,2.332238899776712,2.3315088998060673,1.5322410999797285,2.0322391998488456,0.49999809986911714,
238,0.49942,1.2,1,0.29133,0.38289,0.7741,238,2.28901,-0.312,-0.15815,0.34127,5,2U1D,2.0,True,0.788,14,False,right,0.0,0.0008234998676925898,2.299050899920985,2.2982274000532925,1.3991109000053257,1.8993379999883473,0.5002270999830216,
239,0.49942,0.1,1,0.24139,0.21642,0.48277,239,2.10589,0.336,0.16647,0.66589,5,2D1U,1.0,True,0.378,15,True,left,0.0,0.0007089001592248678,2.107595100067556,2.106886199908331,1.3829228000249714,1.8830899000167847,0.5001670999918133,
240,0.49942,1.2,2,0.44115,0.24971,0.79907,240,2.55536,0.128,0.06659,0.56601,5,1U1D,1.0,False,0.922,25,True,left,0.0,0.0008000999223440886,2.557586600072682,2.556786500150338,0.4326987999957055,0.9327547000721097,0.5000559000764042,
241,0.49942,0.1,1,0.24139,0.27468,0.79907,241,2.40554,0.184,0.09156,0.59098,5,1D1U,2.0,False,0.31,26,True,right,0.0,0.0009496998973190784,2.4078610001597553,2.4069113002624363,1.6247986000962555,2.124827600084245,0.5000289999879897,
242,0.49942,1.2,1,0.27468,0.25803,0.50774,242,1.92276,-0.24,-0.11653,0.38289,5,2U1D,2.0,True,1.272,14,False,right,0.0,0.0007818997837603092,1.9409012000542134,1.940119300270453,1.1576541000977159,1.657518899999559,0.49986479990184307,
243,0.49942,0.1,1,0.30798,0.38289,0.44948,243,2.02266,-0.24,-0.11653,0.38289,5,2U1D,1.0,False,0.537,14,False,left,0.0,0.0003420999273657799,2.0252976999618113,2.0249556000344455,1.13365099998191,1.6335108999628574,0.4998598999809474,
244,0.49942,1.2,1,0.24139,0.22474,0.52439,244,2.08924,0.2,0.09988,0.5993,5,1U1D,1.0,True,1.301,25,False,left,0.0,0.0007986000273376703,2.0913278001826257,2.090529200155288,1.357921900227666,1.8578527001664042,0.49993079993873835,
245,0.49942,0.1,2,0.30798,0.37456,0.74081,245,2.58866,0.336,0.16647,0.66589,5,2D1U,2.0,True,0.249,15,True,right,0.0,0.0009651000145822763,2.591242300113663,2.590277200099081,0.2996249001007527,0.7995983001310378,0.4999734000302851,
246,0.49942,1.2,1,0.34127,0.33295,0.86566,246,2.66357,0.256,0.12485,0.62427,5,1D1U,1.0,True,1.247,26,False,left,0.0,0.0002654001582413912,2.665115100098774,2.6648496999405324,1.8232454000972211,2.323238000040874,0.49999259994365275,
247,0.49942,0.1,1,0.24139,0.24971,0.73248,247,2.31398,0.184,0.09156,0.59098,5,1D1U,1.0,True,0.361,27,True,left,0.0,0.0007470999844372272,2.3152866000309587,2.3145395000465214,1.5569152000825852,2.0569253999274224,0.5000101998448372,
248,0.49942,1.2,2,0.34127,0.35792,0.58266,248,2.34728,0.128,0.06659,0.56601,5,1U1D,1.0,False,0.534,26,True,left,0.0,0.0009228999260812998,2.34838299988769,2.3474600999616086,0.33181790006347,0.8315771000925452,0.49975920002907515,
249,0.49942,0.1,1,0.23306,0.19977,0.61595,249,1.88947,-0.312,-0.15815,0.34127,5,2U1D,2.0,True,0.3,15,True,right,0.0,0.0007529999129474163,1.8751103999093175,1.87435739999637,1.1835399998817593,1.6834746999666095,0.4999347000848502,
250,0.49942,1.2,1,0.25803,0.283,0.64925,250,2.3223,0.264,0.13318,0.6326,5,2D1U,2.0,False,1.257,16,True,right,0.0,0.0007966000121086836,2.3322411000262946,2.331444500014186,1.5325796999968588,2.032532999990508,0.4999532999936491,
251,0.49942,0.1,1,0.43283,0.38289,0.61595,251,2.48878,0.112,0.05827,0.55769,5,1D1U,2.0,False,0.286,27,False,right,0.0,0.0007493998855352402,2.4906268999911845,2.4898775001056492,1.5989713999442756,2.0989616999868304,0.49999030004255474,
252,0.49942,1.2,1,0.29965,0.21642,0.64925,252,2.26404,0.2,0.09988,0.5993,5,1U1D,1.0,True,0.564,27,True,left,0.0,0.0007680999115109444,2.258485099999234,2.257717000087723,1.5414716999512166,2.0419548000209033,0.5004831000696868,
253,0.49942,0.1,1,0.22474,0.283,0.49942,253,2.09756,0.184,0.09156,0.59098,5,1D1U,1.0,True,0.312,28,True,left,0.0,0.00025780010037124157,2.1089538000524044,2.108695999952033,1.3079123001080006,1.8080275000538677,0.5001151999458671,
254,0.49942,1.2,1,0.22474,0.26636,0.73248,254,2.06427,-0.312,-0.15815,0.34127,5,2U1D,1.0,False,2.299,15,True,left,0.0,0.0008098001126199961,2.0748326999600977,2.0740228998474777,1.2912936001084745,1.7914754000958055,0.500181799987331,
255,0.49942,0.1,1,0.36624,0.41618,0.82404,255,2.41386,-0.384,-0.19144,0.30798,5,2U1D,2.0,True,0.522,15,False,right,0.0,0.0007801998872309923,2.416224599815905,2.415444399928674,1.4915153998881578,1.9913017000071704,0.4997863001190126,
256,0.49942,1.2,2,0.33295,0.21642,0.88231,256,2.59699,0.336,0.16647,0.66589,5,2D1U,1.0,False,0.479,17,True,left,0.0,0.0013770000077784061,2.616623899899423,2.6152468998916447,0.3245759999845177,0.8245180998928845,0.4999420999083668,
257,0.49942,0.1,1,0.283,0.20809,0.75745,257,2.45547,0.408,0.20809,0.70751,5,2D1U,2.0,False,0.677,17,False,right,0.0,0.000798200024291873,2.4650053998921067,2.464207199867815,1.7400628000032157,2.240006599808112,0.4999437998048961,
258,0.49942,1.2,2,0.41618,0.25803,0.7741,258,2.50542,0.112,0.05827,0.55769,5,1D1U,1.0,False,1.772,29,True,left,0.0,0.0007782999891787767,2.5002130998764187,2.49943479988724,0.40852279984392226,0.9085315999109298,0.5000088000670075,
259,0.49942,0.1,1,0.30798,0.39954,0.57433,259,2.34728,0.128,0.06659,0.56601,5,1U1D,1.0,True,0.975,28,True,left,0.0,0.0009278999641537666,2.3322379998862743,2.3313100999221206,1.4408644998911768,1.9404154000803828,0.499550900189206,
260,0.49942,1.2,1,0.283,0.42451,0.83237,260,2.56369,0.056,0.02497,0.52439,5,1U1D,2.0,False,1.5,28,False,right,0.0,0.000587299931794405,2.558638099813834,2.5580507998820394,1.6337148000020534,2.13341849995777,0.49970369995571673,
261,0.49942,0.1,2,0.283,0.22474,0.8074,261,2.12254,-0.384,-0.19144,0.30798,5,2U1D,1.0,True,1.113,15,False,left,0.0,0.0009222999215126038,2.1249781001824886,2.124055800260976,0.27486410015262663,0.7750073000788689,0.5001431999262422,
262,0.49942,1.2,1,0.41618,0.21642,0.81572,262,2.51375,0.128,0.06659,0.56601,5,1U1D,2.0,False,1.893,29,True,right,0.0,0.0008509000763297081,2.5168808000162244,2.5160298999398947,1.7915966999717057,2.2918332999106497,0.500236599938944,
263,0.49942,0.1,2,0.21642,0.40786,0.49942,263,2.2141,0.184,0.09156,0.59098,5,1D1U,2.0,True,0.299,30,True,right,0.0,0.0008612999226897955,2.2232808000408113,2.2224195001181215,0.20681859995238483,0.7068870000075549,0.5000684000551701,
264,0.49942,1.2,2,0.40786,0.41618,0.6326,264,2.51375,0.112,0.05827,0.55769,5,1D1U,1.0,False,1.363,31,True,left,0.0,0.0008402999956160784,2.533090100158006,2.53224980016239,0.3998120999895036,0.9001259999349713,0.5003138999454677,
265,0.49942,0.1,2,0.39121,0.21642,0.65757,265,2.10589,-0.312,-0.15815,0.34127,5,2U1D,2.0,False,1.755,16,True,right,0.0,0.0007929999846965075,2.1081016999669373,2.107308699982241,0.3830698998644948,0.8829977000132203,0.4999278001487255,
266,0.49942,1.2,1,0.20809,0.27468,0.54936,266,2.27236,0.48,0.24139,0.74081,5,2D1U,2.0,False,1.364,17,False,right,0.0,0.0008457999210804701,2.281896000029519,2.2810502001084387,1.4902812999207526,1.9904332000296563,0.5001519001089036,
267,0.49942,0.1,1,0.29133,0.39121,0.60763,267,2.09757,-0.384,-0.19144,0.30798,5,2U1D,2.0,True,0.113,17,True,right,0.0,0.001420699991285801,2.108140500029549,2.106719800038263,1.199668499873951,1.6997260998468846,0.5000575999729335,
268,0.49942,1.2,1,0.26636,0.37456,0.44115,268,2.18079,0.2,0.09988,0.5993,5,1U1D,2.0,False,0.396,29,False,right,0.0,0.0012603001669049263,2.190282099880278,2.189021799713373,1.29874029988423,1.7986159999854863,0.49987570010125637,
269,0.49942,0.1,2,0.39121,0.34959,0.46612,269,2.33894,0.272,0.13318,0.6326,5,1U1D,2.0,True,0.346,29,False,right,0.0,0.00027540000155568123,2.366305499803275,2.366030099801719,0.38272319990210235,0.8828020999208093,0.5000789000187069,
270,0.49942,1.2,2,0.30798,0.34959,0.46612,270,2.39721,0.552,0.27468,0.7741,5,2D1U,2.0,True,0.603,17,False,right,0.0,0.0002973999362438917,2.3988675998989493,2.3985701999627054,0.2988422999624163,0.7986393999308348,0.4997970999684185,
271,0.49942,0.1,1,0.3163,0.20809,0.89063,271,2.50542,0.184,0.09156,0.59098,5,1D1U,2.0,False,0.269,32,True,right,0.0,0.0008137999102473259,2.5077873999252915,2.506973600015044,1.791165699949488,2.2910358998924494,0.49987019994296134,
272,0.49942,1.2,1,0.26636,0.21642,0.56601,272,1.85619,-0.384,-0.19144,0.30798,5,2U1D,2.0,True,0.782,17,True,right,0.0,0.0008022000547498465,1.8576565000694245,1.8568543000146747,1.132675000000745,1.6326316001359373,0.4999566001351923,
273,0.49942,0.1,1,0.24971,0.41618,0.43283,273,2.37224,0.552,0.27468,0.7741,5,2D1U,1.0,True,0.316,17,False,left,0.0,0.0008954999502748251,2.3732602999079973,2.3723647999577224,1.4481176999397576,1.9481287999078631,0.5000110999681056,
274,0.49942,1.2,2,0.24139,0.25803,0.61595,274,2.3556,0.48,0.24139,0.74081,5,2D1U,1.0,False,1.074,18,True,left,0.0,0.0007319999858736992,2.3738514001015574,2.3731194001156837,0.23213399993255734,0.7322968000080436,0.5001628000754863,
275,0.49942,0.1,1,0.40786,0.21642,0.39954,275,2.12254,0.2,0.09988,0.5993,5,1U1D,1.0,True,0.354,30,True,left,0.0,0.0008271997794508934,2.140313000185415,2.1394858004059643,1.398821400012821,1.8987757000140846,0.4999543000012636,
276,0.49942,1.2,2,0.43283,0.23306,0.71583,276,2.50541,0.256,0.12485,0.62427,5,1D1U,1.0,False,1.805,32,False,left,0.0,0.0008278000168502331,2.5076551001984626,2.5068273001816124,0.4243745000567287,0.9243837001267821,0.5000092000700533,
277,0.49942,0.1,2,0.20809,0.39121,0.64925,277,2.52207,0.552,0.27468,0.7741,5,2D1U,2.0,True,0.244,19,True,right,0.0,0.0007547000423073769,2.5239216999616474,2.52316699991934,0.19893559999763966,0.6990310000255704,0.5000954000279307,
278,0.49942,1.2,2,0.34127,0.37456,0.41618,278,2.29732,0.328,0.16647,0.66589,5,1D1U,2.0,True,0.914,32,False,right,0.0,0.0007321001030504704,2.308695400133729,2.3079633000306785,0.33368590008467436,0.8334592001046985,0.4997733000200242,
279,0.49942,0.1,2,0.21642,0.24139,0.75745,279,2.05595,-0.312,-0.15815,0.34127,5,2U1D,2.0,False,0.51,18,True,right,0.0,0.001030100043863058,2.073823800077662,2.072793700033799,0.2072358001023531,0.7071632000152022,0.49992739991284907,
280,0.49942,1.2,1,0.20809,0.29133,0.69086,280,1.99768,-0.384,-0.19144,0.30798,5,2U1D,2.0,True,0.357,19,True,right,0.0,0.0007715998217463493,2.0073685001116246,2.0065969002898782,1.1990234002005309,1.6990844001993537,0.5000609999988228,
281,0.49942,0.1,2,0.34959,0.40786,0.71583,281,2.53871,0.128,0.06659,0.56601,5,1U1D,2.0,True,0.303,30,False,right,0.0,0.0007627001032233238,2.5657238999847323,2.564961199881509,0.3408035000320524,0.8407858998980373,0.4999823998659849,
282,0.49942,1.2,1,0.34959,0.41618,0.70751,282,2.59697,0.256,0.12485,0.62427,5,1D1U,2.0,False,0.545,33,True,right,0.0,0.0002850999590009451,2.5991515000350773,2.5988664000760764,1.6742094999644905,2.1742235999554396,0.500014099990949,
283,0.49942,0.1,2,0.34127,0.21642,0.58266,283,2.30566,0.328,0.16647,0.66589,5,1D1U,2.0,True,0.337,34,True,right,0.0,0.0010596001520752907,2.316669200081378,2.315609599929303,0.3332799000199884,0.8327491001691669,0.4994692001491785,
284,0.49942,1.2,1,0.37456,0.34127,0.79075,284,2.7801,0.552,0.27468,0.7741,5,2D1U,2.0,False,1.092,19,True,right,0.0,0.0004498001653701067,2.76607170002535,2.7656218998599797,1.933081700000912,2.4329699999652803,0.49988829996436834,
285,0.49942,0.1,2,0.30798,0.38289,0.6326,285,2.34728,0.056,0.02497,0.52439,5,1U1D,2.0,True,0.457,30,False,right,0.0,0.0007764999754726887,2.348782300017774,2.3480058000423014,0.2985849999822676,0.7987773001659662,0.5001923001836985,
286,0.49942,1.2,2,0.44948,0.35792,0.43283,286,2.36392,0.256,0.12485,0.62427,5,1D1U,1.0,False,0.793,35,True,left,0.0,0.0007613000925630331,2.3656729999929667,2.3649116999004036,0.44073870009742677,0.9407208000775427,0.4999820999801159,
287,0.49942,0.1,1,0.21642,0.283,0.67422,287,2.16416,-0.016,-0.00832,0.4911,5,1U1D,1.0,False,0.334,30,False,left,0.0,0.0007803000044077635,2.167025800095871,2.1662455000914633,1.3754247000906616,1.875454599969089,0.5000298998784274,
288,0.49942,1.2,1,0.43283,0.39121,0.66589,288,2.80507,0.624,0.30798,0.81572,5,2D1U,2.0,False,0.669,19,False,right,0.0,0.0009979000315070152,2.7998740000184625,2.7988760999869555,1.908113299869001,2.408183499937877,0.5000702000688761,
289,0.49942,0.1,2,0.39954,0.3163,0.6326,289,2.69687,0.696,0.34959,0.84901,5,2D1U,2.0,True,0.37,19,False,right,0.0,0.0008938000537455082,2.698969299905002,2.6980754998512566,0.3908551000058651,0.8907863998319954,0.49993129982613027,
290,0.49942,1.2,1,0.33295,0.40786,0.64925,290,2.55537,0.328,0.16647,0.66589,5,1D1U,2.0,False,1.724,36,True,right,0.0,0.0007955001201480627,2.566478000022471,2.565682499902323,1.6411598999984562,2.1413634999189526,0.5002035999204963,
291,0.49942,0.1,1,0.34959,0.26636,0.6326,291,2.20577,-0.088,-0.04162,0.4578,5,1U1D,2.0,True,0.8,31,True,right,0.0,0.0006764999125152826,2.208060000091791,2.207383500179276,1.4331608000211418,1.9329463001340628,0.499785500112921,
292,0.49942,1.2,2,0.43283,0.3163,0.74913,292,2.48878,-0.016,-0.00832,0.4911,5,1U1D,1.0,True,0.72,32,True,left,0.0,0.0008409000001847744,2.4987973000388592,2.4979564000386745,0.42407760000787675,0.9241104000248015,0.5000328000169247,
293,0.49942,0.1,1,0.29133,0.22474,0.42451,293,1.96439,0.056,0.02497,0.52439,5,1U1D,2.0,False,1.52,32,False,right,0.0,0.0009061000309884548,1.9746422001626343,1.9737361001316458,1.2334428001195192,1.7333347001112998,0.4998918999917805,
294,0.49942,1.2,1,0.44115,0.26636,0.5993,294,2.65524,0.696,0.34959,0.84901,5,2D1U,2.0,False,0.6,19,False,right,0.0,0.0008008999284356833,2.6578609000425786,2.657060000114143,1.8833302001003176,2.382927500177175,0.4995973000768572,
295,0.49942,0.1,2,0.29965,0.24971,0.86566,295,2.61363,0.4,0.19977,0.69919,5,1D1U,2.0,True,0.2,36,False,right,0.0,0.000480499817058444,2.616478499956429,2.6159980001393706,0.29164599999785423,0.7917849000077695,0.5001389000099152,
296,0.49942,1.2,2,0.24139,0.27468,0.64925,296,2.33063,0.328,0.16647,0.66589,5,1D1U,1.0,False,0.878,37,True,left,0.0,0.0008206998463720083,2.3316883000079542,2.3308676001615822,0.23200650000944734,0.73198699997738,0.4999804999679327,
297,0.49942,0.1,1,0.36624,0.42451,0.47445,297,2.33063,0.128,0.06659,0.56601,5,1U1D,2.0,False,1.254,33,True,right,0.0,0.0007505000103265047,2.3326512998901308,2.3319007998798043,1.3992781999986619,1.8991960999555886,0.4999178999569267,
298,0.49942,1.2,1,0.42451,0.30798,0.4578,298,2.28901,0.2,0.09988,0.5993,5,1U1D,1.0,True,1.294,33,False,left,0.0,0.0008234998676925898,2.3081008000299335,2.307277300162241,1.4748265000525862,1.9747886001132429,0.49996210006065667,
299,0.49942,0.1,1,0.23306,0.40786,0.76578,299,2.47213,0.128,0.06659,0.56601,5,1U1D,2.0,False,0.756,34,True,right,0.0,0.0006750000175088644,2.465934199979529,2.46525919996202,1.557680199854076,2.05752639984712,0.49984619999304414,
300,0.49942,1.2,2,0.24971,0.22474,0.5993,300,2.45548,0.768,0.38289,0.88231,5,2D1U,1.0,False,0.63,19,False,left,0.0,0.0007476001046597958,2.4576131000649184,2.4568654999602586,0.2412674999795854,0.741187300067395,0.49991980008780956,
301,0.49942,0.1,1,0.27468,0.23306,0.43283,301,2.13918,0.4,0.19977,0.69919,5,1D1U,2.0,False,0.719,38,True,right,0.0,0.0002859998494386673,2.14967399998568,2.1493880001362413,1.3997919000685215,1.8996990001760423,0.4999071001075208,
302,0.49942,1.2,1,0.43283,0.43283,0.64925,302,2.61363,0.2,0.09988,0.5993,5,1U1D,2.0,False,1.906,35,True,right,0.0,0.0008835000917315483,2.6323714000172913,2.6314878999255598,1.6739807999692857,2.1739765000529587,0.499995700083673,
303,0.49942,0.1,2,0.24139,0.34127,0.6326,303,2.63861,0.84,0.41618,0.92393,5,2D1U,2.0,True,0.38,19,False,right,0.0,0.0002717000897973776,2.66542059998028,2.6651488998904824,0.23251780006103218,0.7325273999013007,0.5000095998402685,
304,0.49942,1.2,2,0.24971,0.283,0.84901,304,2.80507,0.84,0.41618,0.92393,5,2D1U,2.0,True,0.403,19,False,right,0.0,0.0003646998666226864,2.816245900001377,2.815881200134754,0.24115510005503893,0.741088500013575,0.49993339995853603,
305,0.49942,0.1,2,0.24971,0.38289,0.86566,305,2.87999,0.768,0.38289,0.88231,5,2D1U,2.0,True,0.279,20,True,right,0.0,0.001107499934732914,2.8817219000775367,2.880614400142804,0.24002379993908107,0.7400843999348581,0.500060599995777,
306,0.49942,1.2,2,0.30798,0.283,0.55769,306,2.38057,0.472,0.23306,0.73248,5,1D1U,1.0,False,2.336,38,False,left,0.0,0.0005694001447409391,2.3917668000794947,2.3911973999347538,0.3001157999970019,0.8003676999360323,0.5002518999390304,
307,0.49942,0.1,2,0.34959,0.44115,0.79907,307,2.97154,0.768,0.38289,0.88231,5,2D1U,2.0,True,0.285,20,True,right,0.0,0.00035830005072057247,2.983742499956861,2.9833841999061406,0.34193810005672276,0.8420715001411736,0.5001334000844508,
