,standardDur,audNoise,order,preDur,postDur,isiDur,trial_num,totalDur,delta_dur_percents,deltaDurS,testDurS,intensities,current_stair,responses,is_correct,response_rts,stair_num_reversal,stair_is_reversal,response_keys,conflictDur,recordedOnsetVisualTest,recordedOffsetVisualTest,recordedDurVisualTest,recordedOnsetVisualStandard,recordedOffsetVisualStandard,recordedDurVisualStandard,modalityPostCue
0,0.49919,1.2,2,0.40767,0.41599,0.51583,0,2.63739,0.6,0.29952,0.79871,5,3D1U,1.0,False,0.597,0,False,left,0.0,1.431,2.2305,0.7995,0.414,0.9135,0.4995,A
1,0.49919,0.1,1,0.44095,0.26624,0.64063,1,2.04669,-0.6,-0.29952,0.19968,5,2U1D,2.0,True,0.117,0,False,right,0.0,0.4514,0.6513,0.1999,1.2928,1.793,0.5002,A
2,0.49919,1.2,2,0.44927,0.39935,0.61567,2,2.16316,-0.6,-0.29952,0.19968,5,2U1D,1.0,True,0.292,0,False,left,0.0,1.5758,1.7769,0.2011,0.4594,0.9599,0.5005,V
3,0.49919,1.2,2,0.42431,0.29952,0.81535,3,2.08829,-0.9,-0.44927,0.04992,5,lapse_rate,1.0,True,0.325,0,False,left,0.0,1.7483,1.7983,0.05,0.4318,0.9317,0.4999,A
4,0.49919,0.1,1,0.39935,0.30784,0.88191,4,2.96188,0.75,0.37439,0.87359,5,3D1U,1.0,True,0.509,0,False,left,0.0,0.4047,1.2798,0.8751,2.1632,2.6636,0.5004,V
5,0.49919,1.2,1,0.28288,0.44095,0.85695,5,2.87868,0.6,0.29952,0.79871,5,2D1U,1.0,True,0.334,0,False,left,0.0,0.2875,1.0869,0.7994,1.946,2.4452,0.4992,A
6,0.49919,0.1,2,0.41599,0.21632,0.54079,6,1.87197,-0.6,-0.29952,0.19968,5,3U1D,1.0,True,1.233,0,False,left,0.0,1.4645,1.6653,0.2007,0.4231,0.9238,0.5007,A
7,0.49919,0.1,2,0.28288,0.2912,0.84031,7,1.9635,-0.9,-0.44927,0.04992,5,lapse_rate,1.0,True,0.501,0,False,left,0.0,1.6301,1.6798,0.0497,0.2872,0.7876,0.5004,V
8,0.49919,1.2,1,0.38271,0.40767,0.48255,8,1.9718,-0.6,-0.29952,0.19968,5,3U1D,2.0,True,0.267,0,False,right,0.0,0.3888,0.5885,0.1997,1.0723,1.572,0.4997,A
9,0.49919,0.1,2,0.35775,0.35775,0.65727,9,2.67067,0.6,0.29952,0.79871,5,2D1U,2.0,True,0.358,0,False,right,0.0,1.5201,2.32,0.7999,0.3615,0.8615,0.5,A
10,0.49919,1.2,1,0.38271,0.37439,0.87359,10,2.40444,-0.45,-0.22464,0.27456,5,2U1D,2.0,True,0.559,0,False,right,0.0,0.3924,0.6667,0.2743,1.5429,2.0417,0.4988,A
11,0.49919,0.1,2,0.28288,0.40767,0.76543,11,2.82876,0.75,0.37439,0.87359,5,3D1U,2.0,True,0.252,0,False,right,0.0,1.5603,2.436,0.8756,0.2931,0.7936,0.5005,V
12,0.49919,1.2,1,0.32447,0.44095,0.54079,12,2.07996,-0.45,-0.22464,0.27456,5,2U1D,2.0,True,0.675,0,False,right,0.0,0.3296,0.6041,0.2745,1.1469,1.6461,0.4992,A
13,0.49919,0.1,2,0.22464,0.23296,0.61567,13,1.62238,-0.9,-0.44927,0.04992,5,lapse_rate,1.0,True,0.476,0,False,left,0.0,1.3462,1.3962,0.05,0.23,0.7294,0.4994,A
14,0.49919,0.1,2,0.40767,0.30784,0.48255,14,1.89693,-0.6,-0.29952,0.19968,5,3U1D,1.0,True,2.108,0,False,left,0.0,1.3956,1.5956,0.2,0.4125,0.9131,0.5006,V
15,0.49919,1.2,2,0.21632,0.21632,0.68223,15,2.48765,0.75,0.37439,0.87359,5,3D1U,2.0,True,0.458,0,False,right,0.0,1.4041,2.2791,0.875,0.2207,0.7207,0.5001,V
16,0.49919,0.1,2,0.208,0.27456,0.50751,16,2.21309,0.45,0.22464,0.72383,5,2D1U,2.0,True,2.143,0,False,right,0.0,1.2213,1.9462,0.7249,0.2131,0.7135,0.5004,V
17,0.49919,1.2,2,0.22464,0.42431,0.44095,17,2.42108,0.66,0.33279,0.83199,5,3D1U,2.0,True,0.317,1,True,right,0.0,1.172,2.0054,0.8334,0.2306,0.7304,0.4998,A
18,0.49919,0.1,2,0.21632,0.28288,0.67391,18,1.72222,-0.9,-0.44927,0.04992,5,lapse_rate,1.0,True,0.443,0,False,left,0.0,1.399,1.449,0.05,0.2235,0.724,0.5005,V
19,0.49919,0.1,2,0.208,0.33279,0.77375,19,2.53756,0.45,0.22464,0.72383,5,2D1U,2.0,True,0.359,0,False,right,0.0,1.4878,2.2129,0.7251,0.2131,0.7132,0.5001,A
20,0.49919,1.2,1,0.25792,0.29952,0.86527,20,2.27133,-0.3,-0.14976,0.34943,5,2U1D,2.0,True,0.85,0,False,right,0.0,0.2682,0.6184,0.3502,1.4854,1.9848,0.4995,V
21,0.49919,0.1,2,0.208,0.39935,0.42431,21,1.80541,-0.45,-0.22464,0.27456,5,3U1D,1.0,True,0.543,0,False,left,0.0,1.1396,1.4148,0.2752,0.2146,0.7149,0.5003,V
22,0.49919,1.2,1,0.23296,0.33279,0.79039,22,2.20476,-0.3,-0.14976,0.34943,5,2U1D,2.0,True,0.292,0,False,right,0.0,0.2389,0.589,0.3501,1.3807,1.881,0.5003,A
23,0.49919,0.1,2,0.32447,0.34111,0.72383,23,2.16316,-0.45,-0.22464,0.27456,5,3U1D,1.0,True,0.909,0,False,left,0.0,1.5579,1.833,0.2751,0.3329,0.8331,0.5002,A
24,0.49919,1.2,1,0.29952,0.22464,0.74879,24,2.60413,0.66,0.33279,0.83199,5,3D1U,1.0,True,0.483,1,True,left,0.0,0.3043,1.1372,0.8329,1.888,2.3872,0.4992,V
25,0.49919,1.2,1,0.30784,0.36607,0.39935,25,2.52092,0.9,0.44927,0.94847,5,lapse_rate,1.0,True,0.941,0,False,left,0.0,0.312,1.2622,0.9503,1.6618,2.1622,0.5004,V
26,0.49919,0.1,1,0.43263,0.41599,0.54911,26,2.54587,0.3,0.14976,0.64895,5,2D1U,1.0,True,0.417,0,False,left,0.0,0.4393,1.0896,0.6503,1.6393,2.1391,0.4997,A
27,0.49919,1.2,2,0.22464,0.29952,0.85695,27,2.52925,0.3,0.14976,0.64895,5,2D1U,2.0,True,1.425,0,False,right,0.0,1.5857,2.236,0.6503,0.2276,0.7284,0.5008,V
28,0.49919,1.2,1,0.44095,0.2496,0.81535,28,2.05501,-0.9,-0.44927,0.04992,5,lapse_rate,2.0,True,0.292,0,False,right,0.0,0.4471,0.4972,0.0501,1.3141,1.8149,0.5007,V
29,0.49919,0.1,1,0.26624,0.30784,0.46591,29,1.96349,-0.15,-0.07488,0.42431,5,2U1D,2.0,True,0.392,0,False,right,0.0,0.2793,0.703,0.4237,1.17,1.6696,0.4996,A
30,0.49919,1.2,1,0.22464,0.38271,0.74047,30,2.679,0.66,0.33279,0.83199,5,3D1U,1.0,True,0.392,1,True,left,0.0,0.231,1.0645,0.8335,1.8057,2.3053,0.4996,A
31,0.49919,0.1,2,0.23296,0.26624,0.58239,31,1.85534,-0.45,-0.22464,0.27456,5,3U1D,1.0,True,0.942,0,False,left,0.0,1.3213,1.5962,0.2749,0.2382,0.7387,0.5005,V
32,0.49919,1.2,1,0.27456,0.32447,0.89023,32,2.77052,0.57,0.28288,0.78207,5,3D1U,1.0,True,0.317,1,False,left,0.0,0.2801,1.0634,0.7833,1.9559,2.4551,0.4992,A
33,0.49919,0.1,1,0.31616,0.34111,0.68223,33,2.18812,-0.3,-0.14976,0.34943,5,3U1D,2.0,True,0.292,0,False,right,0.0,0.3234,0.674,0.3506,1.3563,1.8567,0.5003,A
34,0.49919,1.2,2,0.43263,0.27456,0.47423,34,2.25468,0.15,0.07488,0.57407,5,2D1U,2.0,True,0.35,0,False,right,0.0,1.4147,1.9907,0.576,0.4401,0.9406,0.5005,V
35,0.49919,1.2,2,0.32447,0.33279,0.72383,35,2.82875,0.9,0.44927,0.94847,5,lapse_rate,2.0,True,0.351,0,False,right,0.0,1.5556,2.5056,0.95,0.3307,0.8308,0.5,A
36,0.49919,0.1,2,0.33279,0.37439,0.84031,36,2.47099,-0.15,-0.07488,0.42431,5,2U1D,1.0,True,2.608,0,False,left,0.0,1.6782,2.1021,0.4239,0.3359,0.8362,0.5003,V
37,0.49919,1.2,2,0.21632,0.2912,0.89023,37,2.39613,0.0,0.0,0.49919,5,2U1D,2.0,False,0.484,0,False,right,0.0,1.6159,2.1163,0.5005,0.2251,0.7244,0.4992,V
38,0.49919,0.1,1,0.2912,0.21632,0.84031,38,2.19645,-0.3,-0.14976,0.34943,5,3U1D,2.0,True,2.432,0,False,right,0.0,0.3019,0.6515,0.3496,1.4932,1.9939,0.5007,A
39,0.49919,0.1,1,0.41599,0.36607,0.72383,39,2.055,-0.9,-0.44927,0.04992,5,lapse_rate,2.0,True,0.342,0,False,right,0.0,0.4199,0.4703,0.0504,1.1947,1.6948,0.5,V
40,0.49919,1.2,1,0.34943,0.40767,0.64895,40,2.68731,0.57,0.28288,0.78207,5,3D1U,1.0,True,1.142,1,False,left,0.0,0.3572,1.1407,0.7834,1.7918,2.2904,0.4986,V
41,0.49919,0.1,1,0.34111,0.34111,0.63231,41,2.38779,0.15,0.07488,0.57407,5,2D1U,1.0,True,0.757,0,False,left,0.0,0.3515,0.9267,0.5751,1.5605,2.0599,0.4995,V
42,0.49919,1.2,2,0.39935,0.33279,0.74879,42,2.47931,-0.0,0.0,0.49919,5,2D1U,2.0,False,3.167,0,False,right,0.0,1.6522,2.1525,0.5003,0.4026,0.9022,0.4996,A
43,0.49919,1.2,2,0.22464,0.41599,0.86527,43,2.05501,-0.9,-0.44927,0.04992,5,lapse_rate,1.0,True,2.284,0,False,left,0.0,1.5967,1.6464,0.0497,0.2294,0.7298,0.5004,V
44,0.49919,0.1,1,0.24128,0.40767,0.44095,44,2.1382,0.09,0.0416,0.54911,5,2U1D,1.0,True,2.918,1,True,left,0.0,0.2448,0.7945,0.5497,1.2364,1.7359,0.4995,V
45,0.49919,1.2,1,0.35775,0.39935,0.49087,45,2.09659,-0.3,-0.14976,0.34943,5,3U1D,2.0,True,0.592,0,False,right,0.0,0.367,0.7167,0.3497,1.2087,1.7098,0.5012,A
46,0.49919,0.1,1,0.29952,0.2912,0.68223,46,2.55421,0.57,0.28288,0.78207,5,3D1U,1.0,True,0.417,1,False,left,0.0,0.3066,1.0901,0.7835,1.7741,2.2732,0.4991,A
47,0.49919,1.2,2,0.38271,0.39935,0.77375,47,3.00347,0.9,0.44927,0.94847,5,lapse_rate,2.0,True,6.8,0,False,right,0.0,1.6614,2.6121,0.9507,0.3867,0.8866,0.4998,V
48,0.49919,1.2,2,0.40767,0.43263,0.55743,48,2.32123,-0.15,-0.07488,0.42431,5,3U1D,1.0,True,3.26,0,False,left,0.0,1.4751,1.8999,0.4248,0.418,0.9164,0.4984,A
49,0.49919,0.1,2,0.208,0.44927,0.87359,49,2.57916,0.09,0.0416,0.54911,5,2U1D,1.0,False,0.9,1,True,left,0.0,1.592,2.1417,0.5497,0.2162,0.7167,0.5006,A
50,0.49919,1.2,2,0.208,0.34111,0.79871,50,2.58748,0.48,0.24128,0.74047,5,3D1U,2.0,True,1.334,1,False,right,0.0,1.5129,2.2545,0.7416,0.2128,0.7139,0.5011,V
51,0.49919,0.1,1,0.39935,0.32447,0.66559,51,2.34619,-0.09,-0.0416,0.45759,5,2D1U,1.0,False,2.392,1,True,left,0.0,0.4101,0.8691,0.4591,1.5347,2.0346,0.4999,A
52,0.49919,1.2,2,0.37439,0.42431,0.69887,52,2.40443,-0.18,-0.09152,0.40767,5,2D1U,1.0,True,1.393,1,False,left,0.0,1.5784,1.9856,0.4071,0.3774,0.8776,0.5002,V
53,0.49919,0.1,1,0.23296,0.42431,0.74879,53,2.64572,0.48,0.24128,0.74047,5,3D1U,1.0,True,0.449,1,False,left,0.0,0.2423,0.9838,0.7415,1.734,2.234,0.5001,A
54,0.49919,1.2,2,0.35775,0.34943,0.62399,54,2.42107,0.18,0.09152,0.59071,5,2U1D,2.0,True,0.392,1,False,right,0.0,1.4885,2.081,0.5925,0.3637,0.8633,0.4995,V
55,0.49919,1.2,2,0.21632,0.34943,0.39935,55,2.41276,0.9,0.44927,0.94847,5,lapse_rate,2.0,True,0.334,0,False,right,0.0,1.124,2.0743,0.9503,0.2242,0.7242,0.5,V
56,0.49919,0.1,2,0.27456,0.37439,0.63231,56,2.20476,-0.15,-0.07488,0.42431,5,3U1D,1.0,True,0.525,0,False,left,0.0,1.413,1.8385,0.4255,0.2796,0.7795,0.4999,A
57,0.49919,1.2,1,0.39935,0.22464,0.44927,57,1.99676,-0.15,-0.07488,0.42431,5,3U1D,1.0,False,0.524,0,False,left,0.0,0.4083,0.833,0.4247,1.2838,1.7836,0.4998,V
58,0.49919,0.1,2,0.27456,0.25792,0.59071,58,2.36285,0.48,0.24128,0.74047,5,3D1U,2.0,True,0.334,1,False,right,0.0,1.3748,2.1176,0.7429,0.283,0.7835,0.5005,A
59,0.49919,1.2,2,0.33279,0.23296,0.52415,59,2.1798,0.18,0.09152,0.59071,5,2U1D,2.0,True,0.492,1,False,right,0.0,1.3692,1.9602,0.5909,0.3432,0.8435,0.5003,V
60,0.49919,0.1,1,0.27456,0.22464,0.48255,60,1.88861,-0.18,-0.09152,0.40767,5,2D1U,2.0,True,0.908,1,False,right,0.0,0.2841,0.6931,0.409,1.1757,1.6765,0.5008,A
61,0.49919,0.1,1,0.43263,0.19968,0.80703,61,2.887,0.9,0.44927,0.94847,5,lapse_rate,1.0,True,0.433,0,False,left,0.0,0.4367,1.3863,0.9496,2.1951,2.6949,0.4998,A
62,0.49919,1.2,2,0.28288,0.34943,0.85695,62,2.68732,0.39,0.19136,0.69887,5,3D1U,2.0,True,0.242,1,False,right,0.0,1.6515,2.3511,0.6996,0.293,0.7931,0.5001,V
63,0.49919,0.1,1,0.25792,0.44095,0.48255,63,2.06332,-0.24,-0.11648,0.38271,5,3U1D,1.0,False,0.7,1,True,left,0.0,0.263,0.6463,0.3833,1.1296,1.6303,0.5007,A
64,0.49919,1.2,1,0.27456,0.35775,0.81535,64,2.5126,0.126,0.06656,0.56575,5,2U1D,1.0,True,1.316,2,True,left,0.0,0.2784,0.8452,0.5668,1.6617,2.162,0.5003,A
65,0.49919,0.1,1,0.39935,0.37439,0.69055,65,2.91195,0.9,0.44927,0.94847,5,lapse_rate,1.0,True,3.051,0,False,left,0.0,0.4048,1.3547,0.9499,2.0463,2.5468,0.5006,A
66,0.49919,0.1,2,0.24128,0.40767,0.83199,66,2.42108,-0.126,-0.06656,0.44095,5,2D1U,1.0,True,1.259,2,True,left,0.0,1.5784,2.0198,0.4414,0.2444,0.7444,0.5,A
67,0.49919,1.2,2,0.26624,0.208,0.78207,67,2.19645,-0.126,-0.06656,0.44095,5,2D1U,2.0,False,0.85,2,True,right,0.0,1.5593,2.0006,0.4412,0.2754,0.7757,0.5003,A
68,0.49919,0.1,2,0.32447,0.31616,0.45759,68,2.29628,0.39,0.19136,0.69887,5,3D1U,1.0,False,0.426,1,False,left,0.0,1.2931,1.9925,0.6994,0.3339,0.8341,0.5001,A
69,0.49919,1.2,2,0.41599,0.27456,0.49919,69,1.73885,-0.9,-0.44927,0.04992,5,lapse_rate,1.0,True,0.668,0,False,left,0.0,1.4226,1.4723,0.0496,0.4222,0.9218,0.4996,A
70,0.49919,1.2,1,0.36607,0.34111,0.81535,70,2.58747,0.126,0.06656,0.56575,5,2U1D,1.0,True,0.326,2,True,left,0.0,0.3734,0.94,0.5666,1.7571,2.2563,0.4992,A
71,0.49919,0.1,1,0.39103,0.35775,0.62399,71,2.20475,-0.33,-0.1664,0.33279,5,3U1D,2.0,True,0.451,1,False,right,0.0,0.3986,0.7318,0.3332,1.357,1.8581,0.5011,A
72,0.49919,1.2,1,0.31616,0.30784,0.65727,72,2.11325,-0.33,-0.1664,0.33279,5,3U1D,2.0,True,0.95,1,False,right,0.0,0.3227,0.6563,0.3337,1.3155,1.8144,0.4989,V
73,0.49919,0.1,2,0.27456,0.25792,0.59071,73,2.57085,0.9,0.44927,0.94847,5,lapse_rate,2.0,True,0.559,0,False,right,0.0,1.3699,2.3193,0.9494,0.2777,0.7782,0.5005,A
74,0.49919,0.1,2,0.208,0.28288,0.85695,74,2.25469,-0.18,-0.09152,0.40767,5,2D1U,1.0,True,1.025,3,True,left,0.0,1.5738,1.9822,0.4084,0.2164,0.716,0.4996,A
75,0.49919,1.2,2,0.44095,0.35775,0.59071,75,2.42107,0.072,0.03328,0.53247,5,2U1D,2.0,True,0.617,2,False,right,0.0,1.5373,2.0707,0.5334,0.4465,0.9458,0.4993,A
76,0.49919,0.1,1,0.29952,0.34943,0.55743,76,2.4294,0.444,0.22464,0.72383,5,3D1U,1.0,True,2.034,2,True,left,0.0,0.3087,1.0336,0.7249,1.5915,2.0924,0.5009,A
77,0.49919,1.2,2,0.44095,0.2912,0.68223,77,2.24636,-0.33,-0.1664,0.33279,5,3U1D,1.0,True,0.501,1,False,left,0.0,1.6308,1.964,0.3332,0.4474,0.9486,0.5011,V
78,0.49919,0.1,2,0.35775,0.31616,0.82367,78,2.04669,-0.9,-0.44927,0.04992,5,lapse_rate,2.0,False,0.501,0,False,right,0.0,1.6886,1.7386,0.05,0.3642,0.8636,0.4994,A
79,0.49919,0.1,2,0.29952,0.38271,0.49919,79,2.21308,0.072,0.03328,0.53247,5,2U1D,1.0,False,3.976,2,False,left,0.0,1.3026,1.837,0.5343,0.3029,0.8043,0.5014,V
80,0.49919,1.2,2,0.43263,0.208,0.85695,80,2.7206,0.444,0.22464,0.72383,5,3D1U,1.0,False,0.533,2,True,left,0.0,1.7978,2.524,0.7262,0.4411,0.9397,0.4986,V
81,0.49919,0.1,1,0.23296,0.2912,0.85695,81,2.28797,-0.18,-0.09152,0.40767,5,2D1U,1.0,False,2.375,3,True,left,0.0,0.2369,0.6451,0.4082,1.5033,2.0038,0.5005,A
82,0.49919,1.2,2,0.25792,0.26624,0.84031,82,2.42941,0.126,0.06656,0.56575,5,2U1D,1.0,False,7.058,3,True,left,0.0,1.603,2.1694,0.5665,0.2611,0.7612,0.5001,V
83,0.49919,0.1,1,0.39103,0.38271,0.40767,83,2.06331,-0.234,-0.11648,0.38271,5,2D1U,2.0,True,4.184,3,False,right,0.0,0.3957,0.7796,0.3839,1.1877,1.6872,0.4996,A
84,0.49919,1.2,2,0.40767,0.29952,0.72383,84,2.679,0.498,0.2496,0.74879,5,3D1U,2.0,True,1.167,2,False,right,0.0,1.6357,2.3856,0.7499,0.4106,0.9106,0.5,A
85,0.49919,0.1,2,0.25792,0.30784,0.59071,85,2.02173,-0.276,-0.14144,0.36607,5,3U1D,1.0,True,0.366,2,True,left,0.0,1.3526,1.7188,0.3663,0.2607,0.7606,0.4998,V
86,0.49919,0.1,1,0.27456,0.24128,0.52415,86,2.48765,0.9,0.44927,0.94847,5,lapse_rate,1.0,True,0.409,0,False,left,0.0,0.2796,1.2295,0.9499,1.7552,2.2546,0.4994,V
87,0.49919,0.1,1,0.26624,0.24128,0.42431,87,1.48094,-0.9,-0.44927,0.04992,5,lapse_rate,2.0,True,0.108,0,False,right,0.0,0.2754,0.3257,0.0503,0.7504,1.2505,0.5001,A
88,0.49919,1.2,2,0.34943,0.25792,0.58239,88,2.07164,-0.234,-0.11648,0.38271,5,2D1U,2.0,False,6.891,3,False,right,0.0,1.4375,1.8206,0.3832,0.3538,0.854,0.5002,V
89,0.49919,0.1,1,0.2912,0.26624,0.54079,89,1.96349,-0.276,-0.14144,0.36607,5,3U1D,2.0,True,1.784,2,True,right,0.0,0.3008,0.6681,0.3673,1.2092,1.7094,0.5002,A
90,0.49919,1.2,1,0.27456,0.2912,0.73215,90,2.54589,0.498,0.2496,0.74879,5,3D1U,1.0,True,0.275,2,False,left,0.0,0.2838,1.0345,0.7508,1.7671,2.2669,0.4998,A
91,0.49919,0.1,2,0.35775,0.23296,0.81535,91,2.49596,0.18,0.09152,0.59071,5,2U1D,2.0,True,0.425,3,False,right,0.0,1.6833,2.2751,0.5918,0.3662,0.8663,0.5001,A
92,0.49919,1.2,1,0.22464,0.23296,0.53247,92,1.85533,-0.276,-0.14144,0.36607,5,3U1D,2.0,True,0.292,2,True,right,0.0,0.2276,0.5948,0.3672,1.1274,1.6275,0.5001,A
93,0.49919,0.1,1,0.28288,0.43263,0.83199,93,2.99516,0.9,0.44927,0.94847,5,lapse_rate,1.0,True,0.176,0,False,left,0.0,0.2937,1.2437,0.9499,2.078,2.5773,0.4992,V
94,0.49919,0.1,1,0.39935,0.40767,0.65727,94,2.55419,0.18,0.09152,0.59071,5,2U1D,1.0,True,0.291,3,False,left,0.0,0.4055,0.997,0.5915,1.656,2.1551,0.4991,V
95,0.49919,1.2,1,0.34943,0.34943,0.44927,95,2.00507,-0.288,-0.14144,0.35775,5,2D1U,2.0,True,0.109,3,False,right,0.0,0.3557,0.7146,0.3589,1.1636,1.6644,0.5008,A
96,0.49919,0.1,2,0.30784,0.39935,0.88191,96,2.83708,0.498,0.2496,0.74879,5,3D1U,2.0,True,0.158,2,False,right,0.0,1.6993,2.45,0.7507,0.316,0.816,0.5,A
97,0.49919,1.2,1,0.25792,0.43263,0.41599,97,1.99676,-0.222,-0.10816,0.39103,5,3U1D,2.0,True,0.5,2,False,right,0.0,0.2634,0.6548,0.3914,1.0717,1.5714,0.4997,A
98,0.49919,0.1,1,0.23296,0.36607,0.44095,98,1.89692,-0.288,-0.14144,0.35775,5,2D1U,2.0,True,0.301,3,False,right,0.0,0.2393,0.5984,0.3591,1.0388,1.5396,0.5008,A
99,0.49919,1.2,2,0.41599,0.23296,0.77375,99,2.48764,0.126,0.06656,0.56575,5,2U1D,2.0,True,0.85,4,True,right,0.0,1.6999,2.267,0.5671,0.425,0.925,0.5,A
100,0.49919,0.1,2,0.30784,0.30784,0.62399,100,1.78878,-0.9,-0.44927,0.04992,5,lapse_rate,1.0,True,0.375,0,False,left,0.0,1.4364,1.486,0.0496,0.3114,0.812,0.5005,A
101,0.49919,0.1,1,0.41599,0.40767,0.84863,101,2.89531,0.444,0.22464,0.72383,5,3D1U,1.0,True,0.367,3,True,left,0.0,0.4237,1.1481,0.7244,1.9978,2.4989,0.5011,A
102,0.49919,1.2,1,0.33279,0.28288,0.86527,102,2.36284,-0.234,-0.11648,0.38271,5,2D1U,2.0,True,0.518,4,True,right,0.0,0.3357,0.7189,0.3832,1.5855,2.0864,0.5009,V
103,0.49919,1.2,2,0.44927,0.27456,0.65727,103,2.82876,0.9,0.44927,0.94847,5,lapse_rate,2.0,True,0.308,0,False,right,0.0,1.6181,2.5679,0.9498,0.4596,0.9608,0.5012,V
104,0.49919,0.1,2,0.30784,0.25792,0.87359,104,2.66237,0.444,0.22464,0.72383,5,3D1U,2.0,True,0.451,3,True,right,0.0,1.687,2.4128,0.7257,0.3124,0.8126,0.5002,A
105,0.49919,1.2,1,0.38271,0.37439,0.69887,105,2.52091,0.126,0.06656,0.56575,5,2U1D,1.0,True,0.383,4,True,left,0.0,0.3921,0.9586,0.5664,1.6585,2.159,0.5005,V
106,0.49919,0.1,2,0.43263,0.23296,0.54079,106,2.0966,-0.222,-0.10816,0.39103,5,3U1D,1.0,True,0.517,2,False,left,0.0,1.4787,1.8702,0.3914,0.4372,0.9371,0.5,V
107,0.49919,1.2,2,0.29952,0.43263,0.62399,107,2.3878,0.072,0.03328,0.53247,5,2U1D,2.0,True,0.276,4,False,right,0.0,1.4298,1.963,0.5332,0.3058,0.8047,0.499,V
108,0.49919,0.1,2,0.39935,0.2496,0.88191,108,2.75388,0.444,0.22464,0.72383,5,3D1U,2.0,True,0.783,3,True,right,0.0,1.7869,2.5123,0.7254,0.4033,0.9039,0.5007,A
109,0.49919,0.1,1,0.22464,0.41599,0.64063,109,2.72892,0.9,0.44927,0.94847,5,lapse_rate,1.0,True,0.326,0,False,left,0.0,0.2298,1.1795,0.9497,1.8223,2.3214,0.4991,V
110,0.49919,1.2,1,0.35775,0.36607,0.44095,110,2.05499,-0.222,-0.10816,0.39103,5,3U1D,1.0,False,0.425,2,False,left,0.0,0.3637,0.7563,0.3926,1.1971,1.6975,0.5004,V
111,0.49919,0.1,2,0.39935,0.38271,0.67391,111,2.33787,-0.234,-0.11648,0.38271,5,2D1U,1.0,True,0.9,4,True,left,0.0,1.5815,1.9658,0.3843,0.4067,0.9066,0.5,V
112,0.49919,1.2,2,0.43263,0.27456,0.74047,112,2.35452,-0.18,-0.09152,0.40767,5,2D1U,1.0,True,0.426,4,False,left,0.0,1.6809,2.0889,0.4081,0.439,0.9389,0.4999,V
113,0.49919,0.1,2,0.37439,0.25792,0.65727,113,2.48764,0.39,0.19136,0.69887,5,3D1U,2.0,True,0.417,3,False,right,0.0,1.54,2.2389,0.6989,0.3807,0.8805,0.4998,A
114,0.49919,1.2,1,0.32447,0.31616,0.76543,114,2.27132,-0.276,-0.14144,0.36607,5,3U1D,2.0,True,0.375,3,True,right,0.0,0.333,0.7,0.367,1.4674,1.9668,0.4994,A
115,0.49919,0.1,2,0.34943,0.208,0.45759,115,2.04668,0.072,0.03328,0.53247,5,2U1D,1.0,False,1.1,4,False,left,0.0,1.3169,1.8506,0.5336,0.3586,0.8584,0.4998,A
116,0.49919,1.2,1,0.33279,0.35775,0.67391,116,2.81211,0.9,0.44927,0.94847,5,lapse_rate,2.0,False,0.417,0,False,right,0.0,0.3434,1.2929,0.9495,1.9676,2.4674,0.4998,V
117,0.49919,1.2,1,0.29952,0.34943,0.81535,117,2.01341,-0.9,-0.44927,0.04992,5,lapse_rate,2.0,True,0.267,0,False,right,0.0,0.3034,0.3532,0.0498,1.1697,1.6697,0.5,A
118,0.49919,1.2,1,0.27456,0.37439,0.64063,118,2.48764,0.39,0.19136,0.69887,5,3D1U,1.0,True,0.309,3,False,left,0.0,0.2782,0.9781,0.6999,1.6206,2.1199,0.4993,A
119,0.49919,0.1,1,0.31616,0.36607,0.46591,119,2.0134,-0.276,-0.14144,0.36607,5,3U1D,2.0,True,0.267,3,True,right,0.0,0.3254,0.6926,0.3672,1.1592,1.6593,0.5001,A
120,0.49919,1.2,2,0.37439,0.42431,0.59071,120,2.29627,-0.18,-0.09152,0.40767,5,2D1U,1.0,True,0.7,4,False,left,0.0,1.4725,1.88,0.4076,0.3811,0.8799,0.4988,V
121,0.49919,0.1,2,0.37439,0.22464,0.49919,121,2.16316,0.126,0.06656,0.56575,5,2U1D,1.0,False,0.401,5,True,left,0.0,1.3796,1.9463,0.5667,0.3794,0.8793,0.4999,A
122,0.49919,1.2,1,0.37439,0.23296,0.84031,122,2.31292,-0.276,-0.14144,0.36607,5,3U1D,1.0,False,1.4,3,True,left,0.0,0.3798,0.7463,0.3664,1.5879,2.0889,0.501,A
123,0.49919,0.1,2,0.39935,0.39935,0.83199,123,2.57083,-0.126,-0.06656,0.44095,5,2D1U,1.0,True,0.368,4,False,left,0.0,1.7438,2.1853,0.4414,0.41,0.9099,0.4999,A
124,0.49919,1.2,1,0.208,0.25792,0.66559,124,2.57917,0.9,0.44927,0.94847,5,lapse_rate,1.0,True,0.351,0,False,left,0.0,0.2111,1.1609,0.9497,1.8272,2.3273,0.5001,V
125,0.49919,1.2,1,0.38271,0.33279,0.39935,125,2.31291,0.39,0.19136,0.69887,5,3D1U,1.0,True,0.742,3,False,left,0.0,0.3855,1.0864,0.7009,1.4854,1.9851,0.4997,A
126,0.49919,0.1,1,0.36607,0.42431,0.89023,126,2.77051,0.18,0.09152,0.59071,5,2U1D,1.0,True,0.316,5,False,left,0.0,0.3696,0.9618,0.5922,1.8537,2.3528,0.4992,V
127,0.49919,1.2,2,0.40767,0.2912,0.60735,127,2.471,0.336,0.1664,0.66559,5,3D1U,2.0,True,0.25,3,False,right,0.0,1.5211,2.1882,0.667,0.413,0.9129,0.5,V
128,0.49919,0.1,1,0.43263,0.39935,0.74879,128,2.52091,-0.126,-0.06656,0.44095,5,2D1U,2.0,True,0.6,4,False,right,0.0,0.4387,0.8801,0.4414,1.6301,2.13,0.4999,V
129,0.49919,1.2,2,0.33279,0.36607,0.42431,129,2.21307,0.18,0.09152,0.59071,5,2U1D,1.0,False,0.942,5,False,left,0.0,1.2668,1.8584,0.5916,0.3427,0.8421,0.4994,A
130,0.49919,1.2,2,0.23296,0.44095,0.77375,130,1.99677,-0.9,-0.44927,0.04992,5,lapse_rate,1.0,True,0.333,0,False,left,0.0,1.5175,1.567,0.0495,0.2423,0.7431,0.5009,V
131,0.49919,0.1,2,0.26624,0.34943,0.54911,131,1.99676,-0.33,-0.1664,0.33279,5,3U1D,1.0,True,0.434,3,False,left,0.0,1.3223,1.6555,0.3332,0.2725,0.7721,0.4996,A
132,0.49919,1.2,2,0.22464,0.21632,0.69055,132,1.96349,-0.33,-0.1664,0.33279,5,3U1D,1.0,True,0.642,3,False,left,0.0,1.4255,1.7594,0.334,0.2336,0.7344,0.5008,A
133,0.49919,0.1,1,0.2496,0.32447,0.66559,133,2.40444,0.336,0.1664,0.66559,5,3D1U,1.0,True,2.076,3,False,left,0.0,0.2581,0.9249,0.6667,1.5911,2.0913,0.5002,A
134,0.49919,1.2,1,0.21632,0.21632,0.42431,134,1.40606,-0.9,-0.44927,0.04992,5,lapse_rate,2.0,True,3.625,0,False,right,0.0,0.2242,0.2748,0.0506,0.6997,1.1993,0.4997,V
135,0.49919,1.2,1,0.26624,0.35775,0.60735,135,2.3462,0.234,0.11648,0.61567,5,2U1D,1.0,True,1.249,5,False,left,0.0,0.2727,0.8893,0.6166,1.4981,1.9975,0.4994,A
136,0.49919,0.1,1,0.22464,0.30784,0.73215,136,2.22973,-0.072,-0.03328,0.46591,5,2D1U,2.0,True,0.334,4,False,right,0.0,0.2297,0.6965,0.4668,1.4304,1.9296,0.4992,A
137,0.49919,1.2,2,0.35775,0.35775,0.48255,137,2.31291,0.234,0.11648,0.61567,5,2U1D,2.0,True,0.333,5,False,right,0.0,1.3503,1.9671,0.6168,0.3669,0.8671,0.5002,A
138,0.49919,0.1,1,0.2496,0.37439,0.57407,138,2.36284,0.336,0.1664,0.66559,5,3D1U,2.0,False,0.534,3,False,right,0.0,0.2552,0.9217,0.6665,1.4964,1.9967,0.5003,A
139,0.49919,1.2,1,0.22464,0.37439,0.50751,139,1.93852,-0.33,-0.1664,0.33279,5,3U1D,1.0,False,0.909,3,False,left,0.0,0.2349,0.5679,0.3329,1.076,1.5762,0.5002,A
140,0.49919,0.1,2,0.36607,0.40767,0.77375,140,2.51259,-0.072,-0.03328,0.46591,5,2D1U,1.0,True,0.7,4,False,left,0.0,1.6477,2.114,0.4662,0.3725,0.8731,0.5006,V
141,0.49919,0.1,2,0.2496,0.2912,0.69055,141,2.67901,0.9,0.44927,0.94847,5,lapse_rate,2.0,True,0.393,0,False,right,0.0,1.448,2.3982,0.9502,0.256,0.756,0.5001,V
142,0.49919,1.2,2,0.25792,0.40767,0.66559,142,2.52924,0.39,0.19136,0.69887,5,3D1U,2.0,True,0.333,4,True,right,0.0,1.4281,2.1275,0.6994,0.261,0.7613,0.5003,A
143,0.49919,0.1,1,0.28288,0.30784,0.48255,143,2.16317,0.18,0.09152,0.59071,5,2U1D,1.0,True,0.65,6,True,left,0.0,0.2929,0.8852,0.5924,1.368,1.8674,0.4994,A
144,0.49919,1.2,1,0.23296,0.32447,0.89023,144,2.25469,-0.384,-0.19136,0.30784,5,3U1D,2.0,True,1.059,3,False,right,0.0,0.2408,0.5494,0.3086,1.4406,1.9415,0.5009,A
145,0.49919,0.1,2,0.37439,0.39103,0.44927,145,2.20475,-0.018,-0.00832,0.49087,5,2D1U,1.0,True,0.626,4,False,left,0.0,1.3314,1.8222,0.4908,0.3807,0.8804,0.4997,V
146,0.49919,1.2,2,0.43263,0.41599,0.47423,146,2.31291,-0.018,-0.00832,0.49087,5,2D1U,2.0,False,0.259,4,False,right,0.0,1.4169,1.9084,0.4915,0.442,0.9418,0.4997,A
147,0.49919,0.1,1,0.34111,0.28288,0.67391,147,2.3878,0.18,0.09152,0.59071,5,2U1D,1.0,True,0.501,6,True,left,0.0,0.3451,0.9369,0.5918,1.6125,2.1123,0.4998,A
148,0.49919,1.2,1,0.38271,0.43263,0.51583,148,2.1382,-0.384,-0.19136,0.30784,5,3U1D,2.0,True,0.625,3,False,right,0.0,0.3903,0.6986,0.3083,1.2159,1.716,0.5001,A
149,0.49919,0.1,2,0.38271,0.33279,0.88191,149,2.79547,0.39,0.19136,0.69887,5,3D1U,2.0,True,1.859,4,True,right,0.0,1.7753,2.4755,0.7003,0.3926,0.892,0.4993,V
150,0.49919,1.2,1,0.27456,0.44095,0.46591,150,2.37948,0.39,0.19136,0.69887,5,3D1U,1.0,True,0.326,4,True,left,0.0,0.2782,0.9786,0.7004,1.4448,1.9448,0.5001,V
151,0.49919,0.1,1,0.34943,0.40767,0.81535,151,2.53755,-0.072,-0.03328,0.46591,5,2D1U,2.0,True,0.526,5,True,right,0.0,0.3566,0.8234,0.4668,1.6399,2.1406,0.5008,V
152,0.49919,1.2,1,0.39935,0.22464,0.55743,152,1.98845,-0.384,-0.19136,0.30784,5,3U1D,2.0,True,0.392,3,False,right,0.0,0.4066,0.716,0.3093,1.2732,1.773,0.4998,A
153,0.49919,0.1,1,0.39935,0.25792,0.69887,153,2.52092,0.336,0.1664,0.66559,5,3D1U,1.0,True,0.408,5,True,left,0.0,0.4033,1.0702,0.6669,1.7699,2.2707,0.5008,V
154,0.49919,1.2,2,0.40767,0.34111,0.73215,154,2.64571,0.336,0.1664,0.66559,5,3D1U,2.0,True,0.366,5,True,right,0.0,1.646,2.3127,0.6667,0.4131,0.9127,0.4996,A
155,0.49919,0.1,1,0.25792,0.43263,0.59071,155,2.24636,-0.072,-0.03328,0.46591,5,2D1U,2.0,True,0.3,5,True,right,0.0,0.2633,0.7301,0.4668,1.3216,1.8215,0.5,V
156,0.49919,1.2,1,0.39103,0.29952,0.84863,156,2.60412,0.126,0.06656,0.56575,5,2U1D,2.0,False,0.726,6,False,right,0.0,0.3969,0.963,0.5661,1.8135,2.3134,0.4999,A
157,0.49919,0.1,1,0.41599,0.34943,0.66559,157,2.59579,0.336,0.1664,0.66559,5,3D1U,1.0,True,0.368,5,True,left,0.0,0.4243,1.0913,0.667,1.7581,2.2576,0.4995,A
158,0.49919,1.2,2,0.34111,0.34943,0.74879,158,2.57915,0.282,0.14144,0.64063,5,3D1U,2.0,True,0.25,5,False,right,0.0,1.6015,2.243,0.6415,0.3515,0.8521,0.5006,A
159,0.49919,0.1,2,0.25792,0.26624,0.66559,159,2.02173,-0.33,-0.1664,0.33279,5,3U1D,1.0,True,0.367,4,True,left,0.0,1.4277,1.7606,0.333,0.2607,0.7607,0.4999,A
160,0.49919,1.2,1,0.2496,0.30784,0.48255,160,2.03005,-0.018,-0.00832,0.49087,5,2D1U,2.0,True,0.652,6,True,right,0.0,0.2557,0.7482,0.4924,1.2308,1.7306,0.4998,V
161,0.49919,0.1,1,0.39103,0.39103,0.57407,161,2.44603,0.18,0.09152,0.59071,5,2U1D,1.0,True,0.259,7,True,left,0.0,0.3971,0.9894,0.5923,1.5634,2.0648,0.5014,V
162,0.49919,1.2,1,0.38271,0.34943,0.54911,162,2.11323,-0.33,-0.1664,0.33279,5,3U1D,2.0,True,0.218,4,True,right,0.0,0.3877,0.7209,0.3332,1.271,1.7714,0.5004,A
163,0.49919,0.1,1,0.29952,0.24128,0.40767,163,1.93853,-0.018,-0.00832,0.49087,5,2D1U,1.0,False,3.025,6,True,left,0.0,0.3105,0.8018,0.4913,1.2102,1.7105,0.5003,A
164,0.49919,1.2,2,0.37439,0.40767,0.47423,164,2.34619,0.18,0.09152,0.59071,5,2U1D,2.0,True,0.2,7,True,right,0.0,1.3574,1.949,0.5916,0.3826,0.8825,0.4999,V
165,0.49919,0.1,2,0.31616,0.31616,0.64063,165,2.41277,0.282,0.14144,0.64063,5,3D1U,2.0,True,0.709,5,False,right,0.0,1.4676,2.1085,0.6409,0.3249,0.8252,0.5002,V
166,0.49919,1.2,1,0.30784,0.29952,0.74047,166,2.48765,0.282,0.14144,0.64063,5,3D1U,1.0,True,0.358,5,False,left,0.0,0.3151,0.9564,0.6413,1.698,2.1985,0.5004,A
167,0.49919,0.1,2,0.25792,0.32447,0.41599,167,2.06332,0.126,0.06656,0.56575,5,2U1D,2.0,True,0.992,8,True,right,0.0,1.1848,1.7515,0.5667,0.2682,0.7682,0.5,V
168,0.49919,1.2,1,0.2912,0.2912,0.51583,168,2.21309,0.228,0.11648,0.61567,5,3D1U,1.0,True,0.467,5,False,left,0.0,0.2979,0.9142,0.6163,1.4309,1.9317,0.5007,V
169,0.49919,0.1,2,0.34111,0.30784,0.64063,169,2.25468,-0.072,-0.03328,0.46591,5,2D1U,1.0,True,0.85,7,True,left,0.0,1.4908,1.9574,0.4665,0.3494,0.8498,0.5005,A
170,0.49919,1.2,1,0.29952,0.22464,0.73215,170,2.08829,-0.33,-0.1664,0.33279,5,3U1D,2.0,True,0.334,4,True,right,0.0,0.3071,0.6403,0.3332,1.3739,1.8742,0.5003,V
171,0.49919,0.1,1,0.21632,0.32447,0.70719,171,2.11324,-0.276,-0.14144,0.36607,5,3U1D,2.0,True,0.401,4,False,right,0.0,0.2214,0.5878,0.3664,1.2959,1.7961,0.5002,V
172,0.49919,1.2,2,0.2912,0.29952,0.44095,172,1.89693,-0.276,-0.14144,0.36607,5,3U1D,1.0,True,0.726,4,False,left,0.0,1.2426,1.6084,0.3658,0.3002,0.8001,0.4999,A
173,0.49919,0.1,2,0.42431,0.35775,0.59071,173,2.33787,-0.072,-0.03328,0.46591,5,2D1U,1.0,True,1.768,7,True,left,0.0,1.5238,1.9898,0.466,0.4311,0.9314,0.5003,V
174,0.49919,1.2,1,0.24128,0.30784,0.73215,174,2.39613,0.228,0.11648,0.61567,5,3D1U,1.0,True,0.667,5,False,left,0.0,0.2444,0.861,0.6167,1.5947,2.0945,0.4998,V
175,0.49919,0.1,2,0.19968,0.43263,0.44927,175,2.14652,0.126,0.06656,0.56575,5,2U1D,2.0,True,0.25,8,True,right,0.0,1.1552,1.7214,0.5663,0.2054,0.7051,0.4997,A
176,0.49919,1.2,2,0.24128,0.21632,0.65727,176,1.98013,-0.276,-0.14144,0.36607,5,3U1D,1.0,True,0.584,4,False,left,0.0,1.4092,1.776,0.3669,0.2511,0.751,0.4999,V
177,0.49919,0.1,2,0.208,0.29952,0.68223,177,2.22141,0.072,0.03328,0.53247,5,2U1D,2.0,True,0.284,8,False,right,0.0,1.396,1.9293,0.5334,0.213,0.7134,0.5004,V
178,0.49919,1.2,2,0.30784,0.39103,0.49087,178,2.3046,0.228,0.11648,0.61567,5,3D1U,1.0,False,0.56,5,False,left,0.0,1.3084,1.9252,0.6168,0.317,0.8171,0.5,A
179,0.49919,0.1,1,0.28288,0.34111,0.54911,179,2.06332,-0.222,-0.10816,0.39103,5,3U1D,2.0,True,0.267,4,False,right,0.0,0.289,0.6813,0.3923,1.2307,1.7307,0.5,A
180,0.49919,1.2,2,0.38271,0.25792,0.42431,180,2.055,-0.018,-0.00832,0.49087,5,2D1U,2.0,False,0.341,8,True,right,0.0,1.3132,1.8046,0.4914,0.3877,0.888,0.5002,V
181,0.49919,0.1,1,0.25792,0.34111,0.56575,181,2.19644,0.072,0.03328,0.53247,5,2U1D,1.0,True,0.36,8,False,left,0.0,0.2675,0.801,0.5335,1.3677,1.8676,0.4999,V
182,0.49919,1.2,2,0.2496,0.25792,0.80703,182,2.32125,0.018,0.00832,0.50751,5,2U1D,1.0,False,0.826,8,False,left,0.0,1.5606,2.0694,0.5088,0.2528,0.7525,0.4997,V
183,0.49919,0.1,2,0.36607,0.27456,0.78207,183,2.56252,0.282,0.14144,0.64063,5,3D1U,2.0,True,0.116,6,True,right,0.0,1.6579,2.2991,0.6412,0.3745,0.8747,0.5001,A
184,0.49919,1.2,2,0.41599,0.26624,0.82367,184,2.471,-0.072,-0.03328,0.46591,5,2D1U,2.0,False,0.408,9,True,right,0.0,1.749,2.2156,0.4666,0.4237,0.9236,0.4999,V
185,0.49919,0.1,1,0.44927,0.28288,0.75711,185,2.37948,-0.222,-0.10816,0.39103,5,3U1D,2.0,True,0.366,4,False,right,0.0,0.4594,0.852,0.3925,1.6106,2.11,0.4993,V
186,0.49919,1.2,2,0.208,0.38271,0.85695,186,2.33788,-0.222,-0.10816,0.39103,5,3U1D,2.0,False,1.566,4,False,right,0.0,1.5738,1.9647,0.3909,0.2153,0.7146,0.4993,V
187,0.49919,0.1,2,0.24128,0.40767,0.81535,187,2.40444,-0.126,-0.06656,0.44095,5,2D1U,1.0,True,0.576,9,False,left,0.0,1.5646,2.0064,0.4418,0.2477,0.7481,0.5004,A
188,0.49919,1.2,2,0.34943,0.32447,0.71551,188,2.25467,-0.276,-0.14144,0.36607,5,3U1D,1.0,True,1.099,5,True,left,0.0,1.5764,1.9431,0.3667,0.3608,0.8599,0.4992,V
189,0.49919,0.1,2,0.38271,0.44927,0.63231,189,2.60411,0.282,0.14144,0.64063,5,3D1U,2.0,True,0.292,6,True,right,0.0,1.5203,2.162,0.6417,0.3876,0.8875,0.4999,V
190,0.49919,1.2,1,0.44095,0.30784,0.68223,190,2.46268,0.072,0.03328,0.53247,5,2U1D,1.0,True,0.325,9,True,left,0.0,0.4495,0.9829,0.5334,1.6659,2.1662,0.5003,A
191,0.49919,0.1,2,0.21632,0.24128,0.56575,191,2.05501,0.072,0.03328,0.53247,5,2U1D,2.0,True,0.234,9,True,right,0.0,1.2887,1.8219,0.5331,0.2218,0.7223,0.5005,A
192,0.49919,1.2,1,0.21632,0.37439,0.73215,192,2.18812,-0.276,-0.14144,0.36607,5,3U1D,2.0,True,0.198,5,True,right,0.0,0.2244,0.5902,0.3658,1.3245,1.8247,0.5002,V
193,0.49919,0.1,2,0.2496,0.30784,0.85695,193,2.27965,-0.276,-0.14144,0.36607,5,3U1D,1.0,True,0.476,5,True,left,0.0,1.613,1.9795,0.3666,0.2541,0.7541,0.5,A
194,0.49919,1.2,2,0.208,0.38271,0.83199,194,2.4294,0.018,0.00832,0.50751,5,2U1D,2.0,True,0.284,10,True,right,0.0,1.5522,2.0601,0.5079,0.2179,0.7186,0.5007,V
195,0.49919,0.1,1,0.40767,0.25792,0.68223,195,2.48764,0.282,0.14144,0.64063,5,3D1U,1.0,True,1.484,6,True,left,0.0,0.4108,1.0531,0.6423,1.7365,2.2368,0.5003,V
196,0.49919,1.2,2,0.44095,0.25792,0.53247,196,2.17148,-0.126,-0.06656,0.44095,5,2D1U,1.0,True,0.534,9,False,left,0.0,1.4802,1.9211,0.4409,0.4456,0.9464,0.5008,V
197,0.49919,0.1,1,0.43263,0.40767,0.72383,197,2.57083,0.018,0.00832,0.50751,5,2U1D,1.0,True,0.468,10,True,left,0.0,0.4438,0.9512,0.5073,1.677,2.1769,0.4999,A
198,0.49919,1.2,1,0.28288,0.27456,0.62399,198,2.07165,-0.222,-0.10816,0.39103,5,3U1D,2.0,True,0.95,6,True,right,0.0,0.2924,0.6847,0.3923,1.3096,1.8085,0.4989,A
199,0.49919,0.1,2,0.44095,0.28288,0.44927,199,2.28796,0.228,0.11648,0.61567,5,3D1U,2.0,True,3.216,7,True,right,0.0,1.3944,2.0114,0.617,0.4442,0.9444,0.5002,A
200,0.49919,1.2,2,0.38271,0.2912,0.77375,200,2.41276,-0.072,-0.03328,0.46591,5,2D1U,1.0,True,1.15,10,True,left,0.0,1.6624,2.1287,0.4663,0.3875,0.8875,0.5,V
201,0.49919,0.1,2,0.35775,0.25792,0.46591,201,2.04668,-0.072,-0.03328,0.46591,5,2D1U,1.0,True,0.633,10,True,left,0.0,1.3345,1.8008,0.4663,0.3682,0.8674,0.4992,A
202,0.49919,1.2,1,0.23296,0.30784,0.68223,202,2.21309,-0.018,-0.00832,0.49087,5,2D1U,2.0,True,0.3,10,False,right,0.0,0.2374,0.7293,0.4918,1.4127,1.9121,0.4994,A
203,0.49919,0.1,1,0.39103,0.28288,0.69055,203,2.47932,0.228,0.11648,0.61567,5,3D1U,1.0,True,0.6,7,True,left,0.0,0.4002,1.0174,0.6172,1.7082,2.2082,0.5,V
204,0.49919,1.2,1,0.2496,0.2496,0.52415,204,1.91357,-0.222,-0.10816,0.39103,5,3U1D,2.0,True,1.608,6,True,right,0.0,0.2584,0.6512,0.3928,1.1759,1.676,0.5001,V
205,0.49919,0.1,1,0.29952,0.43263,0.69055,205,2.40444,-0.036,-0.01664,0.48255,5,2U1D,2.0,True,3.008,10,False,right,0.0,0.3085,0.7924,0.4839,1.4847,1.984,0.4993,V
206,0.49919,1.2,1,0.44095,0.36607,0.77375,206,2.57083,-0.018,-0.00832,0.49087,5,2D1U,2.0,True,5.784,10,False,right,0.0,0.445,0.9383,0.4933,1.7122,2.2126,0.5005,V
207,0.49919,0.1,1,0.2496,0.44927,0.74879,207,2.33788,-0.222,-0.10816,0.39103,5,3U1D,1.0,False,4.824,6,True,left,0.0,0.2542,0.6456,0.3914,1.3962,1.8951,0.4989,V
208,0.49919,1.2,1,0.37439,0.34943,0.73215,208,2.32123,-0.276,-0.14144,0.36607,5,3U1D,2.0,True,0.392,7,True,right,0.0,0.3796,0.7471,0.3675,1.4797,1.9803,0.5006,A
209,0.49919,0.1,1,0.38271,0.39103,0.55743,209,2.44603,0.228,0.11648,0.61567,5,3D1U,1.0,True,0.968,7,True,left,0.0,0.3911,1.0091,0.618,1.5673,2.0668,0.4995,A
210,0.49919,1.2,2,0.32447,0.36607,0.69887,210,2.37115,-0.036,-0.01664,0.48255,5,2U1D,1.0,True,0.292,10,False,left,0.0,1.5289,2.0121,0.4833,0.3292,0.8296,0.5004,A
211,0.49919,0.1,1,0.25792,0.43263,0.61567,211,2.32124,0.036,0.01664,0.51583,5,2D1U,1.0,True,0.284,10,False,left,0.0,0.2656,0.7829,0.5173,1.3991,1.8996,0.5005,A
212,0.49919,1.2,1,0.32447,0.36607,0.61567,212,2.17147,-0.276,-0.14144,0.36607,5,3U1D,2.0,True,1.183,7,True,right,0.0,0.3298,0.697,0.3672,1.3128,1.8139,0.5011,A
213,0.49919,0.1,2,0.37439,0.32447,0.54911,213,2.11323,-0.276,-0.14144,0.36607,5,3U1D,1.0,True,0.117,7,True,left,0.0,1.4361,1.802,0.3659,0.3858,0.8849,0.4991,V
214,0.49919,1.2,2,0.41599,0.34943,0.79871,214,2.57083,0.018,0.00832,0.50751,5,2U1D,1.0,False,1.559,10,False,left,0.0,1.7253,2.2336,0.5083,0.4255,0.9244,0.4989,V
215,0.49919,0.1,2,0.44927,0.27456,0.81535,215,2.5542,0.036,0.01664,0.51583,5,2D1U,2.0,True,1.925,10,False,right,0.0,1.77,2.2866,0.5167,0.454,0.9532,0.4992,A
216,0.49919,1.2,1,0.44095,0.30784,0.87359,216,2.71228,0.174,0.0832,0.59071,5,3D1U,1.0,True,0.609,7,False,left,0.0,0.4478,1.0394,0.5916,1.9143,2.4142,0.5,V
217,0.49919,0.1,2,0.31616,0.21632,0.45759,217,2.07997,0.174,0.0832,0.59071,5,3D1U,2.0,True,0.566,7,False,right,0.0,1.2791,1.8717,0.5925,0.3215,0.8218,0.5003,V
218,0.49919,1.2,1,0.34943,0.35775,0.45759,218,2.05499,-0.222,-0.10816,0.39103,5,3U1D,1.0,False,0.641,8,True,left,0.0,0.361,0.7523,0.3913,1.2109,1.7106,0.4997,A
219,0.49919,0.1,1,0.29952,0.32447,0.74879,219,2.23804,-0.276,-0.14144,0.36607,5,3U1D,2.0,True,1.383,9,True,right,0.0,0.3026,0.6704,0.3678,1.4194,1.9205,0.5011,A
220,0.49919,1.2,2,0.34943,0.39935,0.64895,220,2.38779,-0.018,-0.00832,0.49087,5,2D1U,1.0,True,1.366,10,False,left,0.0,1.5074,1.9983,0.4909,0.3573,0.8579,0.5005,V
221,0.49919,0.1,2,0.29952,0.40767,0.79871,221,2.53756,0.072,0.03328,0.53247,5,2U1D,1.0,False,0.618,11,True,left,0.0,1.605,2.1377,0.5328,0.3051,0.8046,0.4994,A
222,0.49919,1.2,1,0.29952,0.39103,0.41599,222,2.17148,0.126,0.06656,0.56575,5,2U1D,1.0,True,1.159,11,False,left,0.0,0.3045,0.8716,0.5671,1.2883,1.7883,0.5,V
223,0.49919,0.1,2,0.42431,0.34111,0.78207,223,2.63739,0.174,0.0832,0.59071,5,3D1U,2.0,True,0.517,7,False,right,0.0,1.7185,2.3103,0.5918,0.4352,0.9353,0.5002,A
224,0.49919,1.2,2,0.25792,0.29952,0.89855,224,2.44605,-0.018,-0.00832,0.49087,5,2D1U,1.0,True,4.525,10,False,left,0.0,1.6629,2.1555,0.4926,0.2629,0.7634,0.5005,A
225,0.49919,0.1,2,0.44095,0.41599,0.59903,225,2.47099,0.036,0.01664,0.51583,5,2D1U,2.0,True,7.925,10,False,right,0.0,1.548,2.0654,0.5174,0.4488,0.949,0.5002,A
226,0.49919,1.2,2,0.21632,0.36607,0.69055,226,2.1382,-0.276,-0.14144,0.36607,5,3U1D,1.0,True,0.349,9,True,left,0.0,1.4152,1.7816,0.3664,0.2229,0.7234,0.5005,A
227,0.49919,0.1,1,0.28288,0.34943,0.69887,227,2.39612,0.126,0.06656,0.56575,5,2U1D,1.0,True,0.375,11,False,left,0.0,0.292,0.8586,0.5666,1.5587,2.0587,0.5,A
228,0.49919,1.2,1,0.37439,0.29952,0.57407,228,2.263,0.036,0.01664,0.51583,5,2D1U,2.0,False,0.334,10,False,right,0.0,0.3839,0.9006,0.5167,1.476,1.9755,0.4995,A
229,0.49919,0.1,2,0.31616,0.30784,0.73215,229,2.40445,0.09,0.0416,0.54911,5,2D1U,2.0,True,0.409,11,True,right,0.0,1.5569,2.1077,0.5508,0.3241,0.8235,0.4994,V
230,0.49919,1.2,1,0.30784,0.32447,0.80703,230,2.3046,-0.276,-0.14144,0.36607,5,3U1D,2.0,True,0.117,9,True,right,0.0,0.3139,0.6804,0.3665,1.4879,1.9892,0.5013,A
231,0.49919,0.1,2,0.34111,0.32447,0.79871,231,2.52091,0.12,0.05824,0.55743,5,3D1U,1.0,False,0.15,7,False,left,0.0,1.6524,2.2108,0.5584,0.3521,0.8523,0.5002,A
232,0.49919,1.2,1,0.36607,0.42431,0.65727,232,2.49595,0.09,0.0416,0.54911,5,2D1U,2.0,False,0.976,11,True,right,0.0,0.375,0.9257,0.5507,1.5831,2.0834,0.5003,A
233,0.49919,0.1,1,0.26624,0.30784,0.56575,233,2.22973,0.174,0.0832,0.59071,5,3D1U,1.0,True,0.325,8,True,left,0.0,0.2728,0.865,0.5923,1.4312,1.9313,0.5001,V
234,0.49919,1.2,1,0.39935,0.29952,0.75711,234,2.48764,0.072,0.03328,0.53247,5,2U1D,2.0,False,0.115,12,True,right,0.0,0.4054,0.9389,0.5335,1.6971,2.1975,0.5004,A
235,0.49919,0.1,1,0.28288,0.42431,0.50751,235,2.27964,0.126,0.06656,0.56575,5,2U1D,1.0,True,1.583,13,True,left,0.0,0.2932,0.8597,0.5665,1.3683,1.8683,0.5,A
236,0.49919,1.2,2,0.22464,0.32447,0.51583,236,1.95516,-0.222,-0.10816,0.39103,5,3U1D,2.0,False,0.508,10,True,right,0.0,1.251,1.6428,0.3917,0.2343,0.7343,0.5,V
237,0.49919,0.1,1,0.44095,0.39935,0.54079,237,2.47099,0.174,0.0832,0.59071,5,3D1U,1.0,True,1.168,8,True,left,0.0,0.4507,1.0432,0.5925,1.5844,2.0841,0.4996,A
238,0.49919,1.2,2,0.39103,0.208,0.88191,238,2.57084,0.174,0.0832,0.59071,5,3D1U,2.0,True,0.457,8,True,right,0.0,1.7779,2.3695,0.5916,0.394,0.8938,0.4998,A
239,0.49919,0.1,2,0.34943,0.28288,0.58239,239,2.28796,0.144,0.07488,0.57407,5,2D1U,1.0,False,0.892,11,False,left,0.0,1.4396,2.0155,0.5759,0.357,0.857,0.5,A
240,0.49919,1.2,2,0.43263,0.2496,0.44927,240,2.19644,0.126,0.06656,0.56575,5,2U1D,1.0,False,0.35,13,True,left,0.0,1.3882,1.9547,0.5665,0.4377,0.9376,0.4999,A
241,0.49919,0.1,2,0.25792,0.42431,0.69055,241,2.23804,-0.276,-0.14144,0.36607,5,3U1D,1.0,True,0.315,11,True,left,0.0,1.4594,1.826,0.3666,0.2691,0.7679,0.4988,V
242,0.49919,1.2,1,0.30784,0.38271,0.79871,242,2.35452,-0.276,-0.14144,0.36607,5,3U1D,2.0,True,0.342,11,True,right,0.0,0.3127,0.6791,0.3664,1.4789,1.9784,0.4995,A
243,0.49919,0.1,1,0.28288,0.34943,0.45759,243,1.95516,-0.276,-0.14144,0.36607,5,3U1D,2.0,True,0.325,11,True,right,0.0,0.2887,0.6553,0.3666,1.1129,1.6138,0.5009,V
244,0.49919,1.2,1,0.2496,0.33279,0.49087,244,2.16316,0.18,0.09152,0.59071,5,2U1D,1.0,True,0.425,13,False,left,0.0,0.2539,0.8448,0.5909,1.3362,1.8395,0.5033,A
245,0.49919,0.1,1,0.26624,0.23296,0.40767,245,1.96349,0.12,0.05824,0.55743,5,3D1U,1.0,True,0.616,9,True,left,0.0,0.272,0.8306,0.5585,1.2379,1.7387,0.5009,V
246,0.49919,1.2,2,0.44927,0.21632,0.77375,246,2.53756,0.198,0.09984,0.59903,5,2D1U,1.0,False,0.718,11,False,left,0.0,1.7331,2.333,0.5999,0.4585,0.9581,0.4996,V
247,0.49919,0.1,2,0.31616,0.34111,0.89855,247,2.64572,0.18,0.09152,0.59071,5,2U1D,1.0,False,1.367,13,False,left,0.0,1.7264,2.3179,0.5915,0.3256,0.8264,0.5008,A
248,0.49919,1.2,1,0.22464,0.37439,0.46591,248,2.18812,0.252,0.1248,0.62399,5,2D1U,2.0,False,0.551,11,False,right,0.0,0.2295,0.8549,0.6254,1.3217,1.8218,0.5001,V
249,0.49919,0.1,2,0.31616,0.37439,0.81535,249,2.56252,0.12,0.05824,0.55743,5,3D1U,1.0,False,1.083,9,True,left,0.0,1.6392,2.1961,0.5569,0.3228,0.822,0.4992,A
250,0.49919,1.2,2,0.43263,0.44095,0.50751,250,2.47099,0.174,0.0832,0.59071,5,3D1U,2.0,True,0.575,10,True,right,0.0,1.452,2.0434,0.5914,0.443,0.9432,0.5002,A
251,0.49919,0.1,1,0.34943,0.19968,0.51583,251,1.95516,-0.222,-0.10816,0.39103,5,3U1D,2.0,True,0.8,12,True,right,0.0,0.3558,0.7473,0.3915,1.2638,1.7643,0.5004,A
252,0.49919,1.2,1,0.34111,0.44095,0.53247,252,2.20475,-0.222,-0.10816,0.39103,5,3U1D,1.0,False,0.393,12,True,left,0.0,0.3475,0.7384,0.3908,1.2726,1.7726,0.4999,V
253,0.49919,0.1,2,0.27456,0.26624,0.66559,253,2.35453,0.306,0.14976,0.64895,5,2D1U,1.0,False,1.733,11,False,left,0.0,1.4521,2.1024,0.6503,0.2855,0.7857,0.5002,V
254,0.49919,1.2,2,0.34111,0.40767,0.44927,254,2.37947,0.36,0.18304,0.68223,5,2D1U,2.0,True,0.242,11,False,right,0.0,1.2992,1.9817,0.6824,0.3484,0.8483,0.4999,A
255,0.49919,0.1,2,0.36607,0.26624,0.64063,255,2.36284,0.174,0.0832,0.59071,5,3D1U,1.0,False,0.459,10,True,left,0.0,1.5162,2.1088,0.5926,0.3752,0.8745,0.4994,A
256,0.49919,1.2,2,0.24128,0.2912,0.42431,256,2.07165,0.234,0.11648,0.61567,5,2U1D,2.0,True,0.483,13,False,right,0.0,1.1756,1.7922,0.6167,0.2506,0.7507,0.5001,A
257,0.49919,0.1,2,0.23296,0.208,0.84031,257,2.46269,0.36,0.18304,0.68223,5,2D1U,1.0,False,3.717,11,False,left,0.0,1.5825,2.2664,0.6839,0.2414,0.7417,0.5003,V
258,0.49919,1.2,2,0.30784,0.26624,0.73215,258,2.51261,0.414,0.208,0.70719,5,2D1U,2.0,True,0.65,11,False,right,0.0,1.549,2.2582,0.7091,0.3162,0.8157,0.4995,V
259,0.49919,0.1,1,0.39103,0.22464,0.74879,259,2.47932,0.228,0.11648,0.61567,5,3D1U,1.0,True,0.726,10,False,left,0.0,0.4024,1.0188,0.6164,1.7686,2.2687,0.5001,A
260,0.49919,1.2,2,0.22464,0.44927,0.54079,260,2.32956,0.234,0.11648,0.61567,5,2U1D,2.0,True,0.96,13,False,right,0.0,1.274,1.8901,0.6161,0.2322,0.7324,0.5002,A
261,0.49919,0.1,2,0.37439,0.2496,0.52415,261,2.0134,-0.276,-0.14144,0.36607,5,3U1D,1.0,True,0.65,13,True,left,0.0,1.4078,1.7746,0.3667,0.3829,0.8831,0.5002,V
262,0.49919,1.2,1,0.44095,0.28288,0.68223,262,2.49596,0.18,0.09152,0.59071,5,2U1D,1.0,True,0.675,14,True,left,0.0,0.4512,1.0429,0.5918,1.7259,2.2268,0.5009,A
263,0.49919,0.1,1,0.32447,0.36607,0.58239,263,2.38779,0.228,0.11648,0.61567,5,3D1U,1.0,True,0.4,10,False,left,0.0,0.3345,0.952,0.6175,1.5359,2.0348,0.4988,A
264,0.49919,1.2,2,0.21632,0.29952,0.40767,264,1.78877,-0.276,-0.14144,0.36607,5,3U1D,1.0,True,1.216,13,True,left,0.0,1.129,1.4961,0.3671,0.22,0.7208,0.5008,A
265,0.49919,0.1,1,0.27456,0.44927,0.57407,265,2.50428,0.414,0.208,0.70719,5,2D1U,2.0,False,4.333,11,False,right,0.0,0.2789,0.9872,0.7083,1.5625,2.0616,0.499,V
266,0.49919,1.2,2,0.27456,0.24128,0.70719,266,2.31293,0.18,0.09152,0.59071,5,2U1D,1.0,False,0.85,14,True,left,0.0,1.4898,2.0811,0.5913,0.2816,0.7813,0.4997,A
267,0.49919,0.1,2,0.37439,0.32447,0.79039,267,2.60411,0.234,0.11648,0.61567,5,2U1D,2.0,True,3.384,15,True,right,0.0,1.6735,2.2905,0.6171,0.3826,0.8823,0.4997,A
268,0.49919,1.2,2,0.39103,0.24128,0.48255,268,2.3462,0.468,0.23296,0.73215,5,2D1U,1.0,False,1.659,11,False,left,0.0,1.379,2.1133,0.7343,0.3969,0.8967,0.4997,V
269,0.49919,0.1,1,0.2496,0.34943,0.73215,269,2.19644,-0.276,-0.14144,0.36607,5,3U1D,1.0,False,7.227,13,True,left,0.0,0.2585,0.6243,0.3658,1.3576,1.8578,0.5002,V
270,0.49919,1.2,1,0.36607,0.24128,0.77375,270,2.21308,-0.33,-0.1664,0.33279,5,3U1D,2.0,True,0.55,13,False,right,0.0,0.3747,0.7081,0.3334,1.4909,1.9915,0.5006,A
271,0.49919,0.1,2,0.21632,0.43263,0.72383,271,2.48764,0.228,0.11648,0.61567,5,3D1U,2.0,True,0.251,10,False,right,0.0,1.4499,2.0665,0.6165,0.225,0.7249,0.4999,A
272,0.49919,1.2,1,0.25792,0.36607,0.46591,272,2.3462,0.522,0.25792,0.75711,5,2D1U,1.0,True,0.251,11,False,left,0.0,0.2617,1.0198,0.7581,1.4865,1.9871,0.5006,A
273,0.49919,0.1,2,0.208,0.35775,0.89855,273,2.57916,0.234,0.11648,0.61567,5,2U1D,2.0,True,0.251,15,True,right,0.0,1.6166,2.2333,0.6167,0.2169,0.7166,0.4997,V
274,0.49919,1.2,1,0.23296,0.33279,0.58239,274,1.98012,-0.33,-0.1664,0.33279,5,3U1D,2.0,True,0.376,13,False,right,0.0,0.2413,0.5748,0.3335,1.1591,1.6583,0.4992,A
275,0.49919,0.1,2,0.34111,0.40767,0.58239,275,2.42107,0.174,0.0832,0.59071,5,3D1U,1.0,False,0.642,11,True,left,0.0,1.4342,2.0256,0.5914,0.3506,0.8505,0.5,A
276,0.49919,1.2,1,0.41599,0.35775,0.54911,276,2.43771,0.228,0.11648,0.61567,5,3D1U,1.0,True,0.45,12,True,left,0.0,0.4254,1.0426,0.6172,1.5919,2.0924,0.5005,A
277,0.49919,0.1,2,0.2496,0.40767,0.72383,277,2.49596,0.228,0.11648,0.61567,5,3D1U,2.0,True,3.759,12,True,right,0.0,1.4823,2.0998,0.6175,0.2579,0.7578,0.4999,A
278,0.49919,1.2,2,0.23296,0.23296,0.41599,278,2.13821,0.522,0.25792,0.75711,5,2D1U,2.0,True,0.392,11,False,right,0.0,1.153,1.9115,0.7585,0.2362,0.7366,0.5005,V
279,0.49919,0.1,1,0.41599,0.29952,0.61567,279,2.16316,-0.33,-0.1664,0.33279,5,3U1D,2.0,True,0.358,13,False,right,0.0,0.419,0.7526,0.3336,1.3693,1.8695,0.5001,A
280,0.49919,1.2,1,0.40767,0.32447,0.59071,280,2.41275,0.18,0.09152,0.59071,5,2U1D,1.0,True,0.317,16,True,left,0.0,0.4123,1.0042,0.5918,1.5958,2.0958,0.5001,V
281,0.49919,0.1,1,0.44095,0.22464,0.49087,281,2.27132,0.228,0.11648,0.61567,5,3D1U,1.0,True,0.392,12,True,left,0.0,0.4476,1.0643,0.6167,1.5559,2.0557,0.4998,V
282,0.49919,1.2,2,0.35775,0.39103,0.66559,282,2.27963,-0.276,-0.14144,0.36607,5,3U1D,1.0,True,0.317,14,True,left,0.0,1.5283,1.895,0.3668,0.3623,0.8616,0.4994,V
283,0.49919,0.1,2,0.27456,0.26624,0.62399,283,2.03005,-0.276,-0.14144,0.36607,5,3U1D,1.0,True,0.45,14,True,left,0.0,1.4067,1.7726,0.366,0.2819,0.7817,0.4998,V
284,0.49919,1.2,2,0.21632,0.34111,0.87359,284,2.66236,0.468,0.23296,0.73215,5,2D1U,2.0,True,0.225,12,True,right,0.0,1.601,2.3336,0.7326,0.2265,0.7253,0.4988,V
285,0.49919,0.1,1,0.42431,0.32447,0.43263,285,2.27131,0.174,0.0832,0.59071,5,3D1U,1.0,True,0.351,13,True,left,0.0,0.433,1.0251,0.5921,1.458,1.9581,0.5001,V
286,0.49919,1.2,1,0.25792,0.39103,0.63231,286,2.37116,0.18,0.09152,0.59071,5,2U1D,2.0,False,0.117,16,True,right,0.0,0.2648,0.8576,0.5928,1.4912,1.9905,0.4994,V
287,0.49919,0.1,2,0.38271,0.34111,0.45759,287,2.41275,0.468,0.23296,0.73215,5,2D1U,2.0,True,0.492,12,True,right,0.0,1.35,2.0831,0.7331,0.3918,0.8916,0.4998,A
288,0.49919,1.2,1,0.29952,0.33279,0.69887,288,2.53756,0.414,0.208,0.70719,5,2D1U,1.0,True,0.809,12,False,left,0.0,0.3033,1.0119,0.7086,1.7118,2.2115,0.4997,V
289,0.49919,0.1,1,0.42431,0.34111,0.49087,289,2.37115,0.234,0.11648,0.61567,5,2U1D,2.0,False,0.501,17,True,right,0.0,0.4331,1.0493,0.6162,1.5417,2.0408,0.4992,V
290,0.49919,1.2,1,0.21632,0.43263,0.83199,290,2.57084,0.174,0.0832,0.59071,5,3D1U,1.0,True,0.825,13,True,left,0.0,0.2231,0.8144,0.5913,1.6471,2.1483,0.5012,A
291,0.49919,0.1,2,0.23296,0.41599,0.83199,291,2.3462,-0.276,-0.14144,0.36607,5,3U1D,1.0,True,2.367,14,True,left,0.0,1.5765,1.942,0.3656,0.2426,0.7429,0.5003,A
292,0.49919,1.2,1,0.41599,0.24128,0.54079,292,2.28796,0.174,0.0832,0.59071,5,3D1U,2.0,False,3.991,13,True,right,0.0,0.4231,1.0151,0.592,1.5565,2.0569,0.5004,A
293,0.49919,0.1,2,0.31616,0.39103,0.60735,293,2.52092,0.414,0.208,0.70719,5,2D1U,2.0,True,0.217,12,False,right,0.0,1.4298,2.1374,0.7075,0.321,0.8209,0.4999,V
294,0.49919,1.2,1,0.26624,0.28288,0.61567,294,2.30461,0.288,0.14144,0.64063,5,2U1D,1.0,True,1.376,17,False,left,0.0,0.2765,0.9173,0.6408,1.5342,2.0344,0.5002,A
295,0.49919,0.1,2,0.30784,0.23296,0.87359,295,2.30461,-0.222,-0.10816,0.39103,5,3U1D,2.0,False,1.55,14,False,right,0.0,1.6913,2.0831,0.3918,0.3169,0.8166,0.4997,A
296,0.49919,1.2,1,0.35775,0.34111,0.74047,296,2.55419,0.228,0.11648,0.61567,5,3D1U,2.0,False,3.525,14,True,right,0.0,0.3634,0.9794,0.616,1.7223,2.2224,0.5001,V
297,0.49919,0.1,2,0.34943,0.2496,0.73215,297,2.471,0.282,0.14144,0.64063,5,3D1U,2.0,True,2.933,14,False,right,0.0,1.5922,2.2338,0.6416,0.3588,0.859,0.5002,A
298,0.49919,1.2,2,0.39935,0.23296,0.79871,298,2.57084,0.288,0.14144,0.64063,5,2U1D,2.0,True,13.125,17,False,right,0.0,1.7039,2.3455,0.6416,0.4033,0.9036,0.5004,V
299,0.49919,0.1,2,0.42431,0.25792,0.74047,299,2.60412,0.36,0.18304,0.68223,5,2D1U,1.0,False,1.543,12,False,left,0.0,1.6718,2.3554,0.6836,0.43,0.9302,0.5003,V
300,0.49919,1.2,1,0.43263,0.39935,0.74047,300,2.43771,-0.276,-0.14144,0.36607,5,3U1D,1.0,False,0.417,15,True,left,0.0,0.4406,0.8071,0.3665,1.5492,2.0487,0.4995,V
301,0.49919,0.1,1,0.208,0.28288,0.44095,301,2.04669,0.234,0.11648,0.61567,5,2U1D,1.0,True,1.399,18,True,left,0.0,0.215,0.8311,0.6161,1.2731,1.7724,0.4993,V
302,0.49919,1.2,2,0.28288,0.2496,0.69055,302,2.42941,0.414,0.208,0.70719,5,2D1U,2.0,True,0.309,13,True,right,0.0,1.4784,2.1865,0.7082,0.287,0.7863,0.4994,V
303,0.49919,0.1,2,0.22464,0.28288,0.75711,303,2.47101,0.414,0.208,0.70719,5,2D1U,2.0,True,1.666,13,True,right,0.0,1.4915,2.2,0.7085,0.2335,0.7329,0.4993,V
304,0.49919,1.2,2,0.34111,0.31616,0.54079,304,2.31292,0.234,0.11648,0.61567,5,2U1D,2.0,True,0.483,18,True,right,0.0,1.3876,2.0045,0.6169,0.3455,0.8458,0.5004,A
305,0.49919,0.1,2,0.2496,0.19968,0.48255,305,2.02173,0.18,0.09152,0.59071,5,2U1D,2.0,True,0.351,18,False,right,0.0,1.2422,1.8338,0.5916,0.2583,0.7587,0.5004,A
306,0.49919,1.2,1,0.40767,0.25792,0.48255,306,2.23804,0.18,0.09152,0.59071,5,2U1D,2.0,False,0.925,18,False,right,0.0,0.4164,1.008,0.5915,1.4913,1.9912,0.4999,V
307,0.49919,0.1,2,0.43263,0.22464,0.72383,307,2.49596,0.234,0.11648,0.61567,5,2U1D,1.0,False,1.5,19,True,left,0.0,1.6665,2.2836,0.6171,0.4414,0.9418,0.5004,V
