,standardDur,audNoise,order,preDur,postDur,isiDur,trial_num,totalDur,delta_dur_percents,deltaDurS,testDurS,intensities,current_stair,responses,is_correct,response_rts,stair_num_reversal,stair_is_reversal,response_keys,conflictDur,recordedOnsetAudioTest,recordedOffsetAudioTest,recordedDurAudioTest,recordedOnsetVisualStandard,recordedOffsetVisualStandard,recordedDurVisualStandard,modalityPostCueTest
0,0.50288,1.2,2,0.23468,0.42744,0.58669,0,1.95284,-0.6,-0.30173,0.20115,5,1U1D,1.0,True,10.388,0,False,left,0.0,0.0007480001077055931,1.9569223998114467,1.956174399703741,0.23175569996237755,0.7317621000111103,0.5000064000487328,
1,0.50288,0.1,2,0.33525,0.34363,0.79622,1,2.7742,0.6,0.30173,0.79622,5,2D1U,2.0,True,1.35,0,False,right,0.0,0.0007627001032233238,2.781820399686694,2.781057699583471,0.32418920006603,0.8238439997658134,0.4996547996997833,
2,0.50288,1.2,2,0.39392,0.25982,0.77946,2,2.21266,-0.45,-0.22629,0.27658,5,1U1D,1.0,True,0.577,0,False,left,0.0,0.0007409998215734959,2.2158009000122547,2.215059900190681,0.3822853001765907,0.8819674998521805,0.4996821996755898,
3,0.50288,0.1,2,0.31849,0.41068,0.50288,3,1.93608,-0.6,-0.30173,0.20115,5,2U1D,1.0,True,0.348,0,False,left,0.0,0.0008887997828423977,1.9326132996939123,1.9317244999110699,0.30786209972575307,0.8083518999628723,0.5004898002371192,
4,0.50288,1.2,2,0.36878,0.31011,0.74593,4,2.72392,0.6,0.30173,0.79622,5,1D1U,2.0,True,3.415,0,False,right,0.0,0.00051099993288517,2.732530700042844,2.7320197001099586,0.3566197003237903,0.8565034000203013,0.49988369969651103,
5,0.50288,1.2,2,0.23468,0.39392,0.72079,5,1.90256,-0.9,-0.45259,0.05029,5,lapse_rate,1.0,True,0.624,0,False,left,0.0,0.0007371995598077774,1.9156935000792146,1.9149563005194068,0.2237233999185264,0.7233695997856557,0.4996461998671293,
6,0.50288,0.1,2,0.27658,0.44421,0.43583,6,2.45572,0.6,0.30173,0.79622,5,2D1U,2.0,True,0.569,0,False,right,0.0,0.0007943999953567982,2.457268599886447,2.4564741998910904,0.26598779996857047,0.765378899872303,0.49939109990373254,
7,0.50288,1.2,2,0.37716,0.39392,0.73755,7,2.74068,0.45,0.22629,0.72917,5,1D1U,1.0,False,0.28,0,False,left,0.0,0.0007527000270783901,2.7486712001264095,2.747918500099331,0.36601890018209815,0.8656255998648703,0.49960669968277216,
8,0.50288,0.1,2,0.31011,0.38554,0.48611,8,1.88579,-0.6,-0.30173,0.20115,5,2U1D,1.0,True,0.684,0,False,left,0.0,0.000753600150346756,1.8896278999745846,1.8888742998242378,0.2982785999774933,0.7981654000468552,0.4998868000693619,
9,0.50288,1.2,2,0.39392,0.28496,0.83813,9,2.3719,-0.3,-0.15086,0.35201,5,1U1D,1.0,True,1.806,0,False,left,0.0,0.0010287999175488949,2.374223300255835,2.373194500338286,0.3825286002829671,0.8825625004246831,0.500033900141716,
10,0.50288,0.1,1,0.35201,0.38554,0.56993,10,2.75744,0.9,0.45259,0.94708,5,lapse_rate,1.0,True,0.502,0,False,left,0.0,0.0007373001426458359,2.764287400059402,2.763550099916756,1.8480647997930646,2.348279300145805,0.5002145003527403,
11,0.50288,0.1,1,0.28496,0.33525,0.47773,11,2.32999,0.45,0.22629,0.72917,5,2D1U,1.0,True,0.948,0,False,left,0.0,0.0007295999675989151,2.3325195997022092,2.3317899997346103,1.473391399718821,1.973322100006044,0.49993070028722286,
12,0.50288,1.2,1,0.41068,0.36039,0.55316,12,2.59819,0.54,0.2682,0.77108,5,1D1U,2.0,False,0.235,1,True,right,0.0,0.0007474999874830246,2.5986772002652287,2.5979297002777457,1.7155296001583338,2.2153988000936806,0.49986919993534684,
13,0.50288,0.1,1,0.25982,0.28496,0.83813,13,2.31323,-0.15,-0.07543,0.42744,5,1U1D,2.0,True,0.591,0,False,right,0.0,0.0007205000147223473,2.3240636996924877,2.3233431996777654,1.507984499912709,2.007944399956614,0.4999599000439048,
14,0.50288,0.1,1,0.42744,0.39392,0.77108,14,3.0424,0.9,0.45259,0.94708,5,lapse_rate,1.0,True,0.359,0,False,left,0.0,0.0009594997391104698,3.056941600050777,3.0559821003116667,2.123628899920732,2.6241828999482095,0.5005540000274777,
15,0.50288,1.2,1,0.36039,0.31849,0.41068,15,1.86902,-0.45,-0.22629,0.27658,5,2U1D,1.0,False,6.328,0,False,left,0.0,0.0007338998839259148,1.8735994002781808,1.872865500394255,1.0318487002514303,1.531596400309354,0.4997477000579238,
16,0.50288,0.1,1,0.22629,0.44421,0.86327,16,2.53953,0.0,0.0,0.50288,5,1U1D,2.0,False,0.25,0,False,right,0.0,0.0007825996726751328,2.540774999652058,2.5399923999793828,1.5744622997008264,2.0745372995734215,0.5000749998725951,
17,0.50288,1.2,1,0.21791,0.28496,0.62021,17,2.57304,0.9,0.45259,0.94708,5,lapse_rate,2.0,False,0.251,0,False,right,0.0,0.0007426002994179726,2.5745014999993145,2.5737588996998966,1.7654228997416794,2.2665094998665154,0.501086600124836,
18,0.50288,1.2,1,0.23468,0.4023,0.76269,18,2.63172,0.45,0.22629,0.72917,5,2D1U,2.0,False,0.733,0,False,right,0.0,0.000742100179195404,2.6404621000401676,2.639719999860972,1.7068006000481546,2.2068839999847114,0.5000833999365568,
19,0.50288,0.1,1,0.28496,0.41068,0.62021,19,2.04502,-0.54,-0.2682,0.22629,5,2U1D,2.0,True,0.128,1,True,right,0.0,0.0007764999754726887,2.047577700112015,2.0468012001365423,1.1144722001627088,1.6144281001761556,0.4999559000134468,
20,0.50288,1.2,2,0.34363,0.35201,0.74593,20,2.75743,0.63,0.31849,0.81298,5,1D1U,2.0,True,0.686,1,False,right,0.0,0.0012950003147125244,2.764597199857235,2.7633021995425224,0.339990200009197,0.8394236997701228,0.49943349976092577,
21,0.50288,0.1,2,0.39392,0.30173,0.51964,21,2.26295,0.09,0.04191,0.54478,5,1U1D,2.0,True,1.1,1,True,right,0.0,0.0007430999539792538,2.2744585000909865,2.2737154001370072,0.382685299962759,0.8825988997705281,0.49991359980776906,
22,0.50288,1.2,2,0.2682,0.42744,0.41068,22,1.83549,-0.54,-0.2682,0.22629,5,2U1D,1.0,True,0.362,1,True,left,0.0,0.0005210000090301037,1.8407360003329813,1.8402150003239512,0.2574865003116429,0.7581766000948846,0.5006900997832417,
23,0.50288,0.1,2,0.43583,0.20953,0.56154,23,2.49762,0.576,0.28496,0.78784,5,1D1U,2.0,True,0.87,2,True,right,0.0,0.00025240005925297737,2.4986078003421426,2.4983554002828896,0.42415650002658367,0.9238261999562383,0.4996696999296546,
24,0.50288,1.2,2,0.38554,0.42744,0.85489,24,2.94183,0.54,0.2682,0.77108,5,2D1U,2.0,True,1.906,1,True,right,0.0,0.000750499777495861,2.9491665000095963,2.9484160002321005,0.37423379998654127,0.8745556999929249,0.5003219000063837,
25,0.50288,0.1,2,0.2682,0.33525,0.56993,25,1.72655,-0.9,-0.45259,0.05029,5,lapse_rate,1.0,True,0.575,0,False,left,0.0,0.0007428997196257114,1.7247088998556137,1.723966000135988,0.25797999976202846,0.7579195001162589,0.4999395003542304,
26,0.50288,0.1,2,0.36039,0.29334,0.68726,26,2.10369,-0.486,-0.24306,0.25982,5,2U1D,1.0,True,0.456,2,True,left,0.0,0.0009418996050953865,2.1147341998293996,2.113792300224304,0.34862959990277886,0.8487061997875571,0.5000765998847783,
27,0.50288,1.2,2,0.39392,0.36878,0.8046,27,2.84126,0.54,0.2682,0.77108,5,2D1U,1.0,False,0.433,1,True,left,0.0,0.0008148001506924629,2.8553390000015497,2.8545241998508573,0.38896070001646876,0.8880930999293923,0.4991323999129236,
28,0.50288,0.1,2,0.43583,0.25982,0.62859,28,2.58981,0.522,0.25982,0.76269,5,1D1U,2.0,True,0.375,2,False,right,0.0,0.0007328996434807777,2.5997174000367522,2.5989845003932714,0.42510770028457046,0.9247479001060128,0.49964019982144237,
29,0.50288,1.2,2,0.25144,0.23468,0.42744,29,2.36352,0.9,0.45259,0.94708,5,lapse_rate,2.0,True,0.725,0,False,right,0.0,0.000737400259822607,2.3747235001064837,2.373986099846661,0.2413821998052299,0.7414831998758018,0.5001010000705719,
30,0.50288,1.2,1,0.38554,0.2682,0.69564,30,2.3719,0.036,0.01676,0.51964,5,1U1D,1.0,True,6.754,2,True,left,0.0,0.0007483996450901031,2.373890200164169,2.373141800519079,1.5823135999962687,2.0821811999194324,0.49986759992316365,
31,0.50288,0.1,1,0.33525,0.24306,0.46097,31,2.03665,-0.018,-0.00838,0.49449,5,1U1D,1.0,False,3.609,2,False,left,0.0,0.00026880018413066864,2.0418328000232577,2.041563999839127,1.2750334003940225,1.774875400122255,0.4998419997282326,
32,0.50288,1.2,1,0.23468,0.30173,0.61183,32,2.4641,0.63,0.31849,0.81298,5,2D1U,2.0,False,4.06,1,False,right,0.0,0.0007469002157449722,2.466158200055361,2.465411299839616,1.6410743002779782,2.141459099948406,0.500384799670428,
33,0.50288,0.1,1,0.33525,0.27658,0.78784,33,2.6401,0.468,0.23468,0.73755,5,1D1U,1.0,True,1.242,2,False,left,0.0,0.0006552999839186668,2.6478096996434033,2.6471543996594846,1.8392810998484492,2.339250299613923,0.4999691997654736,
34,0.50288,1.2,1,0.4023,0.31011,0.71241,34,2.18752,-0.486,-0.24306,0.25982,5,2U1D,2.0,True,0.372,2,True,right,0.0,0.0008168998174369335,2.198115199804306,2.197298299986869,1.356965399812907,1.8572888998314738,0.5003235000185668,
35,0.50288,0.1,1,0.24306,0.37716,0.70403,35,1.87742,-0.9,-0.45259,0.05029,5,lapse_rate,2.0,True,0.59,0,False,right,0.0,0.0006769997999072075,1.8731428999453783,1.872465900145471,0.9817349999211729,1.4808998997323215,0.49916489981114864,
36,0.50288,0.1,1,0.36039,0.31011,0.49449,36,1.95283,-0.432,-0.21791,0.28496,5,2U1D,2.0,True,0.348,2,False,right,0.0,0.0008180001750588417,1.9564680000767112,1.9556499999016523,1.1239394000731409,1.623298500198871,0.49935910012573004,
37,0.50288,1.2,1,0.35201,0.25144,0.51964,37,2.48924,0.72,0.36039,0.86327,5,2D1U,2.0,False,1.404,1,False,right,0.0,0.0002719997428357601,2.4902651999145746,2.489993200171739,1.7144917999394238,2.2154040997847915,0.5009122998453677,
38,0.50288,0.1,1,0.43583,0.43583,0.55316,38,2.38867,-0.072,-0.03353,0.46097,5,1U1D,1.0,False,2.951,3,True,left,0.0,0.00070980004966259,2.390012599993497,2.3893027999438345,1.4314247998408973,1.93192799994722,0.5005032001063228,
39,0.50288,0.1,1,0.22629,0.45259,0.4023,39,1.63435,-0.9,-0.45259,0.05029,5,lapse_rate,2.0,True,0.267,0,False,right,0.0,0.0007841000333428383,1.6395196001976728,1.63873550016433,0.6644037002697587,1.16452020034194,0.5001165000721812,
40,0.50288,1.2,2,0.23468,0.42744,0.46097,40,2.33,0.414,0.20953,0.70403,5,1D1U,1.0,False,0.634,2,False,left,0.0,0.0007371003739535809,2.3400721000507474,2.339334999676794,0.22417759988456964,0.7239830000326037,0.4998054001480341,
41,0.50288,0.1,2,0.23468,0.37716,0.43583,41,1.83551,-0.432,-0.21791,0.28496,5,2U1D,1.0,True,0.404,2,False,left,0.0,0.0008072997443377972,1.8402070999145508,1.839399800170213,0.2231389000080526,0.7227692999877036,0.499630399979651,
42,0.50288,1.2,2,0.42744,0.35201,0.69564,42,2.71552,0.468,0.23468,0.73755,5,1D1U,2.0,True,0.945,3,True,right,0.0,0.0007330002263188362,2.7153833000920713,2.7146502998657525,0.41568510001525283,0.9155871998518705,0.4999020998366177,
43,0.50288,0.1,2,0.2682,0.4023,0.64536,43,2.72392,0.81,0.4023,0.90518,5,2D1U,2.0,True,0.279,1,False,right,0.0,0.000771000050008297,2.725338200107217,2.7245672000572085,0.2587345000356436,0.7581338998861611,0.4993993998505175,
44,0.50288,1.2,2,0.25982,0.44421,0.56154,44,2.20428,-0.126,-0.06705,0.43583,5,1U1D,1.0,True,0.59,3,False,left,0.0,0.0007310998626053333,2.2163908001966774,2.215659700334072,0.2496466003358364,0.7495865002274513,0.4999398998916149,
45,0.50288,0.1,2,0.44421,0.35201,0.73755,45,2.98373,0.9,0.45259,0.94708,5,lapse_rate,2.0,True,0.345,0,False,right,0.0,0.0007202001288533211,2.9895468996837735,2.98882669955492,0.4389706999063492,0.9400287996977568,0.5010580997914076,
46,0.50288,0.1,2,0.24306,0.36039,0.6705,46,1.82712,-0.9,-0.45259,0.05029,5,lapse_rate,1.0,True,1.034,0,False,left,0.0,0.0007778001017868519,1.8244722001254559,1.823694400023669,0.2322905003093183,0.7329226001165807,0.5006320998072624,
47,0.50288,0.1,2,0.31011,0.44421,0.68726,47,2.64849,0.414,0.20953,0.70403,5,1D1U,2.0,True,0.393,4,True,right,0.0,0.0007627001032233238,2.6560916998423636,2.6553289997391403,0.29805290000513196,0.7974709002301097,0.49941800022497773,
48,0.50288,1.2,2,0.34363,0.2682,0.86327,48,2.88316,0.81,0.4023,0.90518,5,2D1U,1.0,False,1.535,1,False,left,0.0,0.0007439004257321358,2.8886339999735355,2.8878900995478034,0.3389832996763289,0.8391565997153521,0.5001733000390232,
49,0.50288,0.1,2,0.41906,0.20115,0.62021,49,2.05341,-0.378,-0.19277,0.31011,5,2U1D,1.0,True,0.513,2,False,left,0.0,0.0007377997972071171,2.057034300174564,2.056296500377357,0.4072397002018988,0.9072350999340415,0.4999953997321427,
50,0.50288,1.2,1,0.4023,0.2682,0.71241,50,2.34676,-0.072,-0.03353,0.46097,5,1U1D,2.0,True,3.906,4,True,right,0.0,0.000255499966442585,2.348739600274712,2.3484841003082693,1.556952599901706,2.0576605000533164,0.5007079001516104,
51,0.50288,0.1,1,0.29334,0.4023,0.63698,51,2.32999,-0.018,-0.00838,0.49449,5,1U1D,1.0,False,0.357,4,False,left,0.0,0.0007707001641392708,2.3397747999988496,2.3390040998347104,1.4066747999750078,1.9069015001878142,0.5002267002128065,
52,0.50288,1.2,1,0.20115,0.29334,0.43583,52,2.11208,0.36,0.17601,0.67888,5,1D1U,1.0,True,5.821,4,False,left,0.0,0.000544500071555376,2.1162570999003947,2.1157125998288393,1.2994939996860921,1.7996638999320567,0.5001699002459645,
53,0.50288,0.1,1,0.22629,0.42744,0.55316,53,2.65685,0.9,0.45259,0.94708,5,2D1U,1.0,True,0.772,1,False,left,0.0,0.00026089977473020554,2.665614000055939,2.6653531002812088,1.7068795999512076,2.2065342999994755,0.49965470004826784,
54,0.50288,1.2,1,0.37716,0.42744,0.76269,54,2.38028,-0.378,-0.19277,0.31011,5,2U1D,2.0,True,0.579,2,False,right,0.0,0.0007865000516176224,2.3814824000000954,2.3806958999484777,1.431421299930662,1.9308314002119005,0.49941010028123856,
55,0.50288,1.2,1,0.4023,0.30173,0.78784,55,2.04504,-0.9,-0.45259,0.05029,5,lapse_rate,2.0,True,1.917,0,False,right,0.0,0.0007476997561752796,2.041420499794185,2.04067280003801,1.2244461998343468,1.7245439998805523,0.5000978000462055,
56,0.50288,0.1,1,0.36039,0.33525,0.82974,56,2.682,0.306,0.15086,0.65374,5,1D1U,1.0,True,0.57,4,False,left,0.0,0.0007540001533925533,2.6901576998643577,2.689403699710965,1.8235276998020709,2.3234776998870075,0.4999500000849366,
57,0.50288,0.1,1,0.36878,0.25982,0.88003,57,2.95859,0.9,0.45259,0.94708,5,lapse_rate,1.0,True,0.45,0,False,left,0.0,0.0007274998351931572,2.958022799808532,2.957295299973339,2.174376799724996,2.6746153999119997,0.5002386001870036,
58,0.50288,1.2,1,0.31849,0.35201,0.54478,58,2.66524,0.9,0.45259,0.94708,5,2D1U,1.0,True,0.495,1,False,left,0.0,0.0009086001664400101,2.6665877997875214,2.6656791996210814,1.790992499794811,2.2918674000538886,0.5008749002590775,
59,0.50288,0.1,1,0.31011,0.38554,0.74593,59,2.40543,-0.072,-0.03353,0.46097,5,1U1D,2.0,True,0.37,5,True,right,0.0,0.0007340000011026859,2.4070885996334255,2.406354599632323,1.500005199573934,1.9991468000225723,0.4991416004486382,
60,0.50288,1.2,2,0.42744,0.31849,0.73755,60,2.32161,-0.324,-0.15924,0.33525,5,2U1D,1.0,True,0.542,2,False,left,0.0,0.0007484997622668743,2.331898100208491,2.331149600446224,0.41475250013172626,0.9149909000843763,0.5002383999526501,
61,0.50288,0.1,2,0.39392,0.36878,0.86327,61,3.05079,0.846,0.41906,0.92194,5,2D1U,1.0,False,0.475,2,True,left,0.0,0.0007819002494215965,3.065721799619496,3.0649398993700743,0.3822396998293698,0.8824124997481704,0.5001727999188006,
62,0.50288,1.2,2,0.4023,0.42744,0.82974,62,2.49761,-0.324,-0.15924,0.33525,5,2U1D,1.0,True,0.486,2,False,left,0.0,0.0008036000654101372,2.498917399905622,2.498113799840212,0.3901589000597596,0.8903816998936236,0.500222799833864,
63,0.50288,0.1,2,0.38554,0.24306,0.67888,63,2.30485,-0.018,-0.00838,0.49449,5,1U1D,2.0,False,0.542,6,True,right,0.0,0.0008331001736223698,2.3065276998095214,2.305694599635899,0.37272620014846325,0.8731983001343906,0.5004720999859273,
64,0.50288,0.1,2,0.45259,0.45259,0.88003,64,2.33838,-0.9,-0.45259,0.05029,5,lapse_rate,1.0,True,0.472,0,False,left,0.0,0.0007687998004257679,2.3404824999161065,2.3397137001156807,0.4488995997235179,0.9487191997468472,0.49981960002332926,
65,0.50288,1.2,2,0.36039,0.37716,0.77946,65,2.64848,0.252,0.12572,0.62859,5,1D1U,1.0,False,0.486,4,False,left,0.0,0.0004909997805953026,2.6470852997153997,2.6465942999348044,0.34638729970902205,0.8472267999313772,0.5008395002223551,
66,0.50288,0.1,2,0.43583,0.21791,0.51126,66,2.32162,0.306,0.15086,0.65374,5,1D1U,2.0,True,0.533,5,True,right,0.0,0.0007604002021253109,2.332010599784553,2.3312501995824277,0.4238124997355044,0.9230515998788178,0.4992391001433134,
67,0.50288,1.2,2,0.36878,0.35201,0.54478,67,2.22942,-0.072,-0.03353,0.46097,5,1U1D,2.0,False,1.003,7,True,right,0.0,0.0002900003455579281,2.231829599943012,2.231539599597454,0.35741750011220574,0.8568337000906467,0.499416199978441,
68,0.50288,0.1,2,0.30173,0.21791,0.6705,68,2.6401,0.9,0.45259,0.94708,5,2D1U,2.0,True,0.326,3,True,right,0.0,0.0007564998231828213,2.6554771000519395,2.6547206002287567,0.28936459962278605,0.7896239999681711,0.5002594003453851,
69,0.50288,1.2,2,0.44421,0.22629,0.66212,69,2.20428,-0.27,-0.1341,0.36878,5,2U1D,2.0,False,0.53,2,False,right,0.0,0.0007702000439167023,2.206206100061536,2.205435900017619,0.4317517001181841,0.9318049000576138,0.5000531999394298,
70,0.50288,1.2,1,0.4023,0.35201,0.82974,70,2.13722,-0.9,-0.45259,0.05029,5,lapse_rate,2.0,True,0.275,0,False,right,0.0,0.0007607997395098209,2.1404089997522533,2.1396482000127435,1.2656745999120176,1.7658724999055266,0.500197899993509,
71,0.50288,0.1,1,0.25982,0.36878,0.81298,71,2.57305,0.252,0.12572,0.62859,5,1D1U,1.0,True,0.597,6,True,left,0.0,0.0007458999752998352,2.581706500146538,2.580960600171238,1.6824761000461876,2.1826416002586484,0.5001655002124608,
72,0.50288,1.2,1,0.32687,0.25982,0.65374,72,2.17914,-0.126,-0.06705,0.43583,5,1U1D,2.0,True,0.912,7,False,right,0.0,0.0007369001396000385,2.173272500280291,2.172535600140691,1.3979981001466513,1.8977314000949264,0.4997332999482751,
73,0.50288,0.1,1,0.41068,0.31011,0.41068,73,2.58143,0.9,0.45259,0.94708,5,2D1U,1.0,True,2.814,3,True,left,0.0,0.0007724002934992313,2.5913404999300838,2.5905680996365845,1.7488528001122177,2.249489299952984,0.5006364998407662,
74,0.50288,1.2,1,0.22629,0.25144,0.46097,74,1.77683,-0.324,-0.15924,0.33525,5,2U1D,2.0,True,0.539,3,True,right,0.0,0.0008581001311540604,1.780523699708283,1.7796655995771289,1.005420799832791,1.5054426998831332,0.5000219000503421,
75,0.50288,1.2,1,0.21791,0.31849,0.6705,75,1.76007,-0.9,-0.45259,0.05029,5,lapse_rate,2.0,True,0.884,0,False,right,0.0,0.0007630996406078339,1.771984400227666,1.771221300587058,0.9225771999917924,1.4225225001573563,0.4999453001655638,
76,0.50288,0.1,1,0.41068,0.20953,0.85489,76,2.89992,0.846,0.41906,0.92194,5,2D1U,1.0,True,0.315,4,True,left,0.0,0.0007418999448418617,2.9083061004057527,2.907564200460911,2.165409200359136,2.665923800319433,0.5005145999602973,
77,0.50288,1.2,1,0.20115,0.25982,0.73755,77,2.29647,0.198,0.10058,0.59507,5,1D1U,2.0,False,0.451,6,False,right,0.0,0.0007084999233484268,2.2978862999007106,2.297177799977362,1.514467100147158,2.0142544000409544,0.49978729989379644,
78,0.50288,0.1,1,0.20953,0.38554,0.87165,78,2.30485,-0.324,-0.15924,0.33525,5,2U1D,1.0,False,1.122,3,True,left,0.0,0.00042450008913874626,2.30685230018571,2.3064278000965714,1.398513900116086,1.89863510010764,0.500121199991554,
79,0.50288,1.2,1,0.4023,0.25982,0.75431,79,2.38028,-0.072,-0.03353,0.46097,5,1U1D,2.0,True,0.342,8,True,right,0.0,0.0007537002675235271,2.390476600266993,2.3897228999994695,1.598994900006801,2.098423100076616,0.4994282000698149,
80,0.50288,0.1,2,0.34363,0.44421,0.82974,80,3.06754,0.9,0.45259,0.94708,5,lapse_rate,2.0,True,0.651,0,False,right,0.0,0.0007821996696293354,3.0733970003202558,3.0726148006506264,0.3318652003072202,0.8321116003207862,0.500246400013566,
81,0.50288,0.1,2,0.24306,0.31849,0.56154,81,2.54791,0.846,0.41906,0.92194,5,2D1U,2.0,True,0.852,4,True,right,0.0,0.0004024999216198921,2.549395500216633,2.548993000295013,0.23248210037127137,0.7323092999868095,0.4998271996155381,
82,0.50288,1.2,2,0.38554,0.25982,0.54478,82,2.18751,-0.018,-0.00838,0.49449,5,1U1D,1.0,True,0.406,8,False,left,0.0,0.00043949997052550316,2.1904281000606716,2.189988600090146,0.3734075999818742,0.8733156998641789,0.49990809988230467,
83,0.50288,0.1,2,0.2682,0.20953,0.87165,83,2.48085,0.252,0.12572,0.62859,5,1D1U,2.0,True,0.499,7,True,right,0.0,0.0007311999797821045,2.4890266000293195,2.4882954000495374,0.2557577998377383,0.7555982996709645,0.4998404998332262,
84,0.50288,1.2,2,0.4023,0.23468,0.74593,84,2.1959,-0.378,-0.19277,0.31011,5,2U1D,1.0,True,0.773,3,False,left,0.0,0.00030139973387122154,2.2071398999542,2.2068385002203286,0.39023369969800115,0.8897754997014999,0.4995418000034988,
85,0.50288,0.1,2,0.22629,0.2682,0.45259,85,2.39704,0.9,0.45259,0.94708,5,lapse_rate,2.0,True,0.338,0,False,right,0.0,0.0008065002039074898,2.399073099717498,2.3982665995135903,0.2161873998120427,0.7160159996710718,0.49982859985902905,
86,0.50288,0.1,2,0.28496,0.36039,0.55316,86,2.0115,-0.378,-0.19277,0.31011,5,2U1D,2.0,False,1.229,3,False,right,0.0,0.0007416000589728355,2.015026300214231,2.014284700155258,0.27275170013308525,0.7729160999879241,0.5001643998548388,
87,0.50288,1.2,2,0.22629,0.20953,0.62859,87,2.46408,0.792,0.39392,0.89679,5,2D1U,2.0,True,0.364,4,False,right,0.0,0.0003906995989382267,2.465228700079024,2.4648380004800856,0.2155128000304103,0.7155141001567245,0.5000013001263142,
88,0.50288,0.1,2,0.37716,0.41906,0.82974,88,2.64848,0.036,0.01676,0.51964,5,1U1D,2.0,True,0.508,8,False,right,0.0,0.0006409999914467335,2.648909700103104,2.6482687001116574,0.36520149977877736,0.86434690002352,0.49914540024474263,
89,0.50288,1.2,2,0.20953,0.39392,0.68726,89,2.74067,0.9,0.45259,0.94708,5,lapse_rate,1.0,False,0.367,0,False,left,0.0,0.0007183998823165894,2.7485448997467756,2.747826499864459,0.19862100016325712,0.699106500018388,0.5004854998551309,
90,0.50288,1.2,1,0.27658,0.23468,0.55316,90,2.16237,0.198,0.10058,0.59507,5,1D1U,2.0,False,0.505,8,True,right,0.0,0.0013164998963475227,2.165785299614072,2.1644687997177243,1.407537399791181,1.9074617000296712,0.4999243002384901,
91,0.50288,0.1,1,0.39392,0.20953,0.72079,91,2.45571,0.252,0.12572,0.62859,5,1D1U,2.0,False,0.737,9,True,right,0.0,0.00024979980662465096,2.4574827002361417,2.457232900429517,1.7245291001163423,2.2241136003285646,0.49958450021222234,
92,0.50288,1.2,1,0.42744,0.36039,0.77946,92,2.96696,0.792,0.39392,0.89679,5,2D1U,1.0,True,0.311,4,False,left,0.0,0.0007307999767363071,2.9727897997945547,2.9720589998178184,2.0809097001329064,2.581007500179112,0.5000978000462055,
93,0.50288,0.1,1,0.44421,0.43583,0.6705,93,2.54791,-0.018,-0.00838,0.49449,5,1U1D,2.0,True,0.569,8,False,right,0.0,0.0007730000652372837,2.5494225998409092,2.548649599775672,1.5921618998982012,2.091601099818945,0.4994391999207437,
94,0.50288,1.2,1,0.44421,0.41068,0.76269,94,2.40542,-0.432,-0.21791,0.28496,5,2U1D,2.0,True,0.567,3,False,right,0.0,0.0007718000560998917,2.4074575998820364,2.4066857998259366,1.473855399992317,1.9737812001258135,0.4999258001334965,
95,0.50288,0.1,1,0.22629,0.20953,0.41906,95,1.40805,-0.9,-0.45259,0.05029,5,lapse_rate,2.0,True,0.314,0,False,right,0.0,0.0007500997744500637,1.409072000067681,1.408321900293231,0.6821250999346375,1.1828105999156833,0.5006854999810457,
96,0.50288,0.1,1,0.41068,0.42744,0.42744,96,2.0534,-0.432,-0.21791,0.28496,5,2U1D,2.0,True,0.384,3,False,right,0.0,0.0008171000517904758,2.0571471001021564,2.056330000050366,1.107019499875605,1.6068143001757562,0.4997948003001511,
97,0.50288,1.2,1,0.4023,0.31011,0.68726,97,1.95284,-0.9,-0.45259,0.05029,5,lapse_rate,2.0,True,0.315,0,False,right,0.0,0.0007588998414576054,1.9569222000427544,1.9561633002012968,1.1242678998969495,1.6240957998670638,0.49982789997011423,
98,0.50288,1.2,1,0.35201,0.4023,0.62021,98,2.53114,0.306,0.15086,0.65374,5,1D1U,1.0,True,0.826,9,False,left,0.0,0.0007634996436536312,2.541026100050658,2.5402626004070044,1.6071798000484705,2.1079671001061797,0.5007873000577092,
99,0.50288,0.1,1,0.27658,0.20115,0.62859,99,2.48085,0.738,0.36878,0.87165,5,2D1U,1.0,True,1.184,4,False,left,0.0,0.0007806001231074333,2.490539699792862,2.4897590996697545,1.7574478997848928,2.2573808999732137,0.4999330001883209,
100,0.50288,1.2,2,0.34363,0.28496,0.50288,100,2.15399,0.036,0.01676,0.51964,5,1U1D,1.0,False,1.68,8,False,left,0.0,0.00027530035004019737,2.1561526996083558,2.1558773992583156,0.33127389987930655,0.8310952996835113,0.4998213998042047,
101,0.50288,0.1,2,0.41068,0.2682,0.64536,101,2.45571,0.252,0.12572,0.62859,5,1D1U,2.0,True,0.308,10,True,right,0.0,0.00078959995880723,2.4552768003195524,2.454487200360745,0.4054467002861202,0.9053826001472771,0.49993589986115694,
102,0.50288,1.2,2,0.24306,0.4023,0.44421,102,2.4641,0.738,0.36878,0.87165,5,2D1U,1.0,False,0.516,4,False,left,0.0,0.0004243999719619751,2.4731863997876644,2.4727619998157024,0.23159589990973473,0.7315307999961078,0.4999349000863731,
103,0.50288,0.1,2,0.29334,0.37716,0.88841,103,2.60657,0.09,0.04191,0.54478,5,1U1D,2.0,True,0.589,9,True,right,0.0,0.00025589996948838234,2.613239100202918,2.6129832002334297,0.280195000115782,0.7798020001500845,0.4996070000343025,
104,0.50288,0.1,2,0.30173,0.21791,0.61183,104,1.68464,-0.9,-0.45259,0.05029,5,lapse_rate,1.0,True,0.48,0,False,left,0.0,0.0007131998427212238,1.6899804999120533,1.6892673000693321,0.29079189989715815,0.7905131001025438,0.4997212002053857,
105,0.50288,1.2,2,0.43583,0.25144,0.85489,105,2.35515,-0.378,-0.19277,0.31011,5,2U1D,1.0,True,0.808,4,True,left,0.0,0.0011439998634159565,2.3566850000061095,2.3555410001426935,0.42299019964411855,0.9232524000108242,0.5002622003667057,
106,0.50288,0.1,2,0.39392,0.42744,0.41906,106,2.64009,0.792,0.39392,0.89679,5,2D1U,2.0,True,0.666,5,True,right,0.0,0.0003972998820245266,2.6481109000742435,2.647713600192219,0.38077430007979274,0.8810300002805889,0.5002557002007961,
107,0.50288,1.2,2,0.33525,0.4023,0.60345,107,2.36352,0.036,0.01676,0.51964,5,1U1D,1.0,False,2.718,10,True,left,0.0,0.0004667001776397228,2.373074700124562,2.372607999946922,0.3230034001171589,0.8228715998120606,0.4998681996949017,
108,0.50288,0.1,2,0.28496,0.21791,0.68726,108,2.28808,0.198,0.10058,0.59507,5,1D1U,2.0,True,0.314,10,False,right,0.0,0.0007437998428940773,2.283215000294149,2.282471200451255,0.27520819986239076,0.7744872001931071,0.49927900033071637,
109,0.50288,1.2,2,0.25982,0.41906,0.41068,109,1.90255,-0.378,-0.19277,0.31011,5,2U1D,1.0,True,0.267,4,True,left,0.0,0.0007557002827525139,1.9139723000116646,1.9132165997289121,0.24747970001772046,0.7480870001018047,0.5006073000840843,
110,0.50288,0.1,1,0.41068,0.34363,0.41068,110,2.61495,0.9,0.45259,0.94708,5,lapse_rate,1.0,True,0.461,0,False,left,0.0,0.0002550003118813038,2.614846699871123,2.6145916995592415,1.748327899724245,2.2483150996267796,0.4999871999025345,
111,0.50288,0.1,1,0.41068,0.36878,0.54478,111,2.39705,0.144,0.07543,0.56993,5,1D1U,1.0,True,1.253,10,False,left,0.0,0.000738899689167738,2.3995520998723805,2.3988132001832128,1.5076737999916077,2.007597299758345,0.4999234997667372,
112,0.50288,1.2,1,0.22629,0.24306,0.41068,112,1.92769,0.09,0.04191,0.54478,5,1U1D,2.0,False,0.157,11,True,right,0.0,0.0007950002327561378,1.9317726003937423,1.9309776001609862,1.1649652002379298,1.665534000378102,0.5005688001401722,
113,0.50288,0.1,1,0.36878,0.21791,0.88841,113,2.31323,-0.324,-0.15924,0.33525,5,2U1D,2.0,True,0.51,4,False,right,0.0,0.00026590004563331604,2.3154417001642287,2.3151758001185954,1.5738490000367165,2.0736226001754403,0.49977360013872385,
114,0.50288,1.2,1,0.35201,0.2682,0.51126,114,2.53114,0.792,0.39392,0.89679,5,2D1U,1.0,True,2.998,5,True,left,0.0,0.0005400003865361214,2.540300500113517,2.539760499726981,1.7408231003209949,2.24053050018847,0.49970739986747503,
115,0.50288,1.2,1,0.38554,0.41068,0.61183,115,2.85801,0.9,0.45259,0.94708,5,lapse_rate,2.0,False,0.367,0,False,right,0.0,0.0005385000258684158,2.855430600233376,2.8548921002075076,1.9301102003082633,2.429889100138098,0.4997788998298347,
116,0.50288,1.2,1,0.20953,0.25144,0.66212,116,1.67626,-0.9,-0.45259,0.05029,5,lapse_rate,2.0,True,0.238,0,False,right,0.0,0.0007389001548290253,1.6828784001991153,1.6821395000442863,0.9072962002828717,1.407816800288856,0.5005206000059843,
117,0.50288,0.1,1,0.27658,0.27658,0.57831,117,2.506,0.738,0.36878,0.87165,5,2D1U,2.0,False,0.673,6,True,right,0.0,0.000767699908465147,2.51583159994334,2.5150639000348747,1.707543899770826,2.2079969998449087,0.5004531000740826,
118,0.50288,1.2,1,0.31849,0.25144,0.87165,118,2.51439,0.144,0.07543,0.56993,5,1U1D,2.0,False,0.705,11,False,right,0.0,0.00031400006264448166,2.5148823000490665,2.514568299986422,1.7402198002673686,2.2395875002257526,0.49936769995838404,
119,0.50288,0.1,1,0.33525,0.39392,0.46097,119,2.02827,-0.324,-0.15924,0.33525,5,2U1D,2.0,True,0.232,4,False,right,0.0,0.0007274998351931572,2.023912400007248,2.0231849001720548,1.1153266001492739,1.6154821999371052,0.5001555997878313,
120,0.50288,1.2,2,0.32687,0.36039,0.56154,120,2.29646,0.09,0.04191,0.54478,5,1D1U,1.0,False,0.318,10,False,left,0.0,0.0007782001048326492,2.2999041001312435,2.299125900026411,0.3165838001295924,0.816340500023216,0.4997566998936236,
121,0.50288,1.2,2,0.31011,0.35201,0.43583,121,2.54791,0.9,0.45259,0.94708,5,lapse_rate,2.0,True,0.315,0,False,right,0.0,0.0007334002293646336,2.5490998001769185,2.548366399947554,0.2989742001518607,0.7988774999976158,0.4999032998457551,
122,0.50288,0.1,2,0.36878,0.36878,0.71241,122,2.32163,-0.27,-0.1341,0.36878,5,2U1D,1.0,True,0.399,4,False,left,0.0,0.0007739998400211334,2.3332034000195563,2.332429400179535,0.35822909977287054,0.8582768999040127,0.5000478001311421,
123,0.50288,1.2,2,0.23468,0.31011,0.69564,123,2.6401,0.792,0.39392,0.89679,5,2D1U,1.0,False,0.325,7,True,left,0.0,0.0005095000378787518,2.6485417000949383,2.6480322000570595,0.22409129980951548,0.7236526999622583,0.49956140015274286,
124,0.50288,0.1,2,0.42744,0.29334,0.78784,124,2.60657,0.198,0.10058,0.59507,5,1U1D,2.0,True,0.342,11,False,right,0.0,0.00078629981726408,2.607255999930203,2.606469700112939,0.41561940032988787,0.9157187002710998,0.5000992999412119,
125,0.50288,1.2,2,0.20115,0.33525,0.88003,125,2.48924,0.144,0.07543,0.56993,5,1D1U,2.0,True,0.961,11,True,right,0.0,0.0006629000417888165,2.4827935001812875,2.4821306001394987,0.19082630006596446,0.6909214998595417,0.5000951997935772,
126,0.50288,1.2,2,0.37716,0.25982,0.46097,126,1.65112,-0.9,-0.45259,0.05029,5,lapse_rate,1.0,True,0.517,0,False,left,0.0,0.0008037001825869083,1.6647553001530468,1.66395159997046,0.3647524998523295,0.8648665999062359,0.5001141000539064,
127,0.50288,0.1,2,0.36878,0.44421,0.51964,127,2.38029,0.09,0.04191,0.54478,5,1D1U,2.0,True,0.312,12,True,right,0.0,0.0007449002005159855,2.3822354995645583,2.3814905993640423,0.35698229959234595,0.857005899772048,0.500023600179702,
128,0.50288,1.2,2,0.27658,0.25144,0.63698,128,2.58982,0.846,0.41906,0.92194,5,2D1U,2.0,True,0.491,7,False,right,0.0,0.0007587000727653503,2.6077973996289074,2.607038699556142,0.2661460996605456,0.7663055998273194,0.5001595001667738,
129,0.50288,0.1,2,0.23468,0.35201,0.46935,129,1.9277,-0.27,-0.1341,0.36878,5,2U1D,1.0,True,0.386,4,False,left,0.0,0.0007354998961091042,1.93199980026111,1.931264300365001,0.22362660011276603,0.7231205003336072,0.49949390022084117,
130,0.50288,1.2,1,0.31011,0.33525,0.71241,130,2.43058,0.144,0.07543,0.56993,5,1U1D,2.0,False,1.581,12,True,right,0.0,0.0007889000698924065,2.4325407999567688,2.4317518998868763,1.5743124997243285,2.0746887996792793,0.5003762999549508,
131,0.50288,1.2,1,0.30173,0.36039,0.6705,131,2.78258,0.9,0.45259,0.94708,5,lapse_rate,1.0,True,0.345,0,False,left,0.0,0.0007385001517832279,2.7818805002607405,2.7811420001089573,1.8992304001003504,2.398889400064945,0.49965899996459484,
132,0.50288,0.1,1,0.42744,0.23468,0.82974,132,2.51438,0.036,0.01676,0.51964,5,1D1U,2.0,False,0.368,12,False,right,0.0,0.0008199997246265411,2.5145073998719454,2.513687400147319,1.7560454001650214,2.2565506999380887,0.5005052997730672,
133,0.50288,1.2,1,0.21791,0.4023,0.62859,133,2.1456,-0.216,-0.10896,0.39392,5,2U1D,2.0,True,0.282,4,False,right,0.0,0.000766499899327755,2.1569640999659896,2.156197600066662,1.2240923000499606,1.7237674999050796,0.499675199855119,
134,0.50288,0.1,1,0.21791,0.23468,0.88841,134,2.43895,0.198,0.10058,0.59507,5,1U1D,1.0,True,0.496,13,True,left,0.0,0.0005737002938985825,2.441375599708408,2.4408018994145095,1.6831843997351825,2.183287799824029,0.5001034000888467,
135,0.50288,1.2,1,0.37716,0.32687,0.67888,135,2.80773,0.846,0.41906,0.92194,5,2D1U,1.0,True,0.639,7,False,left,0.0,0.0007253997027873993,2.8153172000311315,2.814591800328344,1.9567320002242923,2.457029700279236,0.5002977000549436,
136,0.50288,0.1,1,0.2682,0.2682,0.4023,136,1.8355,-0.216,-0.10896,0.39392,5,2U1D,1.0,False,0.979,4,False,left,0.0,0.0007331999950110912,1.8412533001974225,1.8405201002024114,1.0499162003397942,1.549553600139916,0.4996373998001218,
137,0.50288,1.2,1,0.29334,0.23468,0.43583,137,2.01151,0.09,0.04191,0.54478,5,1D1U,2.0,False,0.884,13,True,right,0.0,0.0007095001637935638,2.0246121999807656,2.023902699816972,1.2576506999321282,1.75799909979105,0.5003483998589218,
138,0.50288,0.1,1,0.33525,0.28496,0.68726,138,2.70714,0.792,0.39392,0.89679,5,2D1U,2.0,False,0.299,8,True,right,0.0,0.0007983995601534843,2.7071026996709406,2.706304300110787,1.8992176996544003,2.3980829999782145,0.49886530032381415,
139,0.50288,1.2,1,0.24306,0.31011,0.79622,139,2.79935,0.9,0.45259,0.94708,5,lapse_rate,2.0,False,0.546,0,False,right,0.0,0.00043979985639452934,2.799519599881023,2.7990798000246286,1.9662608997896314,2.4660891997627914,0.49982829997316003,
140,0.50288,1.2,2,0.29334,0.42744,0.41906,140,2.21265,0.144,0.07543,0.56993,5,1U1D,1.0,False,0.48,14,True,left,0.0,0.0002649999223649502,2.2153137996792793,2.2150487997569144,0.28117659967392683,0.7821001997217536,0.5009236000478268,
141,0.50288,0.1,2,0.37716,0.35201,0.65374,141,2.25457,-0.27,-0.1341,0.36878,5,2U1D,2.0,False,0.874,5,True,right,0.0,0.0008179997093975544,2.266578100156039,2.2657601004466414,0.36601460026577115,0.8668122002854943,0.5007976000197232,
142,0,0,0,0,0,0,0,0,0,0,0,0,0,0,0,0,0,0,0,0,0,0,0,0,0,0,0
143,0.50288,1.2,2,0.23468,0.33525,0.72917,143,2.39705,0.198,0.10058,0.59507,5,1U1D,1.0,False,0.279,15,True,left,0.0,0.0007456997409462929,2.396879500243813,2.3961338005028665,0.23119880026206374,0.7311635999940336,0.49996479973196983,
144,0.50288,0.1,2,0.23468,0.23468,0.77946,144,2.67364,0.846,0.41906,0.92194,5,2D1U,2.0,True,0.223,9,True,right,0.0,0.0006875996477901936,2.682361999992281,2.681674400344491,0.22411519987508655,0.7237013000994921,0.4995861002244055,
145,0.50288,1.2,2,0.27658,0.29334,0.42744,145,2.07017,0.144,0.07543,0.56993,5,1D1U,1.0,False,0.289,13,False,left,0.0,0.0007485002279281616,2.0727488999255,2.072000399697572,0.26526919985190034,0.7654232997447252,0.5001540998928249,
146,0.50288,0.1,2,0.27658,0.25144,0.65374,146,2.31323,0.252,0.12572,0.62859,5,1U1D,2.0,True,0.232,15,False,right,0.0,0.0006380998529493809,2.3146530999802053,2.314015000127256,0.2642370997928083,0.7655831999145448,0.5013461001217365,
147,0.50288,1.2,2,0.38554,0.2682,0.41068,147,2.16237,0.198,0.10058,0.59507,5,1U1D,1.0,False,1.058,16,True,left,0.0,0.0007372000254690647,2.174188300035894,2.173451100010425,0.3740440998226404,0.873236000072211,0.4991919002495706,
148,0.50288,0.1,2,0.39392,0.43583,0.73755,148,2.99212,0.846,0.41906,0.92194,5,2D1U,2.0,True,0.483,9,True,right,0.0,0.000820700079202652,3.0075530000030994,3.006732299923897,0.38188419956713915,0.8828241997398436,0.5009400001727045,
149,0.50288,1.2,2,0.23468,0.24306,0.60345,149,1.91932,-0.324,-0.15924,0.33525,5,2U1D,1.0,True,0.39,5,False,left,0.0,0.0008136997930705547,1.9151253998279572,1.9143117000348866,0.22356950026005507,0.7236219001933932,0.5000523999333382,
150,0.50288,0.1,1,0.42744,0.32687,0.61183,150,2.46409,0.198,0.10058,0.59507,5,1D1U,1.0,True,0.346,13,False,left,0.0,0.0009082998149096966,2.473951199557632,2.4730428997427225,1.615725599694997,2.115700099617243,0.49997449992224574,
151,0.50288,1.2,1,0.36878,0.43583,0.46097,151,2.66525,0.792,0.39392,0.89679,5,2D1U,2.0,False,0.778,10,True,right,0.0,0.0002557998523116112,2.66540880035609,2.6651530005037785,1.7074166000820696,2.2069418001919985,0.49952520010992885,
152,0.50288,0.1,1,0.30173,0.4023,0.78784,152,2.33,-0.324,-0.15924,0.33525,5,2U1D,1.0,False,0.757,5,False,left,0.0,0.0007859999313950539,2.3394532999955118,2.3386673000641167,1.4059935002587736,1.9060978000052273,0.5001042997464538,
153,0.50288,1.2,1,0.33525,0.36039,0.41068,153,2.23779,0.252,0.12572,0.62859,5,1U1D,2.0,False,1.46,17,True,right,0.0,0.0007378002628684044,2.2393583999946713,2.238620599731803,1.3563838000409305,1.8558780001476407,0.4994942001067102,
154,0.50288,0.1,1,0.35201,0.33525,0.46935,154,2.22942,0.144,0.07543,0.56993,5,1D1U,1.0,True,0.422,14,True,left,0.0,0.00028510019183158875,2.222019599750638,2.2217344995588064,1.3730013999156654,1.8728354997001588,0.49983409978449345,
155,0.50288,1.2,1,0.21791,0.23468,0.72917,155,2.22942,0.09,0.04191,0.54478,5,1D1U,2.0,False,0.265,14,False,right,0.0,0.0007401998154819012,2.2330872998572886,2.2323471000418067,1.4742268999107182,1.9741728999651968,0.49994600005447865,
156,0.50288,0.1,1,0.32687,0.29334,0.6705,156,2.71553,0.846,0.41906,0.92194,5,2D1U,1.0,True,0.407,11,True,left,0.0,0.000745799858123064,2.723519000224769,2.722773200366646,1.9064033003523946,2.4060602001845837,0.4996568998321891,
157,0.50288,1.2,1,0.34363,0.24306,0.70403,157,2.36353,0.144,0.07543,0.56993,5,1D1U,2.0,False,0.38,15,True,right,0.0,0.0007451996207237244,2.372827799990773,2.3720826003700495,1.598522299900651,2.097900899592787,0.49937859969213605,
158,0.50288,0.1,1,0.21791,0.36878,0.49449,158,2.2378,0.306,0.15086,0.65374,5,1U1D,1.0,True,0.281,17,False,left,0.0,0.0007293000817298889,2.24158739997074,2.24085809988901,1.349946000147611,1.849859000183642,0.499913000036031,
159,0.50288,1.2,1,0.33525,0.41906,0.51964,159,2.40542,0.252,0.12572,0.62859,5,1U1D,2.0,False,0.723,18,True,right,0.0,0.0005290000699460506,2.407405400183052,2.4068764001131058,1.4657463999465108,1.9658738002181053,0.5001274002715945,
160,0.50288,0.1,2,0.43583,0.32687,0.81298,160,2.38867,-0.378,-0.19277,0.31011,5,2U1D,1.0,True,1.138,5,False,left,0.0,0.00048739975318312645,2.3905390999279916,2.3900517001748085,0.42395219998434186,0.9236889998428524,0.4997367998585105,
161,0.50288,1.2,2,0.30173,0.37716,0.79622,161,2.63173,0.306,0.15086,0.65374,5,1U1D,2.0,True,1.25,19,True,right,0.0,0.0007311999797821045,2.6397877000272274,2.6390565000474453,0.28902640007436275,0.7895102999173105,0.5004838998429477,
162,0.50288,0.1,2,0.4023,0.42744,0.61183,162,2.57304,0.252,0.12572,0.62859,5,1U1D,2.0,True,0.646,20,True,right,0.0,0.0007396996952593327,2.5829158001579344,2.582176100462675,0.3913711002096534,0.8913384000770748,0.4999672998674214,
163,0.50288,1.2,2,0.23468,0.22629,0.62021,163,1.89417,-0.378,-0.19277,0.31011,5,2U1D,1.0,True,0.601,5,False,left,0.0,0.0007361997850239277,1.8993365997448564,1.8986003999598324,0.22484359983354807,0.7244533998891711,0.49960980005562305,
164,0.50288,0.1,2,0.27658,0.20115,0.8046,164,2.38028,0.198,0.10058,0.59507,5,1D1U,2.0,True,0.333,15,False,right,0.0,0.0008636997081339359,2.3901712000370026,2.3893075003288686,0.26503090001642704,0.7651131004095078,0.5000822003930807,
165,0.50288,1.2,2,0.20953,0.44421,0.68726,165,2.76582,0.846,0.41906,0.92194,5,2D1U,2.0,True,1.179,11,True,right,0.0,0.0007825000211596489,2.7739591002464294,2.77317660022527,0.19886390026658773,0.6987968999892473,0.4999329997226596,
166,0.50288,0.1,2,0.21791,0.31849,0.56154,166,2.17075,0.144,0.07543,0.56993,5,1D1U,2.0,True,0.476,16,True,right,0.0,0.0007676002569496632,2.1830031001009047,2.182235499843955,0.20866890018805861,0.7076920000836253,0.4990230998955667,
167,0.50288,1.2,2,0.27658,0.24306,0.56154,167,1.91931,-0.324,-0.15924,0.33525,5,2U1D,1.0,True,0.495,6,True,left,0.0,0.0007486999966204166,1.9230696000158787,1.9223209000192583,0.2648809002712369,0.7647909000515938,0.4999099997803569,
168,0.50288,0.1,2,0.41068,0.23468,0.68726,168,2.43057,0.198,0.10058,0.59507,5,1U1D,2.0,True,0.433,20,False,right,0.0,0.0007346002385020256,2.442193000111729,2.441458399873227,0.4004958001896739,0.9005321003496647,0.5000363001599908,
169,0.50288,1.2,2,0.36039,0.29334,0.88003,169,2.93343,0.792,0.39392,0.89679,5,2D1U,2.0,True,0.461,12,True,right,0.0,0.0007611000910401344,2.9400225998833776,2.9392614997923374,0.34917339961975813,0.8492083996534348,0.5000350000336766,
170,0.50288,0.1,1,0.33525,0.37716,0.78784,170,2.54791,0.09,0.04191,0.54478,5,1D1U,2.0,False,0.783,16,False,right,0.0,0.0008811997249722481,2.548515100032091,2.547633900307119,1.648404700215906,2.148139300290495,0.49973460007458925,
171,0.50288,1.2,1,0.20115,0.27658,0.62021,171,2.17075,0.144,0.07543,0.56993,5,1D1U,1.0,True,1.02,17,True,left,0.0,0.0007430999539792538,2.181054300162941,2.180311200208962,1.3724332000128925,1.8719409997574985,0.499507799744606,
172,0.50288,0.1,1,0.2682,0.41068,0.86327,172,2.94182,0.792,0.39392,0.89679,5,2D1U,1.0,True,0.342,12,True,left,0.0,0.0002922997809946537,2.955882200039923,2.9555899002589285,2.005564699880779,2.5059106000699103,0.5003459001891315,
173,0.50288,1.2,1,0.20953,0.33525,0.47773,173,2.39704,0.738,0.36878,0.87165,5,2D1U,1.0,True,0.284,12,False,left,0.0,0.0007774000987410545,2.399607500061393,2.3988300999626517,1.5409463997930288,2.041077199857682,0.5001308000646532,
174,0.50288,0.1,1,0.32687,0.31849,0.41906,174,2.13723,0.144,0.07543,0.56993,5,1U1D,2.0,False,0.114,20,False,right,0.0,0.0007658996619284153,2.133006999734789,2.1322411000728607,1.298663199879229,1.7988378996960819,0.5001746998168528,
175,0.50288,1.2,1,0.20953,0.25982,0.43583,175,1.74331,-0.324,-0.15924,0.33525,5,2U1D,2.0,True,0.252,6,True,right,0.0,0.0007591000758111477,1.748174199834466,1.7474150997586548,0.9646322000771761,1.4644923000596464,0.4998600999824703,
176,0.50288,0.1,1,0.41906,0.29334,0.74593,176,2.50599,0.09,0.04191,0.54478,5,1D1U,2.0,False,0.45,18,True,right,0.0,0.000730500090867281,2.505421900190413,2.5046914000995457,1.6887459000572562,2.1886187000200152,0.499872799962759,
177,0.50288,1.2,1,0.41906,0.20115,0.61183,177,2.32999,0.198,0.10058,0.59507,5,1U1D,2.0,False,0.111,21,True,right,0.0,0.0007460000924766064,2.339558499865234,2.3388124997727573,1.6064202999696136,2.106308899819851,0.49988859985023737,
178,0.50288,0.1,1,0.38554,0.36878,0.60345,178,2.7323,0.738,0.36878,0.87165,5,2D1U,1.0,True,0.444,12,False,left,0.0,0.0009143003262579441,2.741110799834132,2.7401964995078743,1.8412184999324381,2.3410626999102533,0.49984419997781515,
179,0.50288,1.2,1,0.30173,0.44421,0.82974,179,2.44734,-0.27,-0.1341,0.36878,5,2U1D,1.0,False,0.72,6,False,left,0.0,0.0007535996846854687,2.4497430003248155,2.44898940064013,1.4830356002785265,1.9828773001208901,0.4998416998423636,
180,0.50288,0.1,2,0.32687,0.32687,0.74593,180,2.47248,0.144,0.07543,0.56993,5,1D1U,2.0,True,0.745,19,True,right,0.0,0.000627600122243166,2.4809868996962905,2.4803592995740473,0.31439519999548793,0.8146210997365415,0.5002258997410536,
181,0.50288,1.2,2,0.41068,0.32687,0.51964,181,2.5982,0.684,0.34363,0.83813,5,2D1U,2.0,True,0.291,12,False,right,0.0,0.0007551996968686581,2.5983198997564614,2.5975647000595927,0.3990219999104738,0.8988608997315168,0.499838899821043,
182,0.50288,0.1,2,0.34363,0.20953,0.47773,182,2.07855,0.09,0.04191,0.54478,5,1D1U,2.0,True,0.273,20,True,right,0.0,0.0004846998490393162,2.0816498999483883,2.081165200099349,0.3329362999647856,0.8329495997168124,0.5000132997520268,
183,0.50288,1.2,2,0.32687,0.41068,0.72079,183,2.58981,0.252,0.12572,0.62859,5,1U1D,2.0,True,0.29,21,False,right,0.0,0.000709999818354845,2.5996626000851393,2.5989526002667844,0.31561020016670227,0.8164558000862598,0.5008455999195576,
184,0.50288,0.1,2,0.27658,0.31849,0.86327,184,2.55629,0.198,0.10058,0.59507,5,1U1D,2.0,True,0.363,22,True,right,0.0,0.0007243999280035496,2.5578199001029134,2.55709550017491,0.2661020001396537,0.7657935000024736,0.4996914998628199,
185,0.50288,1.2,2,0.41906,0.25144,0.70403,185,2.21266,-0.324,-0.15924,0.33525,5,2U1D,1.0,True,0.372,7,True,left,0.0,0.0005540996789932251,2.2161408001556993,2.215586700476706,0.4081044001504779,0.907714799977839,0.4996103998273611,
186,0.50288,0.1,2,0.41068,0.21791,0.52802,186,2.49762,0.684,0.34363,0.83813,5,2D1U,2.0,True,0.33,12,False,right,0.0,0.0007382999174296856,2.4987466000020504,2.4980083000846207,0.3993734000250697,0.8986777998507023,0.49930439982563257,
187,0.50288,1.2,2,0.25982,0.43583,0.75431,187,2.47248,0.036,0.01676,0.51964,5,1D1U,1.0,False,0.52,20,False,left,0.0,0.0007467996329069138,2.474092099815607,2.4733453001827,0.24962199991568923,0.7485667997971177,0.4989447998814285,
188,0.50288,0.1,2,0.38554,0.34363,0.65374,188,2.22104,-0.324,-0.15924,0.33525,5,2U1D,1.0,True,0.566,7,True,left,0.0,0.0007480001077055931,2.232097400352359,2.2313494002446532,0.3740113000385463,0.8740314999595284,0.5000201999209821,
189,0.50288,1.2,2,0.25982,0.25982,0.48611,189,2.07856,0.144,0.07543,0.56993,5,1U1D,2.0,True,0.396,22,False,right,0.0,0.0007249996997416019,2.073502200189978,2.0727772004902363,0.24823800008744001,0.7484705001115799,0.5002325000241399,
190,0.50288,0.1,1,0.36878,0.25144,0.78784,190,2.72392,0.63,0.31849,0.81298,5,2D1U,1.0,True,0.311,12,False,left,0.0,0.0007307999767363071,2.7329226001165807,2.7321918001398444,1.9487689002417028,2.4497781000100076,0.5010091997683048,
191,0.50288,1.2,1,0.41906,0.41068,0.84651,191,2.72391,0.09,0.04191,0.54478,5,1U1D,2.0,False,0.29,22,False,right,0.0,0.0005611996166408062,2.731266099959612,2.730704900342971,1.7895438997074962,2.2893953998573124,0.4998515001498163,
192,0.50288,0.1,1,0.25144,0.29334,0.68726,192,2.1037,-0.27,-0.1341,0.36878,5,2U1D,2.0,True,0.343,8,True,right,0.0,0.0008025998249650002,2.1136825000867248,2.1128799002617598,1.288688899949193,1.7886729002930224,0.4999840003438294,
193,0.50288,1.2,1,0.35201,0.44421,0.72917,193,2.39705,-0.27,-0.1341,0.36878,5,2U1D,2.0,True,0.809,8,True,right,0.0,0.0007691998034715652,2.3971262997947633,2.3963570999912918,1.4308425998315215,1.9312646999023855,0.500422100070864,
194,0.50288,0.1,1,0.38554,0.2682,0.74593,194,2.44733,0.09,0.04191,0.54478,5,1D1U,1.0,True,0.562,21,True,left,0.0,0.0012393002398312092,2.449747399892658,2.448508099652827,1.658012599684298,2.1578215998597443,0.49980900017544627,
195,0.50288,1.2,1,0.42744,0.20115,0.60345,195,2.5479,0.63,0.31849,0.81298,5,2D1U,2.0,False,0.376,12,False,right,0.0,0.0007295999675989151,2.54949969984591,2.548770099878311,1.8244385998696089,2.323352999985218,0.49891440011560917,
196,0.50288,0.1,1,0.25982,0.23468,0.67888,196,2.1959,0.036,0.01676,0.51964,5,1D1U,1.0,True,0.661,22,True,left,0.0,0.0007382999174296856,2.198861700017005,2.1981234000995755,1.4403054001741111,1.9397431001998484,0.4994377000257373,
197,0.50288,1.2,1,0.21791,0.20953,0.72917,197,2.15398,-0.018,-0.00838,0.49449,5,1D1U,2.0,True,0.502,22,False,right,0.0,0.0007464000955224037,2.156693700235337,2.1559473001398146,1.4230964998714626,1.9229766000062227,0.49988010013476014,
198,0.50288,0.1,1,0.21791,0.20115,0.77946,198,2.53953,0.684,0.34363,0.83813,5,2D1U,1.0,True,0.378,13,True,left,0.0,0.0007430999539792538,2.5409272997640073,2.540184199810028,1.816443500109017,2.3156995000317693,0.4992559999227524,
199,0.50288,1.2,1,0.22629,0.4023,0.56154,199,2.26294,0.144,0.07543,0.56993,5,1U1D,2.0,False,1.219,23,True,right,0.0,0.0007250001654028893,2.265555900055915,2.2648308998905122,1.3406010000035167,1.8399447998963296,0.49934379989281297,
200,0.50288,0.1,2,0.28496,0.25144,0.51964,200,1.95284,-0.216,-0.10896,0.39392,5,2U1D,2.0,False,0.84,8,False,right,0.0,0.0007297997362911701,1.9645850998349488,1.9638553000986576,0.27400829968973994,0.7735421997494996,0.4995339000597596,
201,0.50288,1.2,2,0.2682,0.41906,0.47773,201,2.506,0.684,0.34363,0.83813,5,2D1U,1.0,False,6.788,13,True,left,0.0,0.0007663001306355,2.5163753000088036,2.515608999878168,0.25835789972916245,0.7579886997118592,0.49963079998269677,
202,0.50288,0.1,2,0.23468,0.30173,0.60345,202,2.01152,-0.27,-0.1341,0.36878,5,2U1D,2.0,False,1.299,9,True,right,0.0,0.00084279989823699,2.0232890998013318,2.0224462999030948,0.2226887997239828,0.7233914998359978,0.500702700112015,
203,0.50288,1.2,2,0.41906,0.33525,0.75431,203,2.60657,0.198,0.10058,0.59507,5,1U1D,2.0,True,0.656,23,False,right,0.0,0.0012678001075983047,2.6140630999580026,2.6127952998504043,0.4137540003284812,0.9133619000203907,0.49960789969190955,
204,0.50288,0.1,2,0.33525,0.20115,0.79622,204,2.35514,0.036,0.01676,0.51964,5,1D1U,1.0,False,1.089,22,False,left,0.0,0.0007118000648915768,2.3661620998755097,2.365450299810618,0.32445499999448657,0.8245268003083766,0.50007180031389,
205,0.50288,1.2,2,0.35201,0.27658,0.42744,205,2.43056,0.738,0.36878,0.87165,5,2D1U,2.0,True,0.316,13,False,right,0.0,0.000873900018632412,2.4403935000300407,2.4395196000114083,0.3405571999028325,0.8398639000952244,0.4993067001923919,
206,0.50288,0.1,2,0.43583,0.2682,0.49449,206,2.03665,-0.324,-0.15924,0.33525,5,2U1D,1.0,True,0.494,9,False,left,0.0,0.0007020998746156693,2.041109799873084,2.040407699998468,0.4252312001772225,0.9248095001094043,0.49957829993218184,
207,0.50288,1.2,2,0.34363,0.23468,0.62021,207,2.57305,0.738,0.36878,0.87165,5,2D1U,2.0,True,0.28,13,False,right,0.0,0.0005818996578454971,2.5800244002602994,2.579442500602454,0.3301404002122581,0.8306932998821139,0.5005528996698558,
208,0.50288,0.1,2,0.43583,0.36878,0.69564,208,2.54791,0.09,0.04191,0.54478,5,1D1U,2.0,True,0.304,23,True,right,0.0,0.0004460001364350319,2.5558891999535263,2.5554431998170912,0.4223725995980203,0.9218344995751977,0.4994618999771774,
209,0.50288,1.2,2,0.20953,0.36878,0.89679,209,2.49762,0.036,0.01676,0.51964,5,1D1U,1.0,False,2.314,24,True,left,0.0,0.0005034999921917915,2.498281099833548,2.4977775998413563,0.1979839000850916,0.6978730000555515,0.49988909997045994,
210,0.50288,0.1,1,0.41068,0.4023,0.68726,210,2.57305,0.144,0.07543,0.56993,5,1U1D,1.0,True,0.331,24,True,left,0.0,0.0007647997699677944,2.5817295000888407,2.580964700318873,1.6478586997836828,2.1478240001015365,0.4999653003178537,
211,0.50288,1.2,1,0.44421,0.36039,0.79622,211,2.94183,0.684,0.34363,0.83813,5,2D1U,2.0,False,0.306,14,True,right,0.0,0.0007532997988164425,2.947327899746597,2.9465745999477804,2.0555667001754045,2.556151600088924,0.5005848999135196,
212,0.50288,0.1,1,0.33525,0.35201,0.65374,212,2.38866,0.09,0.04191,0.54478,5,1U1D,2.0,False,0.35,24,False,right,0.0,0.0007670000195503235,2.3893976002000272,2.388630600180477,1.5143753001466393,2.0141312000341713,0.499755899887532,
213,0.50288,1.2,1,0.4023,0.36878,0.42744,213,2.24618,0.09,0.04191,0.54478,5,1D1U,1.0,True,0.539,25,True,left,0.0,0.0007573999464511871,2.2578539000824094,2.257096500135958,1.357158400118351,1.8573440997861326,0.5001856996677816,
214,0.50288,0.1,1,0.37716,0.31849,0.69564,214,2.22942,-0.324,-0.15924,0.33525,5,2U1D,2.0,True,0.134,9,False,right,0.0,0.0002522999420762062,2.232666499912739,2.2324141999706626,1.3911048001609743,1.8909522998146713,0.499847499653697,
215,0.50288,1.2,1,0.41068,0.24306,0.60345,215,2.12885,-0.27,-0.1341,0.36878,5,2U1D,2.0,True,0.468,10,True,right,0.0,0.0007555000483989716,2.1330923000350595,2.1323367999866605,1.366160299628973,1.8660995997488499,0.49993930011987686,
216,0.50288,0.1,1,0.41068,0.35201,0.65374,216,2.43895,0.036,0.01676,0.51964,5,1D1U,2.0,False,0.311,26,True,right,0.0,0.00078959995880723,2.4406053996644914,2.439815799705684,1.5652692997828126,2.0652300999499857,0.49996080016717315,
217,0.50288,1.2,1,0.31849,0.25144,0.65374,217,2.27133,0.09,0.04191,0.54478,5,1D1U,2.0,False,0.506,27,True,right,0.0,0.0007397998124361038,2.2826786004006863,2.28193880058825,1.4996581003069878,1.9992324002087116,0.49957429990172386,
218,0.50288,0.1,1,0.22629,0.27658,0.49449,218,2.37189,0.738,0.36878,0.87165,5,2D1U,1.0,True,0.378,15,True,left,0.0,0.0003687003627419472,2.3747994997538626,2.3744307993911207,1.5747202998027205,2.0748706995509565,0.5001503997482359,
219,0.50288,1.2,1,0.24306,0.25982,0.77946,219,2.35515,0.144,0.07543,0.56993,5,1U1D,1.0,True,0.78,25,True,left,0.0,0.0007723001763224602,2.365120599977672,2.3643482998013496,1.5729431002400815,2.0730680003762245,0.500124900136143,
220,0.50288,0.1,2,0.41906,0.4023,0.77108,220,2.4641,-0.27,-0.1341,0.36878,5,2U1D,2.0,False,0.276,10,True,right,0.0,0.0007303999736905098,2.4653079002164304,2.46457750024274,0.4061810001730919,0.9055408998392522,0.49935989966616035,
221,0.50288,1.2,2,0.25982,0.4023,0.68726,221,2.18751,-0.324,-0.15924,0.33525,5,2U1D,1.0,True,0.372,11,True,left,0.0,0.0007319999858736992,2.1899341996759176,2.189202199690044,0.24821410002186894,0.7485118000768125,0.5002977000549436,
222,0.50288,0.1,2,0.32687,0.30173,0.58669,222,2.58982,0.738,0.36878,0.87165,5,2D1U,2.0,True,0.317,15,True,right,0.0,0.0007150000892579556,2.6066653998568654,2.6059503997676075,0.31492110015824437,0.814858399797231,0.4999372996389866,
223,0.50288,1.2,2,0.21791,0.30173,0.72917,223,2.29647,0.09,0.04191,0.54478,5,1U1D,2.0,True,0.772,26,True,right,0.0,0.0006963000632822514,2.2988935001194477,2.2981972000561655,0.20750650018453598,0.7071962002664804,0.49968970008194447,
224,0.50288,0.1,2,0.20953,0.33525,0.5364,224,2.1037,0.036,0.01676,0.51964,5,1U1D,2.0,True,0.23,26,False,right,0.0,0.0007748003117740154,2.1072545000351965,2.1064796997234225,0.1987287998199463,0.6988057997077703,0.5000769998878241,
225,0.50288,1.2,2,0.25982,0.20115,0.64536,225,2.17914,0.144,0.07543,0.56993,5,1D1U,2.0,True,0.723,27,False,right,0.0,0.0007540001533925533,2.1835272000171244,2.182773199863732,0.250306099653244,0.7500706999562681,0.49976460030302405,
226,0.50288,0.1,2,0.25144,0.2682,0.62859,226,2.48924,0.684,0.34363,0.83813,5,2D1U,2.0,True,0.11,16,True,right,0.0,0.000771199818700552,2.4920347998850048,2.491263600066304,0.24201030004769564,0.7415262996219099,0.4995159995742142,
227,0.50288,1.2,2,0.35201,0.20115,0.5364,227,1.92769,-0.324,-0.15924,0.33525,5,2U1D,1.0,True,0.434,11,True,left,0.0,0.0007504001259803772,1.9337406000122428,1.9329901998862624,0.3413635999895632,0.8416225998662412,0.500258999876678,
228,0.50288,0.1,2,0.30173,0.20115,0.51964,228,1.89418,-0.27,-0.1341,0.36878,5,2U1D,1.0,True,0.449,12,True,left,0.0,0.0007470999844372272,1.9066981999203563,1.905951099935919,0.2897577998228371,0.7902197996154428,0.5004619997926056,
229,0.50288,1.2,2,0.42744,0.21791,0.74593,229,2.43894,0.09,0.04191,0.54478,5,1D1U,2.0,True,0.299,28,True,right,0.0,0.0005332003347575665,2.4398904000408947,2.439357199706137,0.4154676999896765,0.9152077999897301,0.49974010000005364,
230,0.50288,0.1,1,0.25144,0.32687,0.62021,230,2.19589,-0.018,-0.00838,0.49449,5,1U1D,2.0,True,0.234,26,False,right,0.0,0.0007281000725924969,2.1981911002658308,2.1974630001932383,1.3486947999335825,1.8484809999354184,0.4997862000018358,
231,0.50288,1.2,1,0.25144,0.36039,0.86327,231,2.49762,0.036,0.01676,0.51964,5,1D1U,2.0,False,0.221,28,False,right,0.0,0.0004382999613881111,2.498655099887401,2.4982167999260128,1.6152599998749793,2.115212299861014,0.49995229998603463,
232,0.50288,0.1,1,0.25982,0.33525,0.42744,232,1.89417,-0.27,-0.1341,0.36878,5,2U1D,2.0,True,0.35,12,True,right,0.0,0.0007532001473009586,1.8983291001059115,1.8975758999586105,1.0403999998234212,1.5400658999569714,0.49966590013355017,
233,0.50288,1.2,1,0.31011,0.22629,0.83813,233,2.71554,0.684,0.34363,0.83813,5,2D1U,2.0,False,0.27,16,True,right,0.0,0.0005645998753607273,2.72351329959929,2.722948699723929,1.9648102996870875,2.465387299656868,0.5005769999697804,
234,0.50288,0.1,1,0.39392,0.34363,0.60345,234,2.36352,0.036,0.01676,0.51964,5,1U1D,1.0,True,0.345,26,False,left,0.0,0.0007548998109996319,2.3659399999305606,2.365185100119561,1.4996110000647604,1.9993509999476373,0.4997399998828769,
235,0.50288,1.2,1,0.23468,0.25982,0.68726,235,2.22942,0.09,0.04191,0.54478,5,1D1U,2.0,False,0.888,29,True,right,0.0,0.0007226001471281052,2.2228897004388273,2.222167100291699,1.4480754001997411,1.9469305002130568,0.4988551000133157,
236,0.50288,0.1,1,0.2682,0.35201,0.72917,236,2.34675,-0.018,-0.00838,0.49449,5,1U1D,2.0,True,0.313,26,False,right,0.0,0.0007943999953567982,2.3495857999660075,2.3487913999706507,1.4738342999480665,1.9746039002202451,0.5007696002721786,
237,0.50288,1.2,1,0.30173,0.41068,0.5364,237,2.62334,0.738,0.36878,0.87165,5,2D1U,1.0,True,0.285,17,True,left,0.0,0.0007222997955977917,2.6239046002738178,2.62318230047822,1.6904802001081407,2.190969900228083,0.5004897001199424,
238,0.50288,0.1,1,0.30173,0.25144,0.62021,238,2.54791,0.738,0.36878,0.87165,5,2D1U,1.0,True,0.33,17,True,left,0.0,0.00032720016315579414,2.549268400296569,2.548941200133413,1.774091400206089,2.274256800301373,0.500165400095284,
239,0.50288,1.2,1,0.32687,0.44421,0.42744,239,2.27133,0.144,0.07543,0.56993,5,1D1U,2.0,False,0.233,29,False,right,0.0,0.0007298002019524574,2.28282199986279,2.2820921996608377,1.307786799967289,1.8076426000334322,0.4998558000661433,
240,0.50288,0.1,2,0.33525,0.39392,0.57831,240,2.20428,-0.216,-0.10896,0.39392,5,2U1D,1.0,True,0.333,12,False,left,0.0,0.0006510000675916672,2.2157747000455856,2.215123699977994,0.3236769000068307,0.8244932000525296,0.5008163000456989,
241,0.50288,1.2,2,0.36039,0.44421,0.71241,241,2.61496,0.198,0.10058,0.59507,5,1D1U,1.0,False,0.427,29,False,left,0.0,0.0007440997287631035,2.6144671998918056,2.6137231001630425,0.34773469995707273,0.8485058997757733,0.5007711998187006,
242,0.50288,0.1,2,0.24306,0.30173,0.49449,242,2.0618,0.036,0.01676,0.51964,5,1U1D,2.0,True,0.258,26,False,right,0.0,0.00042499974370002747,2.0734402001835406,2.0730152004398406,0.2313502999022603,0.7318246001377702,0.5004743002355099,
243,0.50288,1.2,2,0.36878,0.23468,0.88003,243,2.8245,0.684,0.34363,0.83813,5,2D1U,2.0,True,0.785,18,True,right,0.0,0.0007749004289507866,2.823420399799943,2.822645499370992,0.35713159991428256,0.8562139999121428,0.4990823999978602,
244,0.50288,0.1,2,0.36878,0.34363,0.49449,244,2.1037,-0.216,-0.10896,0.39392,5,2U1D,2.0,False,0.347,12,False,right,0.0,0.0007350998930633068,2.113645900040865,2.1129108001478016,0.3634133003652096,0.8634235002100468,0.5000101998448372,
245,0.50288,1.2,2,0.32687,0.34363,0.69564,245,2.49761,0.252,0.12572,0.62859,5,1D1U,1.0,False,1.247,29,False,left,0.0,0.0007644998840987682,2.498541200067848,2.497776700183749,0.31584000028669834,0.816236600279808,0.5003965999931097,
246,0.50288,0.1,2,0.37716,0.28496,0.49449,246,2.02827,-0.27,-0.1341,0.36878,5,2U1D,1.0,True,1.551,13,True,left,0.0,0.000758499838411808,2.0305272000841796,2.029768700245768,0.36383390007540584,0.8638690998777747,0.5000351998023689,
247,0.50288,1.2,2,0.29334,0.20115,0.51964,247,2.17075,0.306,0.15086,0.65374,5,1D1U,2.0,True,1.106,29,False,right,0.0,0.0007302002049982548,2.1743276002816856,2.1735974000766873,0.28217410016804934,0.7821534001268446,0.4999792999587953,
248,0.50288,0.1,2,0.31849,0.25144,0.46935,248,2.38029,0.684,0.34363,0.83813,5,2D1U,2.0,True,0.299,18,True,right,0.0,0.0007509998977184296,2.3914613998495042,2.390710399951786,0.30818889988586307,0.8080644998699427,0.4998755999840796,
249,0.50288,1.2,2,0.34363,0.37716,0.60345,249,2.32161,-0.018,-0.00838,0.49449,5,1U1D,1.0,True,0.341,26,False,left,0.0,0.0007295003160834312,2.332326399628073,2.3315968993119895,0.33202859992161393,0.8321128999814391,0.5000843000598252,
250,0.50288,0.1,1,0.38554,0.31849,0.42744,250,2.00313,-0.27,-0.1341,0.36878,5,2U1D,2.0,True,0.472,13,True,right,0.0,0.0007158997468650341,2.00548189971596,2.004765999969095,1.163890500087291,1.6638849996961653,0.4999944996088743,
251,0.50288,1.2,1,0.44421,0.2682,0.88841,251,2.49762,-0.216,-0.10896,0.39392,5,2U1D,1.0,False,0.326,14,True,left,0.0,0.0007651001214981079,2.4988150000572205,2.4980498999357224,1.7075847000814974,2.207319499924779,0.4997347998432815,
252,0.50288,0.1,1,0.31011,0.44421,0.61183,252,2.38867,0.036,0.01676,0.51964,5,1U1D,1.0,True,1.615,26,False,left,0.0,0.0007421998307108879,2.389150899834931,2.38840870000422,1.423413799609989,1.923157099634409,0.49974330002442,
253,0.50288,1.2,1,0.29334,0.32687,0.44421,253,2.19589,0.252,0.12572,0.62859,5,1D1U,2.0,False,0.45,30,True,right,0.0,0.00026800017803907394,2.198250100016594,2.197982099838555,1.3486529998481274,1.8490712000057101,0.5004182001575828,
254,0.50288,0.1,1,0.34363,0.33525,0.62859,254,2.62333,0.63,0.31849,0.81298,5,2D1U,1.0,True,0.317,18,False,left,0.0,0.000779199879616499,2.63234920008108,2.6315700002014637,1.7660611001774669,2.2659006998874247,0.49983959970995784,
255,0.50288,1.2,1,0.27658,0.32687,0.41906,255,1.89417,-0.27,-0.1341,0.36878,5,2U1D,2.0,True,0.3,15,True,right,0.0,0.0007579000666737556,1.8994446001015604,1.8986867000348866,1.0499994000419974,1.5503089004196227,0.5003095003776252,
256,0.50288,0.1,1,0.25144,0.41906,0.57831,256,2.24618,-0.018,-0.00838,0.49449,5,1U1D,1.0,False,0.759,26,False,left,0.0,0.00046480027958750725,2.24763619992882,2.2471713996492326,1.30595610011369,1.806054700165987,0.5000986000522971,
257,0.50288,1.2,1,0.23468,0.33525,0.65374,257,2.38029,0.306,0.15086,0.65374,5,1D1U,1.0,True,0.582,31,True,left,0.0,0.000381499994546175,2.391146299894899,2.390764799900353,1.5238687000237405,2.024893299676478,0.5010245996527374,
258,0.50288,0.1,1,0.36878,0.36878,0.83813,258,2.44735,-0.27,-0.1341,0.36878,5,2U1D,2.0,True,0.183,15,True,right,0.0,0.0007313997484743595,2.449211999773979,2.448480600025505,1.5572357000783086,2.05746729997918,0.5002315999008715,
259,0.50288,1.2,1,0.32687,0.33525,0.86327,259,2.42219,-0.216,-0.10896,0.39392,5,2U1D,2.0,True,0.226,16,True,right,0.0,0.0007552001625299454,2.4385656998492777,2.437810499686748,1.5644203997217119,2.064419500064105,0.4999991003423929,
260,0.50288,0.1,2,0.43583,0.20953,0.62859,260,2.58981,0.63,0.31849,0.81298,5,2D1U,2.0,True,1.807,18,False,right,0.0,0.0006041000597178936,2.5990557996556163,2.5984516995958984,0.4239221001043916,0.9235634999349713,0.49964139983057976,
261,0.50288,1.2,2,0.41068,0.39392,0.51964,261,2.22104,-0.216,-0.10896,0.39392,5,2U1D,1.0,True,2.6,16,True,left,0.0,0.0002751997672021389,2.2314833998680115,2.2312082001008093,0.39827590016648173,0.8980155000463128,0.4997395998798311,
262,0.50288,0.1,2,0.31011,0.39392,0.67888,262,2.34676,-0.072,-0.03353,0.46097,5,1U1D,2.0,False,0.213,27,True,right,0.0,0.0007112999446690083,2.3501031999476254,2.3493919000029564,0.29977079993113875,0.7996521997265518,0.499881399795413,
263,0.50288,1.2,2,0.4023,0.43583,0.82974,263,2.95859,0.576,0.28496,0.78784,5,2D1U,2.0,True,0.286,18,False,right,0.0,0.0007517999038100243,2.957297599874437,2.956545799970627,0.39017469994723797,0.8909097998403013,0.5007350998930633,
264,0.50288,0.1,2,0.27658,0.44421,0.76269,264,2.61495,0.252,0.12572,0.62859,5,1D1U,2.0,True,0.413,32,True,right,0.0,0.00025749998167157173,2.6254163002595305,2.625158800277859,0.2669631000608206,0.767013099975884,0.5000499999150634,
265,0.50288,1.2,2,0.28496,0.25144,0.87165,265,2.506,0.198,0.10058,0.59507,5,1D1U,1.0,False,0.53,32,False,left,0.0,0.00040349969640374184,2.5072558000683784,2.5068523003719747,0.27367600006982684,0.7739006001502275,0.5002246000804007,
266,0.50288,0.1,2,0.42744,0.4023,0.76269,266,2.7239,0.252,0.12572,0.62859,5,1D1U,2.0,True,0.224,33,True,right,0.0,0.00031269993633031845,2.7318616998381913,2.731548999901861,0.4150662999600172,0.9155261996202171,0.5004598996601999,
267,0.50288,1.2,2,0.43583,0.37716,0.47773,267,2.22943,-0.126,-0.06705,0.43583,5,1U1D,1.0,True,0.553,27,False,left,0.0,0.0002530999481678009,2.232629300095141,2.232376200146973,0.424337400123477,0.9249621001072228,0.5006246999837458,
268,0.50288,0.1,2,0.38554,0.36039,0.72917,268,2.43895,-0.072,-0.03353,0.46097,5,1U1D,2.0,False,0.438,28,True,right,0.0,0.0008925995789468288,2.438789499923587,2.43789690034464,0.37280689971521497,0.8718534996733069,0.499046599958092,
269,0.50288,1.2,2,0.36039,0.34363,0.83813,269,2.46409,-0.162,-0.08381,0.41906,5,2U1D,1.0,True,0.361,16,False,left,0.0,0.0007388000376522541,2.464127200189978,2.4633884001523256,0.3474705000407994,0.8471264000982046,0.49965590005740523,
270,0.50288,0.1,1,0.34363,0.20953,0.62859,270,2.47247,0.576,0.28496,0.78784,5,2D1U,1.0,True,0.486,18,False,left,0.0,0.0007669003680348396,2.4733926001936197,2.472625699825585,1.739587299991399,2.239728100132197,0.5001408001407981,
271,0.50288,1.2,1,0.35201,0.32687,0.75431,271,2.35513,-0.162,-0.08381,0.41906,5,2U1D,2.0,True,0.111,16,False,right,0.0,0.00030239997431635857,2.359050199855119,2.3587477998808026,1.5088550001382828,2.0080801001749933,0.4992251000367105,
272,0.50288,0.1,1,0.20115,0.22629,0.46097,272,1.82712,-0.126,-0.06705,0.43583,5,1U1D,1.0,False,0.631,29,True,left,0.0,0.0007509002462029457,1.823839500080794,1.8230885998345912,1.0821214998140931,1.5816938001662493,0.49957230035215616,
273,0.50288,1.2,1,0.24306,0.21791,0.46097,273,2.18751,0.522,0.25982,0.76269,5,2D1U,2.0,False,0.231,18,False,right,0.0,0.0007560998201370239,2.181750100106001,2.180994000285864,1.4485681997612119,1.948253400158137,0.4996852003969252,
274,0.50288,0.1,1,0.4023,0.41068,0.47773,274,2.58143,0.576,0.28496,0.78784,5,2D1U,1.0,True,0.309,19,True,left,0.0,0.0002770000137388706,2.5894281999208033,2.5891511999070644,1.648616900201887,2.148578600026667,0.4999616998247802,
275,0.50288,1.2,1,0.23468,0.4023,0.55316,275,2.28809,0.198,0.10058,0.59507,5,1D1U,2.0,False,1.507,34,True,right,0.0,0.0007597003132104874,2.2891744999215007,2.28841479960829,1.3634055997245014,1.8641380998305976,0.5007325001060963,
276,0.50288,0.1,1,0.33525,0.2682,0.77108,276,2.28809,-0.18,-0.09219,0.41068,5,1U1D,2.0,True,0.269,29,False,right,0.0,0.0007408000528812408,2.2896877001039684,2.288946900051087,1.4976497003808618,1.997896000277251,0.5002462998963892,
277,0.50288,1.2,1,0.36039,0.35201,0.59507,277,2.25456,-0.108,-0.05029,0.44421,5,2U1D,2.0,True,1.502,16,False,right,0.0,0.0007266998291015625,2.257262300234288,2.2565356004051864,1.3819797998294234,1.8820152999833226,0.5000355001538992,
278,0.50288,0.1,1,0.43583,0.41068,0.81298,278,2.60658,-0.108,-0.05029,0.44421,5,2U1D,1.0,False,0.294,16,False,left,0.0,0.0002541998401284218,2.606412900146097,2.6061587003059685,1.674038200173527,2.1732072001323104,0.4991689999587834,
279,0.50288,1.2,1,0.34363,0.36039,0.55316,279,2.5479,0.576,0.28496,0.78784,5,2D1U,1.0,True,0.346,19,True,left,0.0,0.0007559000514447689,2.5493125999346375,2.5485566998831928,1.6651905998587608,2.165333299897611,0.5001427000388503,
280,0.50288,0.1,2,0.25144,0.23468,0.79622,280,2.41381,0.252,0.12572,0.62859,5,1D1U,2.0,True,0.235,35,True,right,0.0,0.0007704999297857285,2.4148971997201443,2.4141266997903585,0.23918989999219775,0.7396627999842167,0.5004728999920189,
281,0.50288,1.2,2,0.35201,0.25144,0.71241,281,2.2378,-0.162,-0.08381,0.41906,5,2U1D,1.0,True,0.304,17,True,left,0.0,0.0006791995838284492,2.240410300437361,2.2397311008535326,0.3404976003803313,0.8406624002382159,0.5001647998578846,
282,0.50288,0.1,2,0.36878,0.4023,0.8046,282,2.67363,0.198,0.10058,0.59507,5,1D1U,2.0,True,0.109,36,True,right,0.0,0.0007626996375620365,2.6821146002039313,2.6813519005663693,0.3568132999353111,0.856819000095129,0.5000057001598179,
283,0.50288,1.2,2,0.42744,0.28496,0.73755,283,2.38866,-0.126,-0.06705,0.43583,5,1U1D,1.0,True,0.409,30,True,left,0.0,0.0007283999584615231,2.3909776001237333,2.3902492001652718,0.41604309994727373,0.9148373999632895,0.49879430001601577,
284,0.50288,0.1,2,0.37716,0.22629,0.41906,284,1.98636,-0.072,-0.03353,0.46097,5,1U1D,2.0,False,0.257,30,False,right,0.0,0.00032379990443587303,1.982591399922967,1.982267600018531,0.3663568999618292,0.8659367999061942,0.499579899944365,
285,0.50288,1.2,2,0.28496,0.33525,0.81298,285,2.69876,0.522,0.25982,0.76269,5,2D1U,2.0,True,0.447,20,True,right,0.0,0.0008080997504293919,2.7073365999385715,2.706528500188142,0.274412099737674,0.7742683999240398,0.49985630018636584,
286,0.50288,0.1,2,0.41068,0.35201,0.49449,286,2.19589,-0.126,-0.06705,0.43583,5,1U1D,1.0,True,0.342,31,True,left,0.0,0.0007279003039002419,2.198506500106305,2.1977785998024046,0.3980947001837194,0.8982771001756191,0.5001823999918997,
287,0.50288,1.2,2,0.39392,0.44421,0.74593,287,2.506,-0.162,-0.08381,0.41906,5,2U1D,1.0,True,0.27,17,True,left,0.0,0.00041530001908540726,2.5065208999440074,2.506105599924922,0.3811734998598695,0.8817568998783827,0.5005834000185132,
288,0.50288,0.1,2,0.29334,0.25144,0.62021,288,2.11208,-0.108,-0.05029,0.44421,5,2U1D,2.0,False,0.298,18,True,right,0.0,0.000745600089430809,2.1165854004211724,2.1158398003317416,0.2833399004302919,0.782410700339824,0.49907079990953207,
289,0.50288,1.2,2,0.2682,0.22629,0.76269,289,2.52275,0.522,0.25982,0.76269,5,2D1U,2.0,True,0.91,20,True,right,0.0,0.0007553002797067165,2.524486199952662,2.5237308996729553,0.2568141999654472,0.7573839998804033,0.5005697999149561,
290,0.50288,0.1,1,0.36039,0.22629,0.64536,290,2.30485,0.144,0.07543,0.56993,5,1D1U,1.0,True,0.556,36,False,left,0.0,0.0007111998274922371,2.31523730000481,2.314526100177318,1.5557579002343118,2.056223399937153,0.500465499702841,
291,0.50288,1.2,1,0.43583,0.43583,0.63698,291,2.47249,-0.072,-0.03353,0.46097,5,1U1D,2.0,True,0.198,32,True,right,0.0,0.000838099978864193,2.482194900047034,2.48135680006817,1.5157808000221848,2.015316399745643,0.4995355997234583,
292,0.50288,0.1,1,0.4023,0.30173,0.82136,292,2.57305,0.09,0.04191,0.54478,5,1D1U,1.0,True,0.319,36,False,left,0.0,0.0007723001763224602,2.5808252999559045,2.580052999779582,1.7467734003439546,2.246217899955809,0.49944449961185455,
293,0.50288,1.2,1,0.36878,0.38554,0.87165,293,2.64849,0.036,0.01676,0.51964,5,1D1U,2.0,False,0.486,36,False,right,0.0,0.0008628997020423412,2.657243200112134,2.656380300410092,1.7415872998535633,2.2406627000309527,0.4990754001773894,
294,0.50288,0.1,1,0.25982,0.29334,0.77946,294,2.57305,0.468,0.23468,0.73755,5,2D1U,1.0,True,0.267,20,False,left,0.0,0.0003855000250041485,2.580429600086063,2.580044100061059,1.7558746999129653,2.25517540005967,0.4993007001467049,
295,0.50288,1.2,1,0.36039,0.31011,0.87165,295,2.46409,-0.162,-0.08381,0.41906,5,2U1D,1.0,False,0.545,19,True,left,0.0,0.00030140019953250885,2.473593699745834,2.4732922995463014,1.6319236997514963,2.1316798999905586,0.4997562002390623,
296,0.50288,0.1,1,0.38554,0.25144,0.58669,296,2.12047,-0.216,-0.10896,0.39392,5,2U1D,2.0,True,0.489,19,False,right,0.0,0.0005385000258684158,2.1322123003192246,2.131673800293356,1.3487396999262273,1.8478943002410233,0.49915460031479597,
297,0.50288,1.2,1,0.25982,0.35201,0.76269,297,2.27132,-0.216,-0.10896,0.39392,5,2U1D,2.0,True,0.272,19,False,right,0.0,0.0007219999097287655,2.273781099822372,2.2730590999126434,1.398098399862647,1.8986124000512064,0.5005140001885593,
298,0.50288,0.1,1,0.33525,0.37716,0.6705,298,2.62334,0.468,0.23468,0.73755,5,2D1U,1.0,True,0.296,20,False,left,0.0,0.0007322002202272415,2.6309281000867486,2.6301958998665214,1.7229597000405192,2.223104499746114,0.5001447997055948,
299,0.50288,1.2,1,0.32687,0.36039,0.49449,299,2.22941,0.09,0.04191,0.54478,5,1D1U,2.0,False,0.246,37,True,right,0.0,0.000269200187176466,2.2245786995626986,2.224309499375522,1.3480070997029543,1.8481993000023067,0.5001922002993524,
300,0.50288,0.1,2,0.37716,0.44421,0.41068,300,2.22942,-0.018,-0.00838,0.49449,5,1U1D,1.0,True,2.274,32,False,left,0.0,0.0007217000238597393,2.2317158998921514,2.2309941998682916,0.36480179987847805,0.8649837002158165,0.5001819003373384,
301,0.50288,1.2,2,0.20953,0.27658,0.89679,301,2.30484,-0.162,-0.08381,0.41906,5,2U1D,1.0,True,0.666,20,True,left,0.0,0.0007632002234458923,2.315124999731779,2.314361799508333,0.19899379974231124,0.6989432997070253,0.49994949996471405,
302,0.50288,0.1,2,0.31011,0.23468,0.62021,302,2.18752,0.036,0.01676,0.51964,5,1U1D,2.0,True,0.158,32,False,right,0.0,0.0007381001487374306,2.1903837001882493,2.189645600039512,0.2981989001855254,0.7984201000072062,0.5002211998216808,
303,0.50288,1.2,2,0.21791,0.38554,0.55316,303,2.15398,-0.018,-0.00838,0.49449,5,1U1D,1.0,True,3.768,32,False,left,0.0,0.00026430003345012665,2.1656999001279473,2.165435600094497,0.20773580018430948,0.707162800244987,0.49942700006067753,
304,0.50288,0.1,2,0.41906,0.25982,0.75431,304,2.6401,0.414,0.20953,0.70403,5,2D1U,2.0,True,0.317,20,False,right,0.0,0.0008112997747957706,2.6490297000855207,2.648218400310725,0.40657650027424097,0.9071428002789617,0.5005663000047207,
305,0.50288,1.2,2,0.34363,0.44421,0.4023,305,2.39705,0.414,0.20953,0.70403,5,2D1U,2.0,True,0.269,20,False,right,0.0,0.0007274998351931572,2.406407100148499,2.405679600313306,0.33111209981143475,0.8309869999065995,0.4998749000951648,
306,0.50288,0.1,2,0.20953,0.27658,0.6705,306,2.33837,0.36,0.17601,0.67888,5,2D1U,2.0,True,0.111,20,False,right,0.0,0.0007315999828279018,2.3405180000700057,2.3397864000871778,0.19936490012332797,0.6988248000852764,0.4994598999619484,
307,0.50288,1.2,2,0.33525,0.33525,0.5364,307,2.38866,0.36,0.17601,0.67888,5,2D1U,1.0,False,0.337,20,False,left,0.0,0.000731700100004673,2.389212000183761,2.3884803000837564,0.322594300378114,0.823183000087738,0.500588699709624,
308,0.50288,0.1,2,0.42744,0.34363,0.63698,308,2.61496,0.414,0.20953,0.70403,5,2D1U,2.0,True,0.266,21,True,right,0.0,0.000798800028860569,2.6216810001060367,2.620882200077176,0.42111280001699924,0.9214412998408079,0.5003284998238087,
