,standardDur,audNoise,order,preDur,postDur,isiDur,trial_num,totalDur,delta_dur_percents,deltaDurS,testDurS,intensities,current_stair,responses,is_correct,response_rts,stair_num_reversal,stair_is_reversal,response_keys,conflictDur,recordedOnsetVisualTest,recordedOffsetVisualTest,recordedDurVisualTest,recordedOnsetVisualStandard,recordedOffsetVisualStandard,recordedDurVisualStandard,modalityPostCue
0,0.49844,1.2,1,0.39044,0.26583,0.70612,0,2.03528,-0.65,-0.32399,0.17445,5,3U1D,1.0,False,2.681,0,False,left,0.0,0.3963,0.5712,0.1748,1.2807,1.7805,0.4998,V
1,0.49844,0.1,1,0.35721,0.26583,0.78089,1,2.72479,0.65,0.32399,0.82242,5,2D1U,1.0,True,0.7,0,False,left,0.0,0.3658,1.1899,0.824,1.9738,2.4732,0.4994,A
2,0.49844,1.2,2,0.39875,0.30737,0.68951,2,2.06852,-0.65,-0.32399,0.17445,5,2U1D,1.0,True,2.058,0,False,left,0.0,1.6012,1.7748,0.1736,0.4091,0.9094,0.5003,A
3,0.49844,0.1,2,0.34891,0.25753,0.83904,3,2.76634,0.65,0.32399,0.82242,5,2D1U,2.0,True,1.4,0,False,right,0.0,1.6968,2.5211,0.8243,0.3546,0.8544,0.4998,V
4,0.49844,1.2,1,0.27414,0.43198,0.83073,4,2.1599,-0.75,-0.37383,0.12461,5,3U1D,2.0,True,2.509,0,False,right,0.0,0.2815,0.4061,0.1245,1.2391,1.7397,0.5007,A
5,0.49844,0.1,1,0.43198,0.38214,0.78919,5,2.92417,0.65,0.32399,0.82242,5,3D1U,1.0,True,0.916,0,False,left,0.0,0.443,1.2686,0.8257,2.06,2.5603,0.5003,V
6,0.49844,1.2,2,0.25753,0.20768,0.40706,6,1.42055,-0.9,-0.44859,0.04984,5,lapse_rate,1.0,True,1.383,0,False,left,0.0,1.1741,1.2242,0.0501,0.2647,0.7661,0.5014,A
7,0.49844,1.2,1,0.42367,0.26583,0.87227,7,2.83279,0.55,0.27414,0.77258,5,2D1U,1.0,True,0.766,0,False,left,0.0,0.4301,1.2054,0.7752,2.0806,2.5799,0.4993,V
8,0.49844,1.2,1,0.29076,0.41537,0.40706,8,2.55866,0.9,0.44859,0.94703,5,lapse_rate,1.0,True,0.65,0,False,left,0.0,0.3015,1.2508,0.9493,1.6595,2.1595,0.4999,V
9,0.49844,0.1,2,0.2243,0.40706,0.88888,9,2.8411,0.65,0.32399,0.82242,5,3D1U,2.0,True,0.426,0,False,right,0.0,1.6245,2.4496,0.8251,0.2331,0.7337,0.5006,V
10,0.49844,1.2,1,0.43198,0.39875,0.46521,10,1.91899,-0.75,-0.37383,0.12461,5,3U1D,2.0,True,0.616,0,False,right,0.0,0.441,0.5663,0.1252,1.0322,1.5337,0.5014,A
11,0.49844,0.1,1,0.31568,0.40706,0.52336,11,1.91899,-0.65,-0.32399,0.17445,5,2U1D,2.0,True,0.39,0,False,right,0.0,0.3198,0.4957,0.1759,1.0202,1.5199,0.4996,A
12,0.49844,1.2,2,0.29906,0.26583,0.52336,12,1.7113,-0.75,-0.37383,0.12461,5,3U1D,1.0,True,0.75,0,False,left,0.0,1.3348,1.4596,0.1248,0.3095,0.809,0.4995,A
13,0.49844,0.1,2,0.37383,0.31568,0.89719,13,3.03217,0.9,0.44859,0.94703,5,lapse_rate,2.0,True,0.359,0,False,right,0.0,1.7831,2.7331,0.9499,0.3833,0.8835,0.5002,A
14,0.49844,0.1,2,0.41537,0.2326,0.55659,14,2.47558,0.55,0.27414,0.77258,5,2D1U,2.0,True,0.393,0,False,right,0.0,1.477,2.2531,0.7761,0.4193,0.9195,0.5002,A
15,0.49844,1.2,2,0.33229,0.35721,0.72274,15,2.13498,-0.55,-0.27414,0.2243,5,2U1D,1.0,True,0.416,0,False,left,0.0,1.5634,1.7887,0.2253,0.3386,0.8402,0.5015,V
16,0.49844,0.1,1,0.37383,0.29076,0.41537,16,2.40082,0.65,0.32399,0.82242,5,3D1U,1.0,True,0.375,0,False,left,0.0,0.3807,1.2053,0.8246,1.623,2.1222,0.4992,A
17,0.49844,1.2,1,0.30737,0.38214,0.44029,17,1.78608,-0.69,-0.34891,0.15784,5,3U1D,1.0,False,0.775,1,True,left,0.0,0.3163,0.4749,0.1587,0.9161,1.4161,0.5,V
18,0.49844,0.1,1,0.43198,0.43198,0.54828,18,2.68326,0.55,0.27414,0.77258,5,3D1U,1.0,True,0.35,0,False,left,0.0,0.4391,1.215,0.7759,1.7645,2.2648,0.5003,A
19,0.49844,1.2,2,0.26583,0.30737,0.54828,19,2.56695,0.9,0.44859,0.94703,5,lapse_rate,2.0,True,0.401,0,False,right,0.0,1.3212,2.271,0.9498,0.2713,0.7715,0.5002,V
20,0.49844,1.2,2,0.37383,0.2243,0.49844,20,2.31775,0.45,0.2243,0.72274,5,2D1U,2.0,True,0.399,0,False,right,0.0,1.3797,2.1049,0.7252,0.3791,0.8805,0.5013,V
21,0.49844,0.1,2,0.25753,0.35721,0.84735,21,2.18483,-0.55,-0.27414,0.2243,5,2U1D,1.0,True,0.402,0,False,left,0.0,1.6131,1.839,0.2259,0.264,0.7638,0.4998,A
22,0.49844,1.2,2,0.20768,0.3406,0.70612,22,1.88576,-0.726,-0.36552,0.13292,5,3U1D,1.0,True,0.601,2,True,left,0.0,1.4249,1.5585,0.1336,0.2166,0.7171,0.5004,A
23,0.49844,0.1,1,0.24091,0.24091,0.50675,23,2.43404,0.9,0.44859,0.94703,5,lapse_rate,1.0,True,0.449,0,False,left,0.0,0.2512,1.2012,0.95,1.71,2.2092,0.4992,A
24,0.49844,0.1,1,0.25753,0.41537,0.78919,24,2.23467,-0.45,-0.2243,0.27414,5,2U1D,2.0,True,0.416,0,False,right,0.0,0.2666,0.542,0.2753,1.333,1.8335,0.5005,A
25,0.49844,1.2,1,0.20768,0.30737,0.66458,25,2.40081,0.45,0.2243,0.72274,5,2D1U,1.0,True,0.601,0,False,left,0.0,0.2117,0.9369,0.7252,1.6036,2.1042,0.5006,V
26,0.49844,0.1,1,0.38214,0.35721,0.64797,26,2.65834,0.55,0.27414,0.77258,5,3D1U,1.0,True,0.4,0,False,left,0.0,0.3916,1.1666,0.775,1.8171,2.3167,0.4996,V
27,0.49844,1.2,2,0.39044,0.29906,0.73104,27,2.59187,0.35,0.17445,0.67289,5,2D1U,2.0,True,0.443,0,False,right,0.0,1.6345,2.3098,0.6753,0.4007,0.901,0.5003,V
28,0.49844,0.1,1,0.40706,0.29076,0.68951,28,2.01869,-0.726,-0.36552,0.13292,5,3U1D,2.0,True,0.385,2,True,right,0.0,0.4194,0.5525,0.1332,1.2441,1.7441,0.5,A
29,0.49844,1.2,1,0.40706,0.39044,0.86396,29,3.10693,0.9,0.44859,0.94703,5,lapse_rate,2.0,False,0.633,0,False,right,0.0,0.4174,1.368,0.9506,2.2363,2.7353,0.499,V
30,0.49844,1.2,1,0.42367,0.2243,0.83904,30,2.25959,-0.45,-0.2243,0.27414,5,2U1D,2.0,True,0.341,0,False,right,0.0,0.4342,0.7096,0.2754,1.5508,2.0512,0.5004,A
31,0.49844,0.1,2,0.28245,0.24922,0.65628,31,2.45897,0.55,0.27414,0.77258,5,3D1U,2.0,True,0.316,0,False,right,0.0,1.4487,2.2233,0.7746,0.2899,0.7898,0.5,V
32,0.49844,1.2,2,0.21599,0.31568,0.49013,32,1.84423,-0.35,-0.17445,0.32399,5,2U1D,2.0,False,0.434,0,False,right,0.0,1.2113,1.5359,0.3246,0.2201,0.72,0.4999,V
33,0.49844,1.2,1,0.38214,0.39875,0.4569,33,1.78607,-0.9,-0.44859,0.04984,5,lapse_rate,2.0,True,0.392,0,False,right,0.0,0.3899,0.4401,0.0502,0.8973,1.3989,0.5016,V
34,0.49844,0.1,2,0.25753,0.24922,0.53998,34,2.26791,0.45,0.2243,0.72274,5,3D1U,2.0,True,0.35,0,False,right,0.0,1.3045,2.0303,0.7258,0.2633,0.7627,0.4994,V
35,0.49844,1.2,1,0.32399,0.41537,0.83904,35,2.20976,-0.726,-0.36552,0.13292,5,3U1D,2.0,True,0.293,2,True,right,0.0,0.3311,0.4643,0.1332,1.3058,1.8053,0.4995,A
36,0.49844,0.1,1,0.24091,0.44029,0.44859,36,2.30112,0.35,0.17445,0.67289,5,2D1U,1.0,True,0.342,0,False,left,0.0,0.2509,0.9253,0.6744,1.3757,1.876,0.5003,A
37,0.49844,1.2,2,0.28245,0.40706,0.40706,37,1.89407,-0.41,-0.20768,0.29906,5,2U1D,1.0,True,0.467,1,True,left,0.0,1.1992,1.4984,0.2992,0.2903,0.7911,0.5008,A
38,0.49844,1.2,1,0.37383,0.26583,0.53998,38,2.62511,0.9,0.44859,0.94703,5,lapse_rate,1.0,True,0.333,0,False,left,0.0,0.3824,1.3328,0.9504,1.8737,2.3745,0.5007,V
39,0.49844,0.1,2,0.21599,0.29906,0.58982,39,1.76115,-0.69,-0.34891,0.15784,5,3U1D,1.0,True,0.409,3,True,left,0.0,1.3116,1.4705,0.1589,0.2209,0.7207,0.4998,V
40,0.49844,1.2,1,0.24922,0.37383,0.83904,40,2.58358,0.25,0.12461,0.62305,5,2D1U,1.0,True,0.525,0,False,left,0.0,0.2578,0.8826,0.6248,1.7251,2.2245,0.4994,A
41,0.49844,0.1,2,0.19938,0.44029,0.66458,41,2.52543,0.45,0.2243,0.72274,5,3D1U,2.0,True,0.266,0,False,right,0.0,1.3715,2.0959,0.7244,0.2039,0.7045,0.5007,V
42,0.49844,1.2,2,0.35721,0.43198,0.84735,42,2.29282,-0.69,-0.34891,0.15784,5,3U1D,1.0,True,0.358,3,True,left,0.0,1.7131,1.8712,0.158,0.3618,0.8618,0.5,V
43,0.49844,0.1,1,0.37383,0.43198,0.52336,43,1.87745,-0.9,-0.44859,0.04984,5,lapse_rate,2.0,True,0.19,0,False,right,0.0,0.3813,0.4311,0.0498,0.9559,1.4572,0.5013,V
44,0.49844,0.1,1,0.42367,0.20768,0.46521,44,1.89406,-0.41,-0.20768,0.29906,5,2U1D,2.0,True,0.316,1,True,right,0.0,0.4305,0.7307,0.3002,1.197,1.6977,0.5007,V
45,0.49844,1.2,1,0.28245,0.42367,0.46521,45,2.29282,0.25,0.12461,0.62305,5,2D1U,2.0,False,0.333,0,False,right,0.0,0.2934,0.9191,0.6257,1.3858,1.8854,0.4996,V
46,0.49844,0.1,1,0.39044,0.39875,0.52336,46,2.53373,0.45,0.2243,0.72274,5,3D1U,1.0,True,0.25,0,False,left,0.0,0.3957,1.1217,0.726,1.6456,2.1462,0.5006,V
47,0.49844,1.2,2,0.31568,0.42367,0.78089,47,2.33436,-0.374,-0.19107,0.31568,5,2U1D,1.0,True,0.275,2,True,left,0.0,1.6067,1.9239,0.3173,0.3221,0.822,0.4999,V
48,0.49844,0.1,1,0.26583,0.42367,0.6812,48,2.54203,0.35,0.17445,0.67289,5,3D1U,1.0,True,0.342,0,False,left,0.0,0.2741,0.9503,0.6761,1.6325,2.1338,0.5013,A
49,0.49844,1.2,2,0.32399,0.38214,0.78089,49,2.93249,0.9,0.44859,0.94703,5,lapse_rate,2.0,True,0.267,0,False,right,0.0,1.6122,2.5624,0.9503,0.3289,0.8288,0.4999,V
50,0.49844,1.2,1,0.29076,0.24091,0.53998,50,2.22637,0.31,0.15784,0.65628,5,2D1U,1.0,True,0.425,1,True,left,0.0,0.2954,0.9527,0.6573,1.4951,1.9947,0.4996,A
51,0.49844,0.1,2,0.27414,0.26583,0.6812,51,1.87745,-0.69,-0.34891,0.15784,5,3U1D,1.0,True,0.534,3,True,left,0.0,1.4643,1.6226,0.1583,0.2804,0.7804,0.5,V
52,0.49844,1.2,2,0.31568,0.2243,0.68951,52,1.90238,-0.654,-0.32399,0.17445,5,3U1D,1.0,True,0.425,3,False,left,0.0,1.5119,1.6856,0.1736,0.3185,0.8197,0.5012,A
53,0.49844,0.1,1,0.33229,0.43198,0.63136,53,2.55035,0.31,0.15784,0.65628,5,2D1U,2.0,False,0.559,1,True,right,0.0,0.3377,0.9966,0.6589,1.6297,2.1293,0.4995,A
54,0.49844,1.2,2,0.39875,0.34891,0.87227,54,2.79126,0.35,0.17445,0.67289,5,3D1U,1.0,False,0.409,0,False,left,0.0,1.7773,2.4524,0.6751,0.4023,0.9025,0.5002,A
55,0.49844,1.2,2,0.37383,0.34891,0.44029,55,1.71131,-0.9,-0.44859,0.04984,5,lapse_rate,1.0,True,0.608,0,False,left,0.0,1.3248,1.3752,0.0503,0.3833,0.8842,0.5009,A
56,0.49844,0.1,2,0.38214,0.43198,0.84735,56,2.47559,-0.374,-0.19107,0.31568,5,2U1D,1.0,True,0.275,2,True,left,0.0,1.742,2.0595,0.3175,0.3927,0.8922,0.4995,V
57,0.49844,1.2,2,0.2326,0.39044,0.68951,57,2.14328,-0.338,-0.16615,0.33229,5,2U1D,1.0,True,0.275,2,False,left,0.0,1.4302,1.7625,0.3323,0.2382,0.7381,0.4999,A
58,0.49844,0.1,1,0.30737,0.33229,0.78919,58,2.60849,0.37,0.18276,0.6812,5,2D1U,2.0,False,0.283,1,False,right,0.0,0.3181,1.0016,0.6835,1.7927,2.2925,0.4998,A
59,0.49844,1.2,1,0.28245,0.2326,0.61474,59,2.33435,0.41,0.20768,0.70612,5,3D1U,2.0,False,1.009,1,True,right,0.0,0.2906,0.9984,0.7078,1.6153,2.1153,0.5001,V
60,0.49844,1.2,2,0.29906,0.38214,0.43198,60,1.66146,-0.9,-0.44859,0.04984,5,lapse_rate,1.0,True,0.408,0,False,left,0.0,1.2441,1.2935,0.0494,0.3094,0.8099,0.5004,V
61,0.49844,0.1,1,0.40706,0.35721,0.82242,61,2.25958,-0.654,-0.32399,0.17445,5,3U1D,2.0,True,0.233,3,False,right,0.0,0.415,0.5886,0.1736,1.4155,1.9149,0.4995,A
62,0.49844,1.2,2,0.39044,0.44859,0.40706,62,2.47557,0.47,0.2326,0.73104,5,3D1U,2.0,True,0.301,1,False,right,0.0,1.3046,2.037,0.7323,0.3965,0.8953,0.4988,V
63,0.49844,0.1,2,0.40706,0.2326,0.63136,63,2.48389,0.43,0.21599,0.71443,5,2D1U,2.0,True,0.275,1,False,right,0.0,1.5534,2.2692,0.7158,0.4196,0.9197,0.5001,V
64,0.49844,0.1,1,0.31568,0.30737,0.73104,64,2.79956,0.9,0.44859,0.94703,5,lapse_rate,1.0,True,0.399,0,False,left,0.0,0.3198,1.2701,0.9504,2.0021,2.5045,0.5024,V
65,0.49844,1.2,1,0.38214,0.19938,0.69781,65,1.95222,-0.654,-0.32399,0.17445,5,3U1D,2.0,True,0.309,3,False,right,0.0,0.3945,0.5691,0.1746,1.2696,1.7689,0.4993,V
66,0.49844,0.1,2,0.42367,0.44859,0.80581,66,2.5088,-0.338,-0.16615,0.33229,5,2U1D,1.0,True,0.301,2,False,left,0.0,1.7414,2.0746,0.3331,0.4327,0.933,0.5003,A
67,0.49844,1.2,1,0.28245,0.2326,0.46521,67,2.19313,0.43,0.21599,0.71443,5,2D1U,1.0,True,0.684,1,False,left,0.0,0.2922,1.0084,0.7162,1.4755,1.9746,0.4991,A
68,0.49844,0.1,2,0.28245,0.2326,0.83073,68,2.79125,0.9,0.44859,0.94703,5,lapse_rate,2.0,True,0.259,0,False,right,0.0,1.6273,2.5776,0.9503,0.2938,0.7945,0.5007,A
69,0.49844,0.1,2,0.41537,0.32399,0.78919,69,2.21806,-0.618,-0.30737,0.19107,5,3U1D,1.0,True,0.375,3,False,left,0.0,1.7181,1.9097,0.1916,0.4259,0.9262,0.5003,V
70,0.49844,1.2,2,0.24091,0.27414,0.43198,70,1.79438,-0.302,-0.14953,0.34891,5,2U1D,1.0,True,0.301,2,False,left,0.0,1.1834,1.5327,0.3493,0.2488,0.7505,0.5016,V
71,0.49844,0.1,1,0.35721,0.32399,0.63136,71,2.54204,0.47,0.2326,0.73104,5,3D1U,1.0,True,0.376,1,False,left,0.0,0.3604,1.0941,0.7337,1.7275,2.228,0.5004,V
72,0.49844,1.2,2,0.32399,0.27414,0.7975,72,2.08514,-0.618,-0.30737,0.19107,5,3U1D,1.0,True,0.576,3,False,left,0.0,1.6327,1.8254,0.1927,0.3327,0.834,0.5013,A
73,0.49844,0.1,1,0.40706,0.28245,0.44859,73,1.68638,-0.9,-0.44859,0.04984,5,lapse_rate,2.0,True,0.118,0,False,right,0.0,0.4159,0.4672,0.0513,0.9161,1.417,0.5009,A
74,0.49844,0.1,2,0.42367,0.29076,0.52336,74,2.43404,0.394,0.19938,0.69781,5,2D1U,1.0,False,0.309,2,True,left,0.0,1.4613,2.1611,0.6998,0.4361,0.937,0.5009,A
75,0.49844,1.2,2,0.39875,0.44029,0.66458,75,2.7331,0.47,0.2326,0.73104,5,3D1U,1.0,False,0.843,1,False,left,0.0,1.5746,2.3083,0.7337,0.4079,0.9078,0.4998,V
76,0.49844,0.1,1,0.43198,0.35721,0.39875,76,2.03529,-0.302,-0.14953,0.34891,5,2U1D,2.0,True,0.7,2,False,right,0.0,0.4374,0.7878,0.3505,1.1877,1.6878,0.5002,A
77,0.49844,1.2,2,0.20768,0.20768,0.69781,77,1.66145,-0.9,-0.44859,0.04984,5,lapse_rate,2.0,False,0.859,0,False,right,0.0,1.4149,1.4652,0.0503,0.2157,0.7161,0.5004,A
78,0.49844,1.2,2,0.26583,0.35721,0.85565,78,2.1682,-0.618,-0.30737,0.19107,5,3U1D,1.0,True,0.407,3,False,left,0.0,1.6269,1.8203,0.1934,0.2699,0.7712,0.5013,A
79,0.49844,0.1,2,0.42367,0.3406,0.67289,79,2.69987,0.53,0.26583,0.76427,5,3D1U,2.0,True,0.61,1,False,right,0.0,1.6072,2.3751,0.768,0.4331,0.932,0.4989,V
80,0.49844,1.2,2,0.38214,0.21599,0.86396,80,2.67496,0.43,0.21599,0.71443,5,2D1U,1.0,False,0.284,3,True,left,0.0,1.7558,2.4717,0.7159,0.3885,0.889,0.5005,A
81,0.49844,0.1,2,0.39044,0.34891,0.81412,81,2.41743,-0.266,-0.13292,0.36552,5,2U1D,1.0,True,0.384,2,False,left,0.0,1.7114,2.0783,0.3669,0.3948,0.8951,0.5003,V
82,0.49844,0.1,1,0.36552,0.39875,0.60643,82,1.91898,-0.9,-0.44859,0.04984,5,lapse_rate,2.0,True,0.299,0,False,right,0.0,0.3763,0.4263,0.05,1.0345,1.5348,0.5002,A
83,0.49844,1.2,1,0.41537,0.31568,0.75597,83,2.7165,0.466,0.2326,0.73104,5,2D1U,1.0,True,1.041,3,False,left,0.0,0.4193,1.1533,0.734,1.9111,2.4121,0.501,V
84,0.49844,0.1,2,0.41537,0.35721,0.83904,84,2.47558,-0.266,-0.13292,0.36552,5,2U1D,1.0,True,0.332,2,False,left,0.0,1.7655,2.1336,0.3681,0.425,0.9243,0.4993,A
85,0.49844,1.2,2,0.35721,0.39875,0.50675,85,2.52542,0.53,0.26583,0.76427,5,3D1U,2.0,True,0.291,1,False,right,0.0,1.3718,2.1383,0.7665,0.3626,0.8628,0.5002,A
86,0.49844,0.1,2,0.42367,0.27414,0.80581,86,2.20974,-0.582,-0.29076,0.20768,5,3U1D,1.0,True,0.259,3,False,left,0.0,1.7441,1.9509,0.2068,0.4348,0.9343,0.4995,A
87,0.49844,1.2,1,0.34891,0.2243,0.58151,87,1.86084,-0.582,-0.29076,0.20768,5,3U1D,2.0,True,0.267,3,False,right,0.0,0.3583,0.5669,0.2086,1.1504,1.6505,0.5001,V
88,0.49844,0.1,1,0.27414,0.25753,0.82242,88,2.23467,-0.23,-0.1163,0.38214,5,2U1D,2.0,True,0.3,2,False,right,0.0,0.2823,0.6658,0.3836,1.4903,1.9912,0.5009,V
89,0.49844,1.2,2,0.21599,0.29076,0.65628,89,2.42574,0.53,0.26583,0.76427,5,3D1U,2.0,True,0.3,1,False,right,0.0,1.3822,2.1501,0.7679,0.224,0.7238,0.4998,A
90,0.49844,0.1,2,0.21599,0.43198,0.51505,90,1.7113,-0.9,-0.44859,0.04984,5,lapse_rate,1.0,True,0.225,0,False,left,0.0,1.2435,1.2936,0.0501,0.2269,0.7268,0.4999,V
91,0.49844,0.1,2,0.34891,0.37383,0.46521,91,2.41743,0.466,0.2326,0.73104,5,2D1U,2.0,True,0.225,3,False,right,0.0,1.3235,2.0567,0.7332,0.3571,0.8571,0.4999,A
92,0.49844,1.2,2,0.42367,0.33229,0.73935,92,2.74141,0.494,0.24922,0.74766,5,3D1U,2.0,True,0.293,2,True,right,0.0,1.6708,2.4218,0.751,0.4302,0.9302,0.5,A
93,0.49844,0.1,2,0.3406,0.40706,0.6812,93,1.97714,-0.9,-0.44859,0.04984,5,lapse_rate,1.0,True,0.35,0,False,left,0.0,1.5334,1.5837,0.0503,0.35,0.8501,0.5001,V
94,0.49844,0.1,2,0.44029,0.30737,0.62305,94,2.07683,-0.582,-0.29076,0.20768,5,3U1D,1.0,True,0.29,3,False,left,0.0,1.574,1.7821,0.2081,0.4483,0.9483,0.5,A
95,0.49844,1.2,2,0.29076,0.43198,0.87227,95,2.47559,-0.23,-0.1163,0.38214,5,2U1D,1.0,True,0.659,2,False,left,0.0,1.6748,2.0578,0.383,0.3001,0.8015,0.5015,A
96,0.49844,0.1,1,0.35721,0.42367,0.5649,96,2.55865,0.43,0.21599,0.71443,5,2D1U,1.0,True,0.457,4,True,left,0.0,0.3621,1.0785,0.7164,1.6456,2.1455,0.5,A
97,0.49844,1.2,1,0.28245,0.32399,0.85565,97,2.67496,0.43,0.21599,0.71443,5,2D1U,2.0,False,0.465,4,True,right,0.0,0.2897,1.0066,0.7169,1.8642,2.3648,0.5006,V
98,0.49844,1.2,1,0.37383,0.35721,0.52336,98,2.69987,0.9,0.44859,0.94703,5,lapse_rate,1.0,True,0.317,0,False,left,0.0,0.3857,1.3361,0.9504,1.8601,2.3606,0.5006,V
99,0.49844,0.1,1,0.28245,0.42367,0.63966,99,2.06852,-0.546,-0.27414,0.2243,5,3U1D,2.0,True,0.282,3,False,right,0.0,0.2863,0.5107,0.2243,1.1526,1.6531,0.5004,A
100,0.49844,1.2,1,0.31568,0.24091,0.76427,100,2.56696,0.494,0.24922,0.74766,5,3D1U,1.0,True,0.475,2,True,left,0.0,0.3218,1.0719,0.7501,1.8382,2.3384,0.5002,A
101,0.49844,0.1,2,0.38214,0.29906,0.40706,101,1.99376,-0.194,-0.09969,0.40706,5,2U1D,1.0,True,0.626,2,False,left,0.0,1.2995,1.706,0.4065,0.39,0.8899,0.4999,V
102,0.49844,1.2,2,0.44029,0.31568,0.72274,102,2.20145,-0.546,-0.27414,0.2243,5,3U1D,1.0,True,0.434,3,False,left,0.0,1.6769,1.9005,0.2236,0.451,0.9514,0.5004,V
103,0.49844,0.1,1,0.29076,0.29076,0.74766,103,2.77465,0.9,0.44859,0.94703,5,lapse_rate,1.0,True,0.367,0,False,left,0.0,0.2942,1.2438,0.9497,1.9954,2.4945,0.4991,V
104,0.49844,0.1,2,0.39875,0.24091,0.41537,104,2.30113,0.494,0.24922,0.74766,5,3D1U,2.0,True,0.293,2,True,right,0.0,1.3267,2.0773,0.7506,0.4097,0.9097,0.5,V
105,0.49844,1.2,2,0.29906,0.29076,0.63966,105,2.45896,0.466,0.2326,0.73104,5,2D1U,2.0,True,0.283,5,True,right,0.0,1.4446,2.1776,0.733,0.3028,0.803,0.5003,V
106,0.49844,0.1,2,0.31568,0.20768,0.76427,106,2.19313,-0.194,-0.09969,0.40706,5,2U1D,1.0,True,0.409,2,False,left,0.0,1.5892,1.9979,0.4087,0.3223,0.8217,0.4994,V
107,0.49844,1.2,1,0.40706,0.31568,0.48182,107,2.12667,-0.158,-0.08307,0.42367,5,2U1D,1.0,False,0.683,2,False,left,0.0,0.4156,0.8406,0.425,1.3241,1.8251,0.501,V
108,0.49844,0.1,1,0.28245,0.40706,0.81412,108,2.73311,0.458,0.2326,0.73104,5,3D1U,1.0,True,0.841,2,False,left,0.0,0.2871,1.021,0.7339,1.8369,2.3369,0.5,A
109,0.49844,1.2,2,0.44029,0.24091,0.73104,109,2.13498,-0.546,-0.27414,0.2243,5,3U1D,1.0,True,0.676,3,False,left,0.0,1.6845,1.9099,0.2254,0.4516,0.9512,0.4997,V
110,0.49844,0.1,1,0.2326,0.29076,0.70612,110,2.67495,0.9,0.44859,0.94703,5,lapse_rate,1.0,True,0.34,0,False,left,0.0,0.2431,1.1927,0.9496,1.9017,2.4013,0.4995,V
111,0.49844,0.1,1,0.43198,0.25753,0.74766,111,2.66665,0.466,0.2326,0.73104,5,2D1U,1.0,True,0.316,5,True,left,0.0,0.438,1.17,0.7321,1.9197,2.4202,0.5005,A
112,0.49844,1.2,2,0.42367,0.28245,0.73104,112,2.34266,-0.194,-0.09969,0.40706,5,2U1D,1.0,True,0.651,3,True,left,0.0,1.6655,2.074,0.4085,0.4323,0.9328,0.5005,V
113,0.49844,0.1,2,0.29906,0.38214,0.88888,113,2.78295,0.43,0.21599,0.71443,5,2D1U,2.0,True,0.267,6,True,right,0.0,1.6976,2.4138,0.7162,0.3058,0.8058,0.5,V
114,0.49844,1.2,2,0.24922,0.43198,0.73104,114,1.96052,-0.9,-0.44859,0.04984,5,lapse_rate,1.0,True,0.267,0,False,left,0.0,1.4922,1.5426,0.0504,0.2595,0.7603,0.5007,V
115,0.49844,1.2,1,0.33229,0.40706,0.83904,115,2.80787,0.458,0.2326,0.73104,5,3D1U,1.0,True,0.292,2,False,left,0.0,0.3361,1.0695,0.7334,1.9107,2.4112,0.5005,V
116,0.49844,0.1,1,0.29906,0.24091,0.66458,116,1.9439,-0.51,-0.25753,0.24091,5,3U1D,2.0,True,0.35,3,False,right,0.0,0.307,0.5486,0.2417,1.2152,1.7153,0.5,A
117,0.49844,1.2,1,0.29076,0.21599,0.44029,117,1.85254,-0.194,-0.09969,0.40706,5,2U1D,2.0,True,0.384,3,True,right,0.0,0.3013,0.7096,0.4083,1.1514,1.6524,0.501,A
118,0.49844,0.1,2,0.37383,0.33229,0.70612,118,2.15159,-0.51,-0.25753,0.24091,5,3U1D,1.0,True,0.292,3,False,left,0.0,1.5903,1.8317,0.2414,0.3817,0.8821,0.5004,V
119,0.49844,1.2,2,0.41537,0.3406,0.88888,119,2.85772,0.43,0.21599,0.71443,5,2D1U,1.0,False,0.533,6,True,left,0.0,1.8169,2.5325,0.7156,0.4246,0.9247,0.5001,A
120,0.49844,0.1,2,0.19938,0.35721,0.58151,120,2.58357,0.9,0.44859,0.94703,5,lapse_rate,2.0,True,0.233,0,False,right,0.0,1.2907,2.2408,0.9502,0.2071,0.7066,0.4995,V
121,0.49844,0.1,2,0.31568,0.39875,0.73104,121,2.67495,0.458,0.2326,0.73104,5,3D1U,2.0,True,0.108,2,False,right,0.0,1.5597,2.2931,0.7333,0.3265,0.826,0.4995,A
122,0.49844,1.2,1,0.42367,0.2243,0.80581,122,2.66665,0.422,0.20768,0.71443,5,3D1U,1.0,True,0.366,2,False,left,0.0,0.4299,1.1472,0.7173,1.9551,2.455,0.5,A
123,0.49844,0.1,2,0.34891,0.3406,0.53167,123,2.45066,0.466,0.2326,0.73104,5,2D1U,1.0,False,0.275,7,True,left,0.0,1.3875,2.1202,0.7327,0.3532,0.8534,0.5002,V
124,0.49844,1.2,1,0.38214,0.2326,0.63136,124,2.16821,-0.158,-0.08307,0.42367,5,2U1D,1.0,False,0.525,4,True,left,0.0,0.3866,0.8116,0.4251,1.4453,1.9462,0.501,V
125,0.49844,0.1,2,0.20768,0.30737,0.51505,125,1.76945,-0.51,-0.25753,0.24091,5,3U1D,1.0,True,0.342,3,False,left,0.0,1.2333,1.4743,0.241,0.2169,0.7163,0.4994,A
126,0.49844,1.2,1,0.24091,0.35721,0.65628,126,2.69987,0.9,0.44859,0.94703,5,lapse_rate,1.0,True,0.501,0,False,left,0.0,0.2448,1.1948,0.95,1.8531,2.3539,0.5008,A
127,0.49844,1.2,1,0.2243,0.29076,0.63966,127,2.40082,0.502,0.24922,0.74766,5,2D1U,1.0,True,0.343,7,False,left,0.0,0.2365,0.986,0.7495,1.6289,2.1287,0.4998,A
128,0.49844,0.1,2,0.42367,0.33229,0.63136,128,2.60019,0.422,0.20768,0.71443,5,3D1U,1.0,False,0.383,2,False,left,0.0,1.5633,2.2802,0.7169,0.4309,0.9301,0.4992,A
129,0.49844,1.2,2,0.3406,0.41537,0.41537,129,2.07684,-0.194,-0.09969,0.40706,5,2U1D,1.0,True,0.652,5,True,left,0.0,1.2663,1.6745,0.4082,0.3495,0.8495,0.5,V
130,0.49844,0.1,1,0.30737,0.29906,0.81412,130,2.18482,-0.474,-0.24091,0.26583,5,3U1D,2.0,True,0.317,3,False,right,0.0,0.3125,0.5804,0.268,1.3973,1.8962,0.499,A
131,0.49844,1.2,2,0.39044,0.2326,0.83904,131,2.01036,-0.9,-0.44859,0.04984,5,lapse_rate,1.0,True,1.391,0,False,left,0.0,1.7387,1.7886,0.0499,0.3973,0.8962,0.4989,A
132,0.49844,1.2,2,0.37383,0.35721,0.73104,132,2.70818,0.502,0.24922,0.74766,5,2D1U,2.0,True,1.56,7,False,right,0.0,1.6177,2.3673,0.7496,0.3842,0.8845,0.5003,V
133,0.49844,0.1,2,0.43198,0.43198,0.67289,133,2.30112,-0.474,-0.24091,0.26583,5,3U1D,1.0,True,0.367,3,False,left,0.0,1.6142,1.8812,0.2669,0.4391,0.9392,0.5001,V
134,0.49844,1.2,1,0.30737,0.21599,0.63966,134,2.3925,0.458,0.2326,0.73104,5,3D1U,1.0,True,0.86,3,True,left,0.0,0.3144,1.0482,0.7337,1.6901,2.19,0.4999,V
135,0.49844,0.1,2,0.42367,0.28245,0.60643,135,2.21805,-0.194,-0.09969,0.40706,5,2U1D,1.0,True,0.466,5,True,left,0.0,1.5423,1.9515,0.4093,0.4341,0.934,0.4998,A
136,0.49844,0.1,2,0.44859,0.19938,0.46521,136,1.66146,-0.9,-0.44859,0.04984,5,lapse_rate,1.0,True,0.441,0,False,left,0.0,1.425,1.4746,0.0496,0.4579,0.9578,0.4999,A
137,0.49844,1.2,2,0.2326,0.21599,0.5649,137,2.24297,0.466,0.2326,0.73104,5,2D1U,2.0,True,0.55,8,True,right,0.0,1.3088,2.0423,0.7336,0.2415,0.7434,0.5019,V
138,0.49844,0.1,1,0.38214,0.28245,0.51505,138,1.94391,-0.474,-0.24091,0.26583,5,3U1D,2.0,True,0.192,3,False,right,0.0,0.3971,0.6645,0.2674,1.1805,1.6812,0.5008,V
139,0.49844,1.2,1,0.35721,0.39044,0.88888,139,2.86601,0.458,0.2326,0.73104,5,3D1U,1.0,True,1.567,3,True,left,0.0,0.3668,1.1004,0.7336,1.9919,2.4924,0.5005,V
140,0.49844,0.1,1,0.24091,0.24922,0.64797,140,2.06021,-0.158,-0.08307,0.42367,5,2U1D,2.0,True,0.126,6,True,right,0.0,0.25,0.6756,0.4256,1.3266,1.8267,0.5001,A
141,0.49844,0.1,2,0.3406,0.31568,0.5649,141,1.76946,-0.9,-0.44859,0.04984,5,lapse_rate,1.0,True,0.26,0,False,left,0.0,1.4151,1.465,0.0499,0.3474,0.8467,0.4993,V
142,0.49844,1.2,1,0.2326,0.44859,0.48182,142,2.08512,-0.158,-0.08307,0.42367,5,2U1D,1.0,False,0.334,6,True,left,0.0,0.2428,0.667,0.4242,1.1503,1.6506,0.5003,V
143,0.49844,0.1,2,0.19938,0.29076,0.62305,143,2.34267,0.458,0.2326,0.73104,5,3D1U,1.0,False,0.116,3,True,left,0.0,1.3296,2.0632,0.7336,0.2045,0.7043,0.4998,V
144,0.49844,1.2,1,0.3406,0.26583,0.65628,144,2.50881,0.494,0.24922,0.74766,5,3D1U,1.0,True,0.392,3,False,left,0.0,0.349,1.0992,0.7501,1.7574,2.2563,0.4989,V
145,0.49844,0.1,2,0.39044,0.39044,0.67289,145,2.68325,0.466,0.2326,0.73104,5,2D1U,2.0,True,0.217,8,True,right,0.0,1.5704,2.3038,0.7334,0.3959,0.8946,0.4987,V
146,0.49844,1.2,1,0.19938,0.24922,0.73935,146,1.96884,-0.438,-0.21599,0.28245,5,3U1D,1.0,False,0.526,3,False,left,0.0,0.2037,0.4867,0.283,1.2284,1.7279,0.4995,V
147,0.49844,0.1,2,0.29076,0.30737,0.53167,147,2.34267,0.43,0.21599,0.71443,5,2D1U,1.0,False,0.185,8,False,left,0.0,1.3284,2.0451,0.7168,0.2946,0.795,0.5004,V
148,0.49844,1.2,2,0.33229,0.39875,0.49013,148,2.46727,0.494,0.24922,0.74766,5,3D1U,2.0,True,0.31,3,False,right,0.0,1.3361,2.0856,0.7495,0.3437,0.8436,0.4998,A
149,0.49844,0.1,1,0.32399,0.25753,0.64797,149,2.47559,0.494,0.24922,0.74766,5,3D1U,1.0,True,0.483,3,False,left,0.0,0.3357,1.0862,0.7505,1.7364,2.2356,0.4992,A
150,0.49844,1.2,2,0.27414,0.42367,0.89719,150,2.5005,-0.194,-0.09969,0.40706,5,2U1D,1.0,True,0.61,7,True,left,0.0,1.6867,2.0941,0.4074,0.2859,0.7863,0.5004,V
151,0.49844,0.1,1,0.21599,0.40706,0.52336,151,1.91068,-0.474,-0.24091,0.26583,5,3U1D,2.0,True,0.475,4,True,right,0.0,0.2189,0.4859,0.267,1.0113,1.5107,0.4994,A
152,0.49844,1.2,1,0.30737,0.34891,0.7975,152,2.68326,0.466,0.2326,0.73104,5,2D1U,2.0,False,0.375,9,True,right,0.0,0.3125,1.0463,0.7338,1.8462,2.3465,0.5002,V
153,0.49844,0.1,2,0.29076,0.37383,0.65628,153,2.56697,0.502,0.24922,0.74766,5,2D1U,2.0,True,0.285,9,False,right,0.0,1.457,2.2064,0.7493,0.2986,0.7987,0.5001,A
154,0.49844,1.2,2,0.40706,0.44029,0.52336,154,2.60019,0.458,0.2326,0.73104,5,3D1U,2.0,True,0.324,4,True,right,0.0,1.4426,2.1763,0.7337,0.4177,0.9175,0.4998,V
155,0.49844,0.1,2,0.29906,0.38214,0.7975,155,2.24297,-0.474,-0.24091,0.26583,5,3U1D,1.0,True,0.426,4,True,left,0.0,1.6086,1.8741,0.2655,0.3081,0.8088,0.5007,V
156,0.49844,1.2,2,0.25753,0.24091,0.43198,156,1.83592,-0.194,-0.09969,0.40706,5,2U1D,1.0,True,0.469,7,True,left,0.0,1.2,1.6094,0.4094,0.267,0.7673,0.5003,V
157,0.49844,0.1,1,0.24922,0.40706,0.80581,157,2.3842,-0.158,-0.08307,0.42367,5,2U1D,1.0,False,0.293,8,True,left,0.0,0.2583,0.6836,0.4253,1.4918,1.9911,0.4993,V
158,0.49844,1.2,1,0.31568,0.29906,0.78089,158,2.62511,0.458,0.2326,0.73104,5,3D1U,1.0,True,0.359,4,True,left,0.0,0.3195,1.0533,0.7338,1.8357,2.3367,0.5009,V
159,0.49844,0.1,1,0.30737,0.44029,0.54828,159,2.54204,0.502,0.24922,0.74766,5,2D1U,1.0,True,0.293,9,False,left,0.0,0.3174,1.0677,0.7503,1.6179,2.1178,0.5,V
160,0.49844,1.2,2,0.32399,0.38214,0.87227,160,2.80788,0.466,0.2326,0.73104,5,2D1U,1.0,False,0.732,10,True,left,0.0,1.7057,2.4393,0.7335,0.3305,0.8307,0.5003,V
161,0.49844,0.1,1,0.37383,0.34891,0.83073,161,2.31774,-0.474,-0.24091,0.26583,5,3U1D,2.0,True,0.309,4,True,right,0.0,0.385,0.6521,0.2671,1.4853,1.985,0.4997,V
162,0.49844,1.2,1,0.27414,0.31568,0.81412,162,2.18483,-0.438,-0.21599,0.28245,5,3U1D,2.0,True,0.393,5,True,right,0.0,0.2772,0.5605,0.2833,1.377,1.8769,0.4999,A
163,0.49844,0.1,1,0.27414,0.30737,0.62305,163,2.11006,-0.194,-0.09969,0.40706,5,2U1D,2.0,True,0.259,9,True,right,0.0,0.2822,0.691,0.4088,1.3161,1.8165,0.5003,A
164,0.49844,1.2,2,0.21599,0.35721,0.88057,164,2.69987,0.502,0.24922,0.74766,5,2D1U,2.0,True,0.259,11,True,right,0.0,1.6043,2.3537,0.7494,0.2208,0.7214,0.5005,A
165,0.49844,0.1,2,0.31568,0.25753,0.85565,165,2.67496,0.502,0.24922,0.74766,5,2D1U,2.0,True,0.168,11,True,right,0.0,1.6858,2.436,0.7502,0.3268,0.8282,0.5015,A
166,0.49844,1.2,2,0.24922,0.35721,0.68951,166,2.52542,0.458,0.2326,0.73104,5,3D1U,2.0,True,0.266,4,True,right,0.0,1.4463,2.1811,0.7347,0.2545,0.7551,0.5006,V
167,0.49844,0.1,2,0.40706,0.2243,0.44859,167,1.98545,-0.194,-0.09969,0.40706,5,2U1D,1.0,True,0.368,9,True,left,0.0,1.362,1.7698,0.4078,0.4122,0.9116,0.4994,V
168,0.49844,1.2,1,0.36552,0.21599,0.40706,168,2.21805,0.466,0.2326,0.73104,5,2D1U,1.0,True,0.25,12,True,left,0.0,0.3722,1.1068,0.7345,1.5139,2.0144,0.5005,A
169,0.49844,0.1,1,0.42367,0.42367,0.83073,169,2.45896,-0.438,-0.21599,0.28245,5,3U1D,2.0,True,0.116,5,True,right,0.0,0.4308,0.7156,0.2848,1.5481,2.0481,0.5,A
170,0.49844,1.2,2,0.37383,0.28245,0.80581,170,2.24298,-0.438,-0.21599,0.28245,5,3U1D,1.0,True,0.317,5,True,left,0.0,1.6899,1.9734,0.2835,0.3811,0.8815,0.5004,A
171,0.49844,0.1,2,0.36552,0.25753,0.59813,171,2.43405,0.422,0.20768,0.71443,5,3D1U,2.0,True,0.341,4,False,right,0.0,1.477,2.1925,0.7156,0.3764,0.8776,0.5012,V
172,0.49844,1.2,1,0.31568,0.29076,0.5732,172,2.10175,-0.158,-0.08307,0.42367,5,2U1D,1.0,False,0.534,10,True,left,0.0,0.322,0.747,0.4251,1.3217,1.822,0.5003,A
173,0.49844,0.1,2,0.44029,0.40706,0.86396,173,2.92418,0.422,0.20768,0.71443,5,3D1U,2.0,True,0.258,4,False,right,0.0,1.815,2.5315,0.7165,0.4484,0.9484,0.5,V
174,0.49844,1.2,2,0.37383,0.44029,0.80581,174,2.41743,-0.402,-0.19938,0.29906,5,3U1D,1.0,True,0.409,5,False,left,0.0,1.6875,1.9874,0.2999,0.3793,0.879,0.4997,A
175,0.49844,0.1,1,0.31568,0.36552,0.63966,175,2.11836,-0.402,-0.19938,0.29906,5,3U1D,2.0,True,0.191,5,False,right,0.0,0.3266,0.6269,0.3003,1.2687,1.7683,0.4996,A
176,0.49844,1.2,2,0.39875,0.36552,0.84735,176,2.8411,0.466,0.2326,0.73104,5,2D1U,2.0,True,0.4,12,True,right,0.0,1.7551,2.4885,0.7334,0.4049,0.9052,0.5003,V
177,0.49844,0.1,2,0.40706,0.3406,0.58151,177,2.54204,0.422,0.20768,0.71443,5,3D1U,2.0,True,0.335,4,False,right,0.0,1.4989,2.2157,0.7168,0.4157,0.916,0.5002,V
178,0.49844,1.2,1,0.21599,0.2243,0.62305,178,2.27621,0.43,0.21599,0.71443,5,2D1U,1.0,True,0.434,12,False,left,0.0,0.2228,0.9403,0.7175,1.5649,2.0652,0.5003,V
179,0.49844,0.1,2,0.32399,0.3406,0.5649,179,2.02699,-0.402,-0.19938,0.29906,5,3U1D,1.0,True,0.391,5,False,left,0.0,1.4008,1.7006,0.2997,0.3333,0.8345,0.5012,A
180,0.49844,1.2,1,0.41537,0.36552,0.44859,180,2.13498,-0.194,-0.09969,0.40706,5,2U1D,2.0,True,0.368,11,True,right,0.0,0.4254,0.8335,0.408,1.2837,1.7835,0.4997,V
181,0.49844,0.1,2,0.36552,0.36552,0.73104,181,2.36758,-0.194,-0.09969,0.40706,5,2U1D,1.0,True,0.317,11,True,left,0.0,1.6068,2.0151,0.4083,0.3734,0.8723,0.4989,V
182,0.49844,1.2,2,0.39044,0.2243,0.73935,182,2.56696,0.43,0.21599,0.71443,5,2D1U,2.0,True,0.334,12,False,right,0.0,1.6401,2.3564,0.7163,0.3992,0.8997,0.5004,V
183,0.49844,0.1,2,0.24091,0.24922,0.89719,183,2.30943,-0.158,-0.08307,0.42367,5,2U1D,1.0,True,0.382,12,True,left,0.0,1.6505,2.0753,0.4247,0.2501,0.7508,0.5007,A
184,0.49844,1.2,1,0.25753,0.39875,0.71443,184,2.29282,-0.158,-0.08307,0.42367,5,2U1D,1.0,False,0.368,12,True,left,0.0,0.2651,0.691,0.4259,1.4086,1.9065,0.4979,A
185,0.49844,0.1,2,0.20768,0.21599,0.82242,185,2.43404,0.386,0.19107,0.68951,5,3D1U,2.0,True,0.358,4,False,right,0.0,1.5392,2.2305,0.6913,0.2139,0.7152,0.5013,V
186,0.49844,1.2,1,0.20768,0.40706,0.71443,186,2.14329,-0.366,-0.18276,0.31568,5,3U1D,1.0,False,0.649,5,False,left,0.0,0.2172,0.5339,0.3167,1.2511,1.75,0.499,A
187,0.49844,0.1,1,0.34891,0.25753,0.75597,187,2.15991,-0.402,-0.19938,0.29906,5,3U1D,2.0,True,0.36,6,True,right,0.0,0.3599,0.6612,0.3012,1.418,1.9185,0.5005,A
188,0.49844,1.2,1,0.37383,0.39044,0.54828,188,2.21805,-0.194,-0.09969,0.40706,5,2U1D,2.0,True,0.342,13,True,right,0.0,0.3824,0.7915,0.4091,1.3411,1.8414,0.5003,A
189,0.49844,0.1,1,0.40706,0.42367,0.58982,189,2.6168,0.394,0.19938,0.69781,5,2D1U,1.0,True,0.5,12,False,left,0.0,0.4114,1.1116,0.7002,1.7034,2.2032,0.4998,V
190,0.49844,1.2,1,0.24091,0.38214,0.83073,190,2.64173,0.386,0.19107,0.68951,5,3D1U,1.0,True,0.676,4,False,left,0.0,0.2489,0.9413,0.6924,1.7737,2.2742,0.5005,A
191,0.49844,0.1,2,0.41537,0.27414,0.59813,191,2.47559,0.386,0.19107,0.68951,5,3D1U,2.0,True,0.369,4,False,right,0.0,1.5199,2.2112,0.6912,0.4192,0.9218,0.5026,V
192,0.49844,1.2,2,0.27414,0.40706,0.73104,192,2.60849,0.394,0.19938,0.69781,5,2D1U,2.0,True,0.266,12,False,right,0.0,1.517,2.2164,0.6994,0.2823,0.7826,0.5003,V
193,0.49844,0.1,2,0.26583,0.21599,0.59813,193,2.25959,0.358,0.18276,0.6812,5,2D1U,1.0,False,0.317,12,False,left,0.0,1.3729,2.0562,0.6834,0.272,0.7735,0.5015,V
194,0.49844,1.2,2,0.30737,0.44859,0.60643,194,2.53372,0.35,0.17445,0.67289,5,3D1U,2.0,True,0.218,4,False,right,0.0,1.4235,2.0991,0.6756,0.315,0.8153,0.5003,V
195,0.49844,0.1,1,0.28245,0.24091,0.73935,195,2.06021,-0.402,-0.19938,0.29906,5,3U1D,2.0,True,0.341,6,True,right,0.0,0.2931,0.5933,0.3001,1.335,1.8345,0.4995,V
196,0.49844,1.2,2,0.27414,0.24922,0.7975,196,2.22636,-0.194,-0.09969,0.40706,5,2U1D,1.0,True,0.558,13,True,left,0.0,1.5775,1.9867,0.4091,0.2781,0.7769,0.4988,A
197,0.49844,0.1,1,0.19938,0.33229,0.80581,197,2.25959,-0.158,-0.08307,0.42367,5,2U1D,1.0,False,0.333,14,True,left,0.0,0.2033,0.6287,0.4254,1.4368,1.9363,0.4995,A
198,0.49844,1.2,1,0.3406,0.28245,0.62305,198,2.44235,0.394,0.19938,0.69781,5,2D1U,2.0,False,0.375,13,True,right,0.0,0.3446,1.0458,0.7011,1.6707,2.1699,0.4992,A
199,0.49844,0.1,1,0.39875,0.26583,0.76427,199,2.60018,0.35,0.17445,0.67289,5,3D1U,1.0,True,0.117,4,False,left,0.0,0.4068,1.082,0.6752,1.8488,2.3486,0.4998,A
200,0.49844,1.2,1,0.39044,0.20768,0.62305,200,2.3925,0.35,0.17445,0.67289,5,3D1U,1.0,True,0.301,4,False,left,0.0,0.3988,1.0735,0.6747,1.6982,2.1986,0.5004,A
201,0.49844,0.1,2,0.44029,0.29076,0.5649,201,2.09345,-0.402,-0.19938,0.29906,5,3U1D,1.0,True,0.385,6,True,left,0.0,1.5177,1.8171,0.2994,0.4512,0.9512,0.5,V
202,0.49844,1.2,2,0.39875,0.25753,0.83904,202,2.65004,0.314,0.15784,0.65628,5,3D1U,1.0,False,0.259,4,False,left,0.0,1.7456,2.4041,0.6584,0.404,0.9043,0.5002,V
203,0.49844,0.1,1,0.29076,0.24922,0.69781,203,2.45066,0.43,0.21599,0.71443,5,2D1U,1.0,True,0.259,13,False,left,0.0,0.3023,1.019,0.7167,1.7202,2.2189,0.4986,A
204,0.49844,1.2,2,0.29906,0.37383,0.54828,204,2.12667,-0.194,-0.09969,0.40706,5,2U1D,1.0,True,0.242,15,True,left,0.0,1.3574,1.7658,0.4084,0.3073,0.8072,0.4999,A
205,0.49844,0.1,1,0.39044,0.30737,0.49013,205,2.00206,-0.366,-0.18276,0.31568,5,3U1D,2.0,True,0.235,7,True,right,0.0,0.3977,0.715,0.3173,1.2064,1.7073,0.501,A
206,0.49844,1.2,1,0.26583,0.38214,0.89719,206,2.35928,-0.366,-0.18276,0.31568,5,3U1D,2.0,True,0.366,7,True,right,0.0,0.272,0.5882,0.3162,1.4883,1.9887,0.5003,V
207,0.49844,0.1,1,0.25753,0.29906,0.58151,207,2.35097,0.43,0.21599,0.71443,5,2D1U,1.0,True,0.311,13,False,left,0.0,0.2668,0.9833,0.7165,1.567,2.0667,0.4998,V
208,0.49844,1.2,1,0.29906,0.33229,0.73935,208,2.18482,-0.366,-0.18276,0.31568,5,3U1D,1.0,False,0.315,7,True,left,0.0,0.3079,0.6252,0.3173,1.3748,1.8756,0.5009,V
209,0.49844,0.1,2,0.32399,0.2326,0.46521,209,1.9273,-0.194,-0.09969,0.40706,5,2U1D,1.0,True,0.341,15,True,left,0.0,1.2982,1.7066,0.4084,0.3324,0.8316,0.4992,A
210,0.49844,1.2,2,0.21599,0.3406,0.65628,210,2.3842,0.35,0.17445,0.67289,5,3D1U,2.0,True,0.568,5,True,right,0.0,1.3866,2.0619,0.6753,0.2277,0.7282,0.5005,V
211,0.49844,0.1,1,0.27414,0.20768,0.83073,211,2.48388,0.35,0.17445,0.67289,5,3D1U,1.0,True,0.358,5,True,left,0.0,0.2828,0.9567,0.6739,1.7914,2.2918,0.5004,V
212,0.49844,1.2,1,0.20768,0.21599,0.83073,212,2.45065,0.394,0.19938,0.69781,5,2D1U,1.0,True,0.434,14,True,left,0.0,0.2115,0.9114,0.6999,1.7456,2.2446,0.4989,V
213,0.49844,0.1,1,0.44029,0.24091,0.43198,213,1.91068,-0.402,-0.19938,0.29906,5,3U1D,2.0,True,0.293,8,True,right,0.0,0.447,0.7459,0.2989,1.1801,1.6787,0.4985,V
214,0.49844,1.2,1,0.26583,0.37383,0.88888,214,2.45065,-0.158,-0.08307,0.42367,5,2U1D,2.0,True,0.41,16,True,right,0.0,0.2749,0.7013,0.4264,1.5921,2.0926,0.5005,V
215,0.49844,0.1,2,0.29906,0.38214,0.88888,215,2.74141,0.35,0.17445,0.67289,5,3D1U,2.0,True,0.293,5,True,right,0.0,1.7013,2.3762,0.6749,0.3101,0.8095,0.4994,V
216,0.49844,1.2,1,0.26583,0.40706,0.88888,216,2.75802,0.394,0.19938,0.69781,5,2D1U,1.0,True,0.349,14,True,left,0.0,0.2769,0.977,0.7001,1.8681,2.3684,0.5003,V
217,0.49844,0.1,1,0.20768,0.32399,0.71443,217,2.42574,0.358,0.18276,0.6812,5,2D1U,1.0,True,0.309,14,False,left,0.0,0.2128,0.8962,0.6834,1.6132,2.1126,0.4995,V
218,0.49844,1.2,2,0.29076,0.34891,0.49013,218,2.28452,0.314,0.15784,0.65628,5,3D1U,1.0,False,0.608,6,True,left,0.0,1.2926,1.9513,0.6588,0.3008,0.8014,0.5006,V
219,0.49844,0.1,1,0.44029,0.24922,0.67289,219,2.1599,-0.402,-0.19938,0.29906,5,3U1D,2.0,True,0.308,8,True,right,0.0,0.4511,0.751,0.2999,1.4265,1.9259,0.4994,A
220,0.49844,1.2,2,0.29076,0.39044,0.71443,220,2.31774,-0.158,-0.08307,0.42367,5,2U1D,1.0,True,0.3,16,True,left,0.0,1.5168,1.9415,0.4247,0.3002,0.8003,0.5001,V
221,0.49844,0.1,2,0.41537,0.20768,0.49013,221,2.29282,0.358,0.18276,0.6812,5,2D1U,2.0,True,0.283,14,False,right,0.0,1.4163,2.0998,0.6835,0.424,0.9238,0.4999,V
222,0.49844,1.2,1,0.44029,0.27414,0.78919,222,2.30112,-0.402,-0.19938,0.29906,5,3U1D,1.0,False,0.6,8,True,left,0.0,0.4507,0.7511,0.3005,1.5496,2.0498,0.5002,A
223,0.49844,0.1,1,0.34891,0.3406,0.46521,223,1.93561,-0.438,-0.21599,0.28245,5,3U1D,2.0,True,0.151,8,False,right,0.0,0.3598,0.6443,0.2845,1.111,1.6102,0.4992,V
224,0.49844,1.2,1,0.29906,0.31568,0.78919,224,2.57526,0.35,0.17445,0.67289,5,3D1U,2.0,False,0.251,7,True,right,0.0,0.305,0.9803,0.6754,1.7718,2.2719,0.5001,V
225,0.49844,0.1,2,0.24922,0.26583,0.71443,225,2.3925,0.322,0.15784,0.66458,5,2D1U,2.0,True,0.201,14,False,right,0.0,1.4731,2.1403,0.6672,0.2557,0.7565,0.5008,V
226,0.49844,1.2,1,0.44029,0.44859,0.82242,226,2.65003,-0.122,-0.05815,0.44029,5,2U1D,1.0,False,0.442,16,False,left,0.0,0.4505,0.8934,0.4429,1.7188,2.2176,0.4988,A
227,0.49844,0.1,2,0.39044,0.25753,0.76427,227,2.60019,0.386,0.19107,0.68951,5,3D1U,1.0,False,0.474,7,False,left,0.0,1.6694,2.362,0.6925,0.4023,0.9015,0.4992,V
228,0.49844,1.2,2,0.44029,0.3406,0.76427,228,2.46727,-0.158,-0.08307,0.42367,5,2U1D,1.0,True,0.516,17,True,left,0.0,1.7168,2.1424,0.4256,0.4505,0.9512,0.5007,V
229,0.49844,0.1,2,0.43198,0.19938,0.80581,229,2.35928,-0.158,-0.08307,0.42367,5,2U1D,1.0,True,0.366,17,True,left,0.0,1.7469,2.1716,0.4247,0.4379,0.9387,0.5008,V
230,0.49844,1.2,2,0.2243,0.34891,0.70612,230,2.06022,-0.438,-0.21599,0.28245,5,3U1D,1.0,True,0.284,8,False,left,0.0,1.4428,1.7255,0.2827,0.2344,0.7347,0.5003,V
231,0.49844,0.1,1,0.37383,0.3406,0.63966,231,2.51711,0.322,0.15784,0.66458,5,2D1U,1.0,True,0.117,14,False,left,0.0,0.3804,1.0468,0.6664,1.6885,2.1887,0.5002,V
232,0.49844,1.2,2,0.30737,0.44029,0.62305,232,2.58358,0.422,0.20768,0.71443,5,3D1U,2.0,True,0.242,7,False,right,0.0,1.4412,2.1576,0.7164,0.3158,0.8169,0.5012,A
233,0.49844,0.1,1,0.32399,0.27414,0.66458,233,2.40081,0.286,0.14122,0.63966,5,2D1U,1.0,True,0.116,14,False,left,0.0,0.3279,0.9696,0.6417,1.6363,2.137,0.5007,A
234,0.49844,1.2,1,0.3406,0.29076,0.83904,234,2.40913,-0.122,-0.05815,0.44029,5,2U1D,1.0,False,0.409,18,True,left,0.0,0.3494,0.7918,0.4424,1.6325,2.1325,0.4999,A
235,0.49844,0.1,1,0.32399,0.39875,0.44859,235,2.09344,-0.158,-0.08307,0.42367,5,2U1D,1.0,False,0.36,19,True,left,0.0,0.333,0.7577,0.4247,1.2078,1.7077,0.4999,A
236,0.49844,1.2,2,0.28245,0.40706,0.81412,236,2.28452,-0.438,-0.21599,0.28245,5,3U1D,1.0,True,0.241,8,False,left,0.0,1.6089,1.8922,0.2833,0.2926,0.7926,0.5,A
237,0.49844,0.1,1,0.28245,0.3406,0.88888,237,2.7248,0.422,0.20768,0.71443,5,3D1U,1.0,True,0.316,7,False,left,0.0,0.2895,1.0072,0.7178,1.8982,2.3985,0.5003,V
238,0.49844,1.2,2,0.3406,0.28245,0.80581,238,2.22636,-0.402,-0.19938,0.29906,5,3U1D,1.0,True,0.327,9,True,left,0.0,1.6599,1.9599,0.3001,0.3507,0.8518,0.5011,A
239,0.49844,0.1,2,0.43198,0.42367,0.66458,239,2.65833,0.286,0.14122,0.63966,5,2D1U,1.0,False,0.394,14,False,left,0.0,1.6065,2.2475,0.641,0.4384,0.9399,0.5015,A
240,0.49844,1.2,1,0.37383,0.33229,0.47352,240,2.08514,-0.194,-0.09969,0.40706,5,2U1D,1.0,False,0.424,19,False,left,0.0,0.3839,0.7927,0.4088,1.2672,1.7675,0.5003,A
241,0.49844,0.1,1,0.30737,0.35721,0.4569,241,2.00206,-0.23,-0.1163,0.38214,5,2U1D,1.0,False,0.225,19,False,left,0.0,0.3177,0.7017,0.384,1.1599,1.6603,0.5004,V
242,0.49844,1.2,2,0.2326,0.24091,0.83073,242,2.1682,-0.266,-0.13292,0.36552,5,2U1D,1.0,True,0.4,19,False,left,0.0,1.5698,1.9359,0.3661,0.2366,0.7363,0.4997,V
243,0.49844,0.1,1,0.28245,0.32399,0.80581,243,2.20975,-0.402,-0.19938,0.29906,5,3U1D,2.0,True,0.284,9,True,right,0.0,0.2925,0.5926,0.3001,1.4011,1.9019,0.5008,A
244,0.49844,1.2,2,0.2326,0.24091,0.83073,244,2.46726,0.322,0.15784,0.66458,5,2D1U,1.0,False,0.507,15,True,left,0.0,1.5732,2.2404,0.6673,0.2401,0.7403,0.5002,V
245,0.49844,0.1,2,0.3406,0.31568,0.5649,245,2.40082,0.358,0.18276,0.6812,5,2D1U,2.0,True,0.249,15,False,right,0.0,1.4138,2.0972,0.6833,0.3486,0.8475,0.499,A
246,0.49844,1.2,1,0.2243,0.21599,0.4569,246,2.11006,0.422,0.20768,0.71443,5,3D1U,1.0,True,0.927,7,False,left,0.0,0.2278,0.9452,0.7174,1.4036,1.9041,0.5005,A
247,0.49844,0.1,2,0.30737,0.25753,0.7975,247,2.55035,0.386,0.19107,0.68951,5,3D1U,2.0,True,0.534,8,True,right,0.0,1.6161,2.3077,0.6916,0.316,0.8159,0.4999,V
248,0.49844,1.2,1,0.39875,0.41537,0.89719,248,2.89926,0.386,0.19107,0.68951,5,3D1U,1.0,True,0.502,8,True,left,0.0,0.4035,1.0957,0.6921,1.9961,2.495,0.4989,V
249,0.49844,0.1,2,0.20768,0.36552,0.49013,249,2.24297,0.358,0.18276,0.6812,5,2D1U,1.0,False,0.55,15,False,left,0.0,1.2081,1.8914,0.6834,0.2158,0.7166,0.5008,A
250,0.49844,1.2,1,0.31568,0.34891,0.42367,250,1.88576,-0.402,-0.19938,0.29906,5,3U1D,1.0,False,0.375,9,True,left,0.0,0.3235,0.6237,0.3002,1.0483,1.5488,0.5006,V
251,0.49844,0.1,2,0.20768,0.24091,0.63966,251,1.95221,-0.266,-0.13292,0.36552,5,2U1D,1.0,True,0.492,19,False,left,0.0,1.3534,1.7197,0.3663,0.2124,0.7124,0.5,V
252,0.49844,1.2,2,0.26583,0.36552,0.54828,252,2.36758,0.386,0.19107,0.68951,5,3D1U,1.0,False,0.409,8,True,left,0.0,1.3254,2.0172,0.6918,0.2747,0.7764,0.5017,V
253,0.49844,0.1,1,0.33229,0.43198,0.54828,253,2.5088,0.394,0.19938,0.69781,5,2D1U,1.0,True,0.384,15,False,left,0.0,0.344,1.0438,0.6998,1.5937,2.0939,0.5002,A
254,0.49844,1.2,2,0.40706,0.24922,0.73104,254,2.2679,-0.23,-0.1163,0.38214,5,2U1D,1.0,True,0.326,20,True,left,0.0,1.6514,2.035,0.3836,0.418,0.9179,0.4999,V
255,0.49844,0.1,1,0.2243,0.38214,0.73104,255,2.11837,-0.438,-0.21599,0.28245,5,3U1D,2.0,True,1.867,10,True,right,0.0,0.2291,0.5114,0.2823,1.2456,1.7447,0.4992,A
256,0.49844,1.2,2,0.24922,0.44859,0.60643,256,2.08513,-0.438,-0.21599,0.28245,5,3U1D,1.0,True,0.376,10,True,left,0.0,1.3622,1.6447,0.2825,0.2527,0.7531,0.5003,V
257,0.49844,0.1,2,0.39875,0.35721,0.42367,257,2.06021,-0.23,-0.1163,0.38214,5,2U1D,1.0,True,0.118,20,True,left,0.0,1.3292,1.7143,0.385,0.4047,0.9048,0.5001,A
258,0.49844,1.2,1,0.29076,0.33229,0.70612,258,2.54204,0.422,0.20768,0.71443,5,3D1U,2.0,False,0.299,9,True,right,0.0,0.2982,1.014,0.7158,1.7225,2.2228,0.5003,V
259,0.49844,0.1,1,0.34891,0.39044,0.48182,259,2.45065,0.458,0.2326,0.73104,5,3D1U,1.0,True,0.333,9,False,left,0.0,0.3598,1.0935,0.7337,1.5764,2.0767,0.5003,V
260,0.49844,1.2,2,0.44859,0.2243,0.53998,260,2.40912,0.394,0.19938,0.69781,5,2D1U,1.0,False,0.35,15,False,left,0.0,1.5015,2.2013,0.6997,0.4593,0.9589,0.4996,V
261,0.49844,0.1,2,0.32399,0.28245,0.71443,261,2.10176,-0.438,-0.21599,0.28245,5,3U1D,1.0,True,0.384,10,True,left,0.0,1.5448,1.8276,0.2828,0.3279,0.828,0.5,A
262,0.49844,1.2,1,0.39875,0.21599,0.39875,262,2.24297,0.458,0.2326,0.73104,5,3D1U,1.0,True,0.549,9,False,left,0.0,0.4084,1.1421,0.7337,1.5411,2.0408,0.4997,A
263,0.49844,0.1,1,0.26583,0.24091,0.49013,263,2.22635,0.458,0.2326,0.73104,5,3D1U,1.0,True,0.683,9,False,left,0.0,0.2706,1.005,0.7345,1.4961,1.9966,0.5006,V
264,0.49844,1.2,1,0.39044,0.38214,0.63966,264,2.20974,-0.402,-0.19938,0.29906,5,3U1D,1.0,False,0.599,11,True,left,0.0,0.3966,0.6962,0.2996,1.3359,1.8362,0.5003,A
265,0.49844,0.1,1,0.20768,0.41537,0.53998,265,2.06853,-0.194,-0.09969,0.40706,5,2U1D,2.0,True,0.266,20,False,right,0.0,0.2188,0.6272,0.4084,1.1686,1.6685,0.4998,V
266,0.49844,1.2,1,0.35721,0.30737,0.81412,266,2.69157,0.43,0.21599,0.71443,5,2D1U,1.0,True,0.442,15,False,left,0.0,0.3656,1.0819,0.7163,1.8977,2.3978,0.5001,A
267,0.49844,0.1,1,0.24091,0.43198,0.74766,267,2.32605,-0.194,-0.09969,0.40706,5,2U1D,2.0,True,0.283,20,False,right,0.0,0.2463,0.6543,0.408,1.4049,1.9044,0.4995,A
268,0.49844,1.2,2,0.2243,0.43198,0.88888,268,2.75803,0.43,0.21599,0.71443,5,2D1U,2.0,True,0.182,15,False,right,0.0,1.6208,2.3374,0.7167,0.2289,0.7285,0.4996,V
269,0.49844,0.1,2,0.24922,0.37383,0.80581,269,2.20975,-0.438,-0.21599,0.28245,5,3U1D,1.0,True,0.251,12,True,left,0.0,1.5639,1.8468,0.2829,0.2548,0.7555,0.5006,V
270,0.49844,1.2,1,0.24091,0.25753,0.54828,270,1.82761,-0.438,-0.21599,0.28245,5,3U1D,1.0,False,0.393,12,True,left,0.0,0.2446,0.5287,0.284,1.0776,1.5776,0.5,V
271,0.49844,0.1,2,0.25753,0.29076,0.52336,271,2.28452,0.422,0.20768,0.71443,5,3D1U,2.0,True,0.317,10,True,right,0.0,1.2858,2.0023,0.7165,0.2617,0.7614,0.4997,V
272,0.49844,1.2,1,0.42367,0.38214,0.5649,272,2.13498,-0.474,-0.24091,0.26583,5,3U1D,1.0,False,0.325,12,False,left,0.0,0.428,0.6944,0.2663,1.2611,1.7616,0.5005,V
273,0.49844,0.1,1,0.3406,0.41537,0.52336,273,2.01868,-0.51,-0.25753,0.24091,5,3U1D,2.0,True,0.292,12,False,right,0.0,0.3517,0.5935,0.2418,1.1184,1.6183,0.5,V
274,0.49844,1.2,1,0.35721,0.43198,0.51505,274,2.22635,-0.158,-0.08307,0.42367,5,2U1D,1.0,False,0.509,20,False,left,0.0,0.364,0.7893,0.4253,1.3056,1.8062,0.5006,A
275,0.49844,0.1,2,0.3406,0.21599,0.46521,275,2.23467,0.422,0.20768,0.71443,5,3D1U,2.0,True,0.284,10,True,right,0.0,1.3177,2.034,0.7163,0.3502,0.8515,0.5013,V
276,0.49844,1.2,2,0.37383,0.35721,0.58982,276,2.51711,0.394,0.19938,0.69781,5,2D1U,1.0,False,0.427,16,True,left,0.0,1.4758,2.1756,0.6999,0.3837,0.8832,0.4996,V
277,0.49844,0.1,2,0.35721,0.38214,0.44029,277,2.39251,0.43,0.21599,0.71443,5,2D1U,2.0,True,0.275,17,True,right,0.0,1.3102,2.0277,0.7175,0.3682,0.8687,0.5005,V
278,0.49844,1.2,2,0.27414,0.35721,0.70612,278,2.55034,0.422,0.20768,0.71443,5,3D1U,1.0,False,0.608,10,True,left,0.0,1.4921,2.2087,0.7166,0.2844,0.7842,0.4998,A
279,0.49844,0.1,2,0.43198,0.34891,0.64797,279,2.16821,-0.51,-0.25753,0.24091,5,3U1D,1.0,True,0.316,12,False,left,0.0,1.5916,1.8338,0.2422,0.4419,0.9426,0.5007,A
280,0.49844,1.2,2,0.2243,0.26583,0.63136,280,1.86084,-0.51,-0.25753,0.24091,5,3U1D,1.0,True,0.342,12,False,left,0.0,1.3683,1.6098,0.2415,0.2347,0.7345,0.4998,A
281,0.49844,0.1,1,0.29906,0.20768,0.58151,281,1.99375,-0.194,-0.09969,0.40706,5,2U1D,1.0,False,0.333,21,True,left,0.0,0.3039,0.7128,0.4089,1.2959,1.796,0.5,V
282,0.49844,1.2,2,0.35721,0.28245,0.76427,282,2.6168,0.43,0.21599,0.71443,5,2D1U,2.0,True,0.325,17,True,right,0.0,1.6353,2.3508,0.7155,0.3684,0.8682,0.4998,V
283,0.49844,0.1,2,0.37383,0.31568,0.6812,283,2.13498,-0.474,-0.24091,0.26583,5,3U1D,1.0,True,0.433,13,True,left,0.0,1.5619,1.8283,0.2665,0.3775,0.8783,0.5009,V
284,0.49844,1.2,2,0.33229,0.29076,0.80581,284,2.19313,-0.474,-0.24091,0.26583,5,3U1D,1.0,True,0.301,13,True,left,0.0,1.6486,1.9153,0.2667,0.3393,0.8402,0.501,A
285,0.49844,0.1,1,0.2326,0.35721,0.63136,285,2.45065,0.458,0.2326,0.73104,5,3D1U,1.0,True,0.343,11,True,left,0.0,0.2397,0.9729,0.7332,1.6059,2.1073,0.5014,V
286,0.49844,1.2,2,0.43198,0.25753,0.70612,286,2.27621,-0.23,-0.1163,0.38214,5,2U1D,1.0,True,0.358,21,False,left,0.0,1.6524,2.035,0.3827,0.4436,0.9441,0.5005,A
287,0.49844,0.1,2,0.28245,0.43198,0.74766,287,2.65834,0.394,0.19938,0.69781,5,2D1U,1.0,False,0.632,18,True,left,0.0,1.5373,2.2369,0.6996,0.2868,0.7866,0.4998,A
288,0.49844,1.2,2,0.27414,0.30737,0.86396,288,2.67495,0.458,0.2326,0.73104,5,3D1U,2.0,True,0.325,11,True,right,0.0,1.6453,2.3794,0.7342,0.2784,0.7786,0.5002,A
289,0.49844,0.1,1,0.39875,0.24091,0.77258,289,2.29282,-0.23,-0.1163,0.38214,5,2U1D,1.0,False,0.319,21,False,left,0.0,0.411,0.7939,0.383,1.5685,2.0686,0.5001,V
290,0.49844,1.2,2,0.35721,0.31568,0.70612,290,2.14328,-0.474,-0.24091,0.26583,5,3U1D,1.0,True,0.292,13,True,left,0.0,1.5754,1.8424,0.267,0.3667,0.8676,0.5009,V
291,0.49844,0.1,1,0.24922,0.25753,0.80581,291,2.09345,-0.438,-0.21599,0.28245,5,3U1D,2.0,True,0.284,13,False,right,0.0,0.2547,0.5385,0.2838,1.3469,1.8469,0.5,A
292,0.49844,1.2,2,0.37383,0.39044,0.43198,292,2.42573,0.458,0.2326,0.73104,5,3D1U,2.0,True,0.209,11,True,right,0.0,1.3127,2.0467,0.734,0.3801,0.8793,0.4992,A
293,0.49844,0.1,1,0.42367,0.29076,0.78089,293,2.70819,0.43,0.21599,0.71443,5,2D1U,1.0,True,0.268,19,True,left,0.0,0.4323,1.1488,0.7164,1.9324,2.4319,0.4995,A
294,0.49844,1.2,1,0.35721,0.38214,0.42367,294,2.02698,-0.266,-0.13292,0.36552,5,2U1D,1.0,False,0.276,21,False,left,0.0,0.3641,0.7304,0.3663,1.1557,1.6552,0.4995,A
295,0.49844,0.1,1,0.26583,0.41537,0.59813,295,2.12668,-0.302,-0.14953,0.34891,5,2U1D,2.0,True,0.299,21,False,right,0.0,0.2759,0.6275,0.3516,1.2276,1.7269,0.4994,V
296,0.49844,1.2,1,0.40706,0.32399,0.74766,296,2.2596,-0.438,-0.21599,0.28245,5,3U1D,2.0,True,0.316,13,False,right,0.0,0.4123,0.6955,0.2832,1.4462,1.9464,0.5002,V
297,0.49844,0.1,1,0.30737,0.37383,0.43198,297,1.96053,-0.302,-0.14953,0.34891,5,2U1D,1.0,False,0.283,21,False,left,0.0,0.3168,0.6665,0.3497,1.1001,1.5999,0.4998,V
298,0.49844,1.2,1,0.39875,0.40706,0.74766,298,2.76634,0.43,0.21599,0.71443,5,2D1U,1.0,True,0.45,19,True,left,0.0,0.4062,1.1237,0.7175,1.8739,2.373,0.4991,V
299,0.49844,0.1,2,0.35721,0.43198,0.58982,299,2.59188,0.422,0.20768,0.71443,5,3D1U,2.0,True,0.159,12,True,right,0.0,1.4599,2.1759,0.7159,0.3673,0.8676,0.5003,A
300,0.49844,1.2,1,0.38214,0.26583,0.58982,300,2.45066,0.422,0.20768,0.71443,5,3D1U,1.0,True,0.334,12,True,left,0.0,0.3909,1.1085,0.7176,1.6988,2.1998,0.5009,A
301,0.49844,0.1,1,0.33229,0.34891,0.62305,301,2.51712,0.422,0.20768,0.71443,5,3D1U,1.0,True,0.284,12,True,left,0.0,0.3404,1.0571,0.7167,1.6823,2.1823,0.4999,A
302,0.49844,1.2,2,0.41537,0.25753,0.74766,302,2.25129,-0.338,-0.16615,0.33229,5,2U1D,1.0,True,0.241,21,False,left,0.0,1.6715,2.0046,0.3331,0.4216,0.9221,0.5006,A
303,0.49844,0.1,1,0.40706,0.39044,0.4569,303,2.45065,0.394,0.19938,0.69781,5,2D1U,1.0,True,0.116,20,True,left,0.0,0.4163,1.1171,0.7009,1.5751,2.0766,0.5015,A
304,0.49844,1.2,1,0.33229,0.20768,0.88888,304,2.6251,0.394,0.19938,0.69781,5,2D1U,1.0,True,0.675,20,True,left,0.0,0.344,1.044,0.7,1.9348,2.436,0.5012,A
305,0.49844,0.1,2,0.44029,0.26583,0.44029,305,1.97714,-0.338,-0.16615,0.33229,5,2U1D,1.0,True,0.316,21,False,left,0.0,1.3872,1.7207,0.3334,0.4453,0.9458,0.5004,V
306,0.49844,1.2,1,0.37383,0.2326,0.59813,306,2.05191,-0.302,-0.14953,0.34891,5,2U1D,1.0,False,0.41,22,True,left,0.0,0.3837,0.7338,0.3502,1.3333,1.8334,0.5002,V
307,0.49844,0.1,1,0.27414,0.26583,0.83904,307,2.20974,-0.338,-0.16615,0.33229,5,2U1D,2.0,True,1.809,23,True,right,0.0,0.2809,0.6147,0.3338,1.4562,1.9553,0.4991,A
