,standardDur,audNoise,order,preDur,postDur,isiDur,trial_num,totalDur,delta_dur_percents,deltaDurS,testDurS,intensities,current_stair,responses,is_correct,response_rts,stair_num_reversal,stair_is_reversal,response_keys,conflictDur,recordedOnsetAudioTest,recordedOffsetAudioTest,recordedDurAudioTest,recordedOnsetVisualStandard,recordedOffsetVisualStandard,recordedDurVisualStandard,modalityPostCueTest
0,0.4989,1.2,2,0.20787,0.39912,0.54047,0,1.82097,-0.65,-0.32428,0.17461,5,2U1D,1.0,True,1.52,0,False,left,0.0,0.0008066003210842609,1.8244834998622537,1.8236768995411694,0.1991526000201702,0.6995445000939071,0.5003919000737369,
1,0.4989,0.1,2,0.29102,0.20787,0.43238,1,1.48006,-0.9,-0.44901,0.04989,5,lapse_rate,2.0,False,2.141,0,False,right,0.0,0.00045080017298460007,1.4906955999322236,1.490244799759239,0.28212999971583486,0.7822654000483453,0.5001354003325105,
2,0.4989,0.1,2,0.29102,0.3326,0.57373,2,1.87086,-0.65,-0.32428,0.17461,5,1U1D,1.0,True,1.751,0,False,left,0.0,0.0007655997760593891,1.8800065997056663,1.879240999929607,0.28949250001460314,0.7887569996528327,0.4992644996382296,
3,0.4989,1.2,2,0.21619,0.20787,0.73172,3,2.47786,0.65,0.32428,0.82318,5,2D1U,2.0,True,0.233,0,False,right,0.0,0.0003880998119711876,2.480508300010115,2.4801202001981437,0.20550950011238456,0.7055530999787152,0.5000435998663306,
4,0.4989,0.1,2,0.42406,0.39912,0.68183,4,2.17852,-0.65,-0.32428,0.17461,5,2U1D,1.0,True,1.482,0,False,left,0.0,0.0007842998020350933,2.182299300096929,2.181515000294894,0.4154281998053193,0.9154948000796139,0.5000666002742946,
5,0.4989,1.2,2,0.28271,0.25776,0.63194,5,2.49449,0.65,0.32428,0.82318,5,1D1U,2.0,True,0.242,0,False,right,0.0,0.0007771002128720284,2.4983357000164688,2.4975585998035967,0.2740134000778198,0.7735582003369927,0.4995448002591729,
6,0.4989,1.2,2,0.34923,0.26608,0.75666,6,1.92076,-0.9,-0.44901,0.04989,5,lapse_rate,1.0,True,0.392,0,False,left,0.0,0.0008720997720956802,1.9315534001216292,1.9306813003495336,0.33997100032866,0.8398895002901554,0.4999184999614954,
7,0.4989,0.1,2,0.24945,0.43238,0.65688,7,2.06211,-0.55,-0.27439,0.2245,5,1U1D,1.0,True,1.253,0,False,left,0.0,0.0007601999677717686,2.0656106998212636,2.064850499853492,0.24058300023898482,0.7402484999038279,0.4996654996648431,
8,0.4989,1.2,2,0.29102,0.39912,0.67351,8,2.08705,-0.55,-0.27439,0.2245,5,2U1D,2.0,False,0.26,0,False,right,0.0,0.0007354002445936203,2.090830400120467,2.0900949998758733,0.2821575002744794,0.7823820998892188,0.5002245996147394,
9,0.4989,0.1,2,0.3326,0.44069,0.70677,9,2.80214,0.65,0.32428,0.82318,5,2D1U,2.0,True,0.255,0,False,right,0.0,0.0007229000329971313,2.806775599718094,2.8060526996850967,0.32362519996240735,0.823755799792707,0.5001305998302996,
10,0.4989,1.2,1,0.28271,0.26608,0.62362,10,2.4446,0.55,0.27439,0.77329,5,1D1U,1.0,True,1.339,0,False,left,0.0,0.0008004000410437584,2.44834340037778,2.4475430003367364,1.6733058001846075,2.1737402002327144,0.5004344000481069,
11,0.4989,0.1,1,0.38249,0.19956,0.44069,11,1.71288,-0.61,-0.30765,0.19124,5,2U1D,2.0,True,0.749,1,True,right,0.0,0.00027379998937249184,1.7238108003512025,1.72353700036183,1.006454000249505,1.5073417001403868,0.5008876998908818,
12,0.4989,1.2,1,0.30765,0.29934,0.50721,12,2.3365,0.45,0.2245,0.7234,5,1D1U,1.0,True,0.408,0,False,left,0.0,0.0007373997941613197,2.3413622002117336,2.3406248004175723,1.5325734000653028,2.0328819998539984,0.5003085997886956,
13,0.4989,0.1,1,0.37417,0.20787,0.85644,13,2.21177,-0.45,-0.2245,0.27439,5,1U1D,2.0,True,0.82,0,False,right,0.0,0.0007198997773230076,2.2147443001158535,2.2140244003385305,1.498298100195825,1.9977637003175914,0.49946560012176633,
14,0.4989,0.1,1,0.29934,0.32428,0.54879,14,1.7212,-0.9,-0.44901,0.04989,5,lapse_rate,2.0,True,2.433,0,False,right,0.0,0.000515899620950222,1.7324533998034894,1.7319375001825392,0.8907443997450173,1.3914282000623643,0.500683800317347,
15,0.4989,1.2,1,0.28271,0.24113,0.67351,15,2.46954,0.55,0.27439,0.77329,5,2D1U,2.0,False,0.311,0,False,right,0.0,0.000664799939841032,2.4743288001045585,2.4736640001647174,1.7238862002268434,2.2238078000955284,0.499921599868685,
16,0.4989,1.2,1,0.30765,0.27439,0.69014,16,1.82097,-0.9,-0.44901,0.04989,5,lapse_rate,2.0,True,0.782,0,False,right,0.0,0.00035559991374611855,1.8239512001164258,1.8235956002026796,1.040713299997151,1.5406578001566231,0.4999445001594722,
17,0.4989,0.1,1,0.31597,0.34091,0.49058,17,1.8376,-0.61,-0.30765,0.19124,5,2U1D,2.0,True,0.234,1,True,right,0.0,0.0007517002522945404,1.8408531001769006,1.840101399924606,0.9907936998642981,1.4906176999211311,0.49982400005683303,
18,0.4989,1.2,1,0.21619,0.24945,0.65688,18,2.29493,0.35,0.17461,0.67351,5,1D1U,2.0,False,0.433,0,False,right,0.0,0.0007309000939130783,2.298947500064969,2.298216599971056,1.5405643000267446,2.0406599999405444,0.5000956999137998,
19,0.4989,0.1,1,0.29934,0.20787,0.76498,19,2.09537,-0.35,-0.17461,0.32428,5,1U1D,2.0,True,0.34,0,False,right,0.0,0.0007260995917022228,2.097772100009024,2.097046000417322,1.3809687001630664,1.8813229002989829,0.5003542001359165,
20,0.4989,1.2,2,0.43238,0.35754,0.87307,20,2.96844,0.61,0.30765,0.80655,5,2D1U,2.0,True,0.333,1,True,right,0.0,0.0007373001426458359,2.974411000031978,2.973673699889332,0.42359620006754994,0.9240284999832511,0.5004322999157012,
21,0.4989,0.1,2,0.38249,0.32428,0.71509,21,2.62753,0.41,0.20787,0.70677,5,1D1U,2.0,True,0.114,1,True,right,0.0,0.0007644998840987682,2.624824299942702,2.6240598000586033,0.3746742997318506,0.874824299942702,0.5001500002108514,
22,0.4989,1.2,2,0.36586,0.27439,0.70677,22,2.22009,-0.25,-0.12472,0.37417,5,1U1D,1.0,True,0.309,0,False,left,0.0,0.0007972000166773796,2.231260800268501,2.2304636002518237,0.35619849991053343,0.8561411001719534,0.49994260026142,
23,0.4989,0.1,2,0.42406,0.23282,0.60699,23,2.56932,0.61,0.30765,0.80655,5,2D1U,2.0,True,0.143,1,True,right,0.0,0.000768700148910284,2.572595899924636,2.5718271997757256,0.41427480010315776,0.9129059999249876,0.4986311998218298,
24,0.4989,0.1,2,0.27439,0.34091,0.74003,24,2.80214,0.9,0.44901,0.94791,5,lapse_rate,2.0,True,0.242,0,False,right,0.0,0.0007250998169183731,2.806657800450921,2.8059327006340027,0.265153800137341,0.7644635001197457,0.4993096999824047,
25,0.4989,1.2,2,0.20787,0.35754,0.8897,25,2.1702,-0.574,-0.29102,0.21619,5,2U1D,1.0,True,0.266,2,True,left,0.0,0.0007612002082169056,2.182040300220251,2.181279100012034,0.1989198001101613,0.6991455000825226,0.5002256999723613,
26,0.4989,0.1,2,0.27439,0.2245,0.7234,26,2.14525,-0.15,-0.07483,0.42406,5,1U1D,1.0,True,0.363,0,False,left,0.0,0.0007329997606575489,2.1489734002389014,2.148240400478244,0.26604139991104603,0.7664832002483308,0.5004418003372848,
27,0.4989,1.2,2,0.41575,0.36586,0.85644,27,2.92687,0.574,0.29102,0.78992,5,2D1U,2.0,True,0.256,2,True,right,0.0,0.0007871999405324459,2.924057099968195,2.9232699000276625,0.4076355998404324,0.9072464001365006,0.4996108002960682,
28,0.4989,0.1,2,0.21619,0.27439,0.8315,28,2.03717,-0.574,-0.29102,0.21619,5,2U1D,1.0,True,0.491,2,True,left,0.0,0.0007497998885810375,2.042748599778861,2.0419987998902798,0.20856319973245263,0.7088514999486506,0.500288300216198,
29,0.4989,1.2,2,0.24113,0.3326,0.71509,29,2.47786,0.374,0.18293,0.69014,5,1D1U,2.0,True,0.247,2,True,right,0.0,0.0007778001017868519,2.4806583002209663,2.4798805001191795,0.23074690019711852,0.732162700034678,0.5014157998375595,
30,0.4989,0.1,1,0.25776,0.24945,0.71509,30,1.77109,-0.9,-0.44901,0.04989,5,lapse_rate,2.0,True,0.114,0,False,right,0.0,0.0007642996497452259,1.7811787999235094,1.7804145002737641,1.0152960000559688,1.5155521002598107,0.5002561002038419,
31,0.4989,0.1,1,0.34923,0.20787,0.74835,31,2.2783,-0.05,-0.02494,0.47395,5,1U1D,1.0,False,0.564,0,False,left,0.0,0.0007335999980568886,2.2734042000956833,2.2726706000976264,1.5647873999550939,2.0652141999453306,0.5004267999902368,
32,0.4989,1.2,1,0.26608,0.38249,0.59868,32,2.53607,0.574,0.29102,0.78992,5,2D1U,2.0,False,0.56,2,True,right,0.0,0.0007267999462783337,2.540205500088632,2.5394787001423538,1.6493579000234604,2.148481999989599,0.4991240999661386,
33,0.4989,0.1,1,0.29934,0.43238,0.6652,33,2.12864,-0.538,-0.26608,0.23282,5,2U1D,2.0,True,0.485,2,False,right,0.0,0.0007340000011026859,2.131392499897629,2.1306584998965263,1.189913499634713,1.6897568996064365,0.49984339997172356,
34,0.4989,1.2,1,0.34923,0.29934,0.65688,34,1.85424,-0.9,-0.44901,0.04989,5,lapse_rate,2.0,True,0.176,0,False,right,0.0,0.0007771002128720284,1.854914200026542,1.85413709981367,1.055018600076437,1.555067399982363,0.500048799905926,
35,0.4989,1.2,1,0.3908,0.3908,0.77329,35,2.71899,0.338,0.1663,0.6652,5,1D1U,1.0,True,0.233,2,False,left,0.0,0.00078629981726408,2.7214966998435557,2.7207104000262916,1.830419400241226,2.3304925998672843,0.5000731996260583,
36,0.4989,0.1,1,0.37417,0.37417,0.5571,36,2.03716,-0.538,-0.26608,0.23282,5,2U1D,2.0,True,0.15,2,False,right,0.0,0.0004829997196793556,2.04010450001806,2.039621500298381,1.1578811998479068,1.6564676999114454,0.49858650006353855,
37,0.4989,1.2,1,0.26608,0.42406,0.7234,37,2.36145,-0.11,-0.0582,0.44901,5,1U1D,2.0,True,0.128,1,True,right,0.0,0.000744400080293417,2.3642321000806987,2.3634877000004053,1.4308520997874439,1.930498699657619,0.4996465998701751,
38,0.4989,0.1,1,0.27439,0.30765,0.62362,38,2.35313,0.302,0.14967,0.64857,5,1D1U,2.0,False,0.299,2,False,right,0.0,0.0007543000392615795,2.363629300147295,2.3628750001080334,1.5401507001370192,2.039676900021732,0.4995261998847127,
39,0.4989,1.2,1,0.39912,0.36586,0.51553,39,2.58596,0.61,0.30765,0.80655,5,2D1U,2.0,False,0.157,3,True,right,0.0,0.0008129999041557312,2.5985429999418557,2.5977300000377,1.7147055002860725,2.2154014999978244,0.5006959997117519,
40,0.4989,1.2,2,0.36586,0.44069,0.42406,40,1.7794,-0.9,-0.44901,0.04989,5,lapse_rate,1.0,True,0.237,0,False,left,0.0,0.00039010029286146164,1.7824071999639273,1.7820170996710658,0.35706100007519126,0.8567380998283625,0.4996770997531712,
41,0.4989,0.1,2,0.3908,0.43238,0.88139,41,2.45292,-0.502,-0.24945,0.24945,5,2U1D,1.0,True,0.261,2,False,left,0.0,0.000627799890935421,2.4565917002037168,2.4559639003127813,0.3817865001037717,0.8819099003449082,0.5001234002411366,
42,0.4989,0.1,2,0.25776,0.34091,0.76498,42,1.91244,-0.9,-0.44901,0.04989,5,lapse_rate,1.0,True,0.258,0,False,left,0.0,0.0007788003422319889,1.9244180000387132,1.9236391996964812,0.24871159996837378,0.7492030998691916,0.5004914999008179,
43,0.4989,1.2,2,0.29934,0.21619,0.54047,43,2.02054,-0.074,-0.03326,0.46564,5,1U1D,2.0,False,0.249,2,True,right,0.0,0.0008152998052537441,2.0330242002382874,2.0322089004330337,0.2912070001475513,0.7914340002462268,0.5002270000986755,
44,0.4989,0.1,2,0.19956,0.44069,0.82318,44,2.78551,0.646,0.32428,0.82318,5,2D1U,2.0,True,0.224,3,False,right,0.0,0.0008942997083067894,2.791944900061935,2.7910506003536284,0.19210619991645217,0.6918989000841975,0.49979270016774535,
45,0.4989,1.2,2,0.3908,0.2245,0.57373,45,2.35313,0.338,0.1663,0.6652,5,1D1U,2.0,True,0.297,3,True,right,0.0,0.0007576998323202133,2.3581444998271763,2.357386799994856,0.3820469998754561,0.8828896000050008,0.5008426001295447,
46,0.4989,0.1,2,0.24113,0.37417,0.49058,46,2.05379,-0.11,-0.0582,0.44901,5,1U1D,1.0,True,0.358,3,True,left,0.0,0.0007601003162562847,2.0647705998271704,2.064010499510914,0.2310913000255823,0.7308945995755494,0.49980329954996705,
47,0.4989,1.2,2,0.20787,0.2245,0.44901,47,2.20346,0.646,0.32428,0.82318,5,2D1U,2.0,True,0.232,3,False,right,0.0,0.0007405001670122147,2.213752099778503,2.213011599611491,0.19701489992439747,0.6979863997548819,0.5009714998304844,
48,0.4989,1.2,2,0.34091,0.24945,0.78992,48,1.92907,-0.9,-0.44901,0.04989,5,lapse_rate,1.0,True,0.412,0,False,left,0.0,0.0007418002933263779,1.9319200003519654,1.931178200058639,0.33220320008695126,0.8316978001967072,0.499494600109756,
49,0.4989,0.1,2,0.26608,0.28271,0.48227,49,1.77941,-0.502,-0.24945,0.24945,5,2U1D,2.0,False,0.539,2,False,right,0.0,0.00026880018413066864,1.7812043000012636,1.780935499817133,0.25637179985642433,0.756400499958545,0.5000287001021206,
50,0.4989,1.2,1,0.24945,0.31597,0.49058,50,2.20347,0.302,0.14967,0.64857,5,1D1U,2.0,False,0.115,4,True,right,0.0,0.000822099857032299,2.214532000012696,2.2137099001556635,1.3808064996264875,1.8807286000810564,0.49992210045456886,
51,0.4989,0.1,1,0.34091,0.26608,0.42406,51,1.76277,-0.538,-0.26608,0.23282,5,2U1D,2.0,True,0.473,3,True,right,0.0,0.0007500997744500637,1.7740491000004113,1.7732990002259612,0.9900241997092962,1.490620699711144,0.5005965000018477,
52,0.4989,1.2,1,0.36586,0.34923,0.70677,52,2.72731,0.61,0.30765,0.80655,5,2D1U,2.0,False,0.108,4,True,right,0.0,0.000744599848985672,2.7313174000009894,2.7305728001520038,1.8738543996587396,2.373814799822867,0.49996040016412735,
53,0.4989,0.1,1,0.23282,0.43238,0.81487,53,2.64417,0.338,0.1663,0.6652,5,1D1U,2.0,False,0.225,5,True,right,0.0,0.0007254998199641705,2.648083300329745,2.6473578005097806,1.7069178000092506,2.206649800296873,0.4997320002876222,
54,0.4989,1.2,1,0.44069,0.27439,0.77329,54,2.45291,-0.074,-0.03326,0.46564,5,1U1D,2.0,True,0.232,4,True,right,0.0,0.0007175002247095108,2.4574027000926435,2.456685199867934,1.673687200061977,2.1735803997144103,0.4998931996524334,
55,0.4989,0.1,1,0.25776,0.44069,0.57373,55,2.71899,0.9,0.44901,0.94791,5,lapse_rate,2.0,False,0.154,0,False,right,0.0,0.00046289991587400436,2.7151089999824762,2.7146461000666022,1.7729531996883452,2.273184400051832,0.500231200363487,
56,0.4989,0.1,1,0.42406,0.3908,0.79824,56,2.59427,-0.038,-0.01663,0.48227,5,1U1D,2.0,True,0.136,4,False,right,0.0,0.0005572997033596039,2.5970674003474414,2.596510100644082,1.6966244000941515,2.196822199970484,0.5001977998763323,
57,0.4989,1.2,1,0.31597,0.35754,0.78992,57,2.78551,0.646,0.32428,0.82318,5,2D1U,2.0,False,0.226,5,True,right,0.0,0.0007891999557614326,2.7819882999174297,2.7811990999616683,1.923171500209719,2.4250336000695825,0.5018620998598635,
58,0.4989,0.1,1,0.32428,0.25776,0.78992,58,2.561,0.374,0.18293,0.69014,5,1D1U,2.0,False,0.233,5,False,right,0.0,0.0007366002537310123,2.565414199605584,2.564677599351853,1.7990504996851087,2.2983597996644676,0.4993092999793589,
59,0.4989,1.2,1,0.41575,0.34091,0.79824,59,2.10369,-0.9,-0.44901,0.04989,5,lapse_rate,1.0,False,0.458,0,False,left,0.0,0.0002828999422490597,2.116830099839717,2.116547199897468,1.258089100010693,1.7586762001737952,0.5005871001631021,
60,0.4989,1.2,2,0.3908,0.40743,0.83981,60,2.36976,-0.538,-0.26608,0.23282,5,2U1D,1.0,True,0.992,3,True,left,0.0,0.000761799979954958,2.380011399742216,2.379249599762261,0.38951539993286133,0.8896745997481048,0.5001591998152435,
61,0.4989,0.1,2,0.2245,0.41575,0.4989,61,2.13695,-0.002,0.0,0.4989,5,1U1D,2.0,False,0.262,4,False,right,0.0,0.0007552998140454292,2.1414418001659214,2.140686500351876,0.21729950001463294,0.7159808999858797,0.4986813999712467,
62,0.4989,1.2,2,0.24945,0.21619,0.63194,62,2.30325,0.41,0.20787,0.70677,5,1D1U,2.0,True,0.231,5,False,right,0.0,0.0007592998445034027,2.315550500061363,2.3147912002168596,0.24089440004900098,0.7408472001552582,0.4999528001062572,
63,0.4989,0.1,2,0.21619,0.21619,0.86476,63,2.74395,0.9,0.44901,0.94791,5,lapse_rate,2.0,True,0.169,0,False,right,0.0,0.0004036002792418003,2.747830499894917,2.747426899615675,0.20643219957128167,0.7060268996283412,0.4995947000570595,
64,0.4989,0.1,2,0.44069,0.25776,0.51553,64,1.96233,-0.502,-0.24945,0.24945,5,2U1D,1.0,True,0.284,4,True,left,0.0,0.0008148001506924629,1.972757099661976,1.9719422995112836,0.4310750998556614,0.9302241997793317,0.4991490999236703,
65,0.4989,1.2,2,0.25776,0.31597,0.83981,65,2.75225,0.682,0.34091,0.83981,5,2D1U,2.0,True,0.254,5,False,right,0.0,0.0007373001426458359,2.757554499898106,2.75681719975546,0.24891520012170076,0.7492758999578655,0.5003606998361647,
66,0.4989,0.1,2,0.24113,0.44069,0.59036,66,2.46122,0.374,0.18293,0.69014,5,1D1U,2.0,True,0.772,6,True,right,0.0,0.0002752002328634262,2.4658349002711475,2.465559700038284,0.2328236000612378,0.7323904000222683,0.4995667999610305,
67,0.4989,1.2,2,0.21619,0.27439,0.40743,67,1.64636,-0.502,-0.24945,0.24945,5,2U1D,1.0,True,0.45,4,True,left,0.0,0.0008040997199714184,1.6476969998329878,1.6468929001130164,0.2140811998397112,0.7141315997578204,0.5000503999181092,
68,0.4989,1.2,2,0.20787,0.39912,0.53216,68,2.58596,0.9,0.44901,0.94791,5,lapse_rate,2.0,True,0.263,0,False,right,0.0,0.0007699001580476761,2.589905499946326,2.5891355997882783,0.19878849992528558,0.6982801002450287,0.49949160031974316,
69,0.4989,0.1,2,0.25776,0.41575,0.85644,69,2.86866,0.682,0.34091,0.83981,5,2D1U,2.0,True,0.272,5,False,right,0.0,0.0004802001640200615,2.8648818996734917,2.8644016995094717,0.24847029987722635,0.7483110995963216,0.49984079971909523,
70,0.4989,1.2,1,0.42406,0.29102,0.61531,70,2.31156,-0.038,-0.01663,0.48227,5,1U1D,2.0,True,0.141,5,True,right,0.0,0.0006400998681783676,2.3244918999262154,2.323851800058037,1.5160977002233267,2.0160790998488665,0.4999813996255398,
71,0.4989,0.1,1,0.42406,0.25776,0.8315,71,2.51112,-0.002,0.0,0.4989,5,1U1D,2.0,False,0.259,6,True,right,0.0,0.0007396996952593327,2.5238409000448883,2.523101200349629,1.7493111002258956,2.249656700063497,0.5003455998376012,
72,0.4989,0.1,1,0.37417,0.21619,0.59868,72,2.63585,0.9,0.44901,0.94791,5,lapse_rate,1.0,True,0.183,0,False,left,0.0,0.0007416000589728355,2.6392558999359608,2.638514299876988,1.9156216997653246,2.414615099783987,0.4989934000186622,
73,0.4989,1.2,1,0.2245,0.24113,0.65688,73,2.44459,0.646,0.32428,0.82318,5,2D1U,1.0,True,0.341,6,True,left,0.0,0.0007446999661624432,2.4492591000162065,2.448514400050044,1.6996824000962079,2.1991516002453864,0.4994692001491785,
74,0.4989,0.1,1,0.27439,0.44901,0.50721,74,1.99559,-0.466,-0.23282,0.26608,5,2U1D,2.0,True,0.184,4,False,right,0.0,0.0007293997332453728,1.9984543002210557,1.9977249004878104,1.0402589002624154,1.540422399993986,0.5001634997315705,
75,0.4989,1.2,1,0.35754,0.3326,0.87307,75,2.72731,0.338,0.1663,0.6652,5,1D1U,1.0,True,0.256,6,False,left,0.0,0.0006665000692009926,2.7232817001640797,2.7226152000948787,1.8900138000026345,2.389940599910915,0.4999267999082804,
76,0.4989,0.1,1,0.42406,0.38249,0.61531,76,2.40303,-0.038,-0.01663,0.48227,5,1U1D,2.0,True,1.395,7,True,right,0.0,0.0007412000559270382,2.4069783999584615,2.4062371999025345,1.5160572999157012,2.0152516001835465,0.4991943002678454,
77,0.4989,1.2,1,0.21619,0.3908,0.79824,77,2.5527,0.302,0.14967,0.64857,5,1D1U,2.0,False,0.47,6,False,right,0.0,0.0007362999022006989,2.5559916999191046,2.555255400016904,1.6637059999629855,2.1641283999197185,0.500422399956733,
78,0.4989,0.1,1,0.34091,0.29934,0.46564,78,1.87087,-0.466,-0.23282,0.26608,5,2U1D,2.0,True,0.115,4,False,right,0.0,0.0002608001232147217,1.8829226000234485,1.8826617999002337,1.0647530001588166,1.5653046001680195,0.500551600009203,
79,0.4989,1.2,1,0.23282,0.2245,0.73172,79,2.51112,0.646,0.32428,0.82318,5,2D1U,1.0,True,0.266,6,True,left,0.0,0.00026720017194747925,2.514972500037402,2.5147052998654544,1.7817604001611471,2.2816536999307573,0.49989329976961017,
80,0.4989,0.1,2,0.30765,0.44069,0.4989,80,1.79603,-0.9,-0.44901,0.04989,5,lapse_rate,1.0,True,0.255,0,False,left,0.0,0.0005382001399993896,1.8058818001300097,1.8053435999900103,0.2976318998262286,0.7986385999247432,0.5010067000985146,
81,0.4989,0.1,2,0.25776,0.43238,0.88139,81,2.12032,-0.9,-0.44901,0.04989,5,lapse_rate,1.0,True,0.283,0,False,left,0.0,0.0003359997645020485,2.131575200241059,2.131239200476557,0.24880800023674965,0.7486469000577927,0.499838899821043,
82,0.4989,0.1,2,0.36586,0.26608,0.43238,82,2.22842,0.338,0.1663,0.6652,5,1D1U,2.0,True,0.218,7,True,right,0.0,0.0006661997176706791,2.2316103000193834,2.2309441003017128,0.35639770003035665,0.8562310999259353,0.4998333998955786,
83,0.4989,1.2,2,0.34091,0.34091,0.69846,83,2.68573,0.61,0.30765,0.80655,5,2D1U,2.0,True,0.37,6,False,right,0.0,0.0007465998642146587,2.689698399975896,2.6889518001116812,0.3315298999659717,0.8312930003739893,0.49976310040801764,
84,0.4989,0.1,2,0.28271,0.27439,0.78992,84,2.12863,-0.43,-0.21619,0.28271,5,2U1D,1.0,True,0.754,4,False,left,0.0,0.0007559000514447689,2.1251604999415576,2.124404599890113,0.27494260016828775,0.7746631000190973,0.4997204998508096,
85,0.4989,1.2,2,0.35754,0.43238,0.85644,85,2.64416,-0.002,0.0,0.4989,5,1U1D,2.0,False,0.25,8,True,right,0.0,0.0007858998142182827,2.6573823001235723,2.656596400309354,0.3489117003045976,0.8500955002382398,0.5011837999336421,
86,0.4989,1.2,2,0.27439,0.35754,0.79824,86,2.87698,0.9,0.44901,0.94791,5,lapse_rate,2.0,True,0.26,0,False,right,0.0,0.0007554995827376842,2.8800607002340257,2.879305200651288,0.27199900010600686,0.7712751002982259,0.499276100192219,
87,0.4989,0.1,2,0.42406,0.34923,0.87307,87,2.95181,0.61,0.30765,0.80655,5,2D1U,2.0,True,0.222,6,False,right,0.0,0.0006869002245366573,2.956689199898392,2.9560022996738553,0.41475770017132163,0.9142273003235459,0.4994696001522243,
88,0.4989,1.2,2,0.43238,0.44069,0.39912,88,2.25336,-0.038,-0.01663,0.48227,5,1U1D,2.0,False,0.219,9,True,right,0.0,0.0007637003436684608,2.258581400383264,2.2578177000395954,0.42428839998319745,0.9236777001060545,0.4993893001228571,
89,0.4989,0.1,2,0.3326,0.37417,0.56542,89,2.41966,0.302,0.14967,0.64857,5,1D1U,2.0,True,0.259,8,True,right,0.0,0.0007626996375620365,2.423970100004226,2.423207400366664,0.3240072000771761,0.8236843002960086,0.4996771002188325,
90,0.4989,1.2,1,0.28271,0.37417,0.80655,90,2.24504,-0.43,-0.21619,0.28271,5,2U1D,2.0,True,0.674,4,False,right,0.0,0.00026689982041716576,2.247809300199151,2.247542400378734,1.3648450998589396,1.864517199806869,0.4996720999479294,
91,0.4989,0.1,1,0.24945,0.36586,0.7234,91,2.30325,-0.074,-0.03326,0.46564,5,1U1D,2.0,True,0.198,9,False,right,0.0,0.0014117998071014881,2.3076845998875797,2.306272800080478,1.4336893996223807,1.9335476998239756,0.49985830020159483,
92,0.4989,1.2,1,0.26608,0.25776,0.43238,92,1.75446,-0.394,-0.19956,0.29934,5,2U1D,2.0,True,0.113,4,False,right,0.0,0.0007230001501739025,1.7662320998497307,1.7655090996995568,0.9905878999270499,1.4911120999604464,0.5005242000333965,
93,0.4989,1.2,1,0.36586,0.44901,0.39912,93,2.6608,0.9,0.44901,0.94791,5,lapse_rate,1.0,True,0.172,0,False,left,0.0,0.0007182001136243343,2.666241499595344,2.6655232994817197,1.7077230997383595,2.2082883999682963,0.5005653002299368,
94,0.4989,0.1,1,0.36586,0.25776,0.7234,94,2.63584,0.574,0.29102,0.78992,5,2D1U,1.0,True,0.383,6,False,left,0.0,0.0007501998916268349,2.640766999684274,2.6400167997926474,1.8742263996973634,2.3735245997086167,0.49929820001125336,
95,0.4989,1.2,1,0.39912,0.42406,0.62362,95,2.57764,0.266,0.13304,0.63194,5,1D1U,1.0,True,0.199,8,False,left,0.0,0.0007433001883327961,2.580200199969113,2.57945689978078,1.6473122001625597,2.1474109003320336,0.5000987001694739,
96,0.4989,0.1,1,0.26608,0.24945,0.83981,96,2.15358,-0.394,-0.19956,0.29934,5,2U1D,2.0,True,0.274,4,False,right,0.0,0.00026030000299215317,2.1571337999776006,2.1568734999746084,1.3986871000379324,1.8986730999313295,0.4999859998933971,
97,0.4989,0.1,1,0.24945,0.21619,0.45732,97,2.36977,0.9,0.44901,0.94791,5,lapse_rate,2.0,False,0.259,0,False,right,0.0,0.000781400129199028,2.3825440001673996,2.3817626000382006,1.6490482003428042,2.149126900359988,0.500078700017184,
98,0.4989,1.2,1,0.40743,0.37417,0.70677,98,2.46954,-0.038,-0.01663,0.48227,5,1U1D,1.0,False,0.339,10,True,left,0.0,0.00041690003126859665,2.4669503001496196,2.466533400118351,1.591850799974054,2.0918840002268553,0.5000332002528012,
99,0.4989,0.1,1,0.26608,0.3326,0.78992,99,2.50281,0.23,0.11641,0.61531,5,1D1U,1.0,True,0.275,8,False,left,0.0,0.000741299707442522,2.5136206997558475,2.512879400048405,1.6720096999779344,2.1721128998324275,0.5001031998544931,
100,0.4989,1.2,2,0.34091,0.24945,0.65688,100,2.53606,0.574,0.29102,0.78992,5,2D1U,2.0,True,0.284,6,False,right,0.0,0.0007354998961091042,2.5333765000104904,2.5326410001143813,0.33325539994984865,0.8329092999920249,0.49965390004217625,
101,0.4989,1.2,2,0.42406,0.25776,0.59868,101,2.72731,0.9,0.44901,0.94791,5,lapse_rate,2.0,True,0.265,0,False,right,0.0,0.0007844003848731518,2.723727900069207,2.722943499684334,0.4154500002041459,0.9152367003262043,0.4997867001220584,
102,0.4989,0.1,2,0.37417,0.39912,0.85644,102,2.59427,-0.074,-0.03326,0.46564,5,1U1D,2.0,False,0.25,11,True,right,0.0,0.0007913997396826744,2.6062070997431874,2.6054157000035048,0.3645854997448623,0.8644236996769905,0.4998381999321282,
103,0.4989,1.2,2,0.2245,0.25776,0.62362,103,2.20346,0.194,0.09978,0.59868,5,1D1U,2.0,True,0.219,8,False,right,0.0,0.0006536999717354774,2.2057560002431273,2.205102300271392,0.21469639986753464,0.714538199827075,0.49984179995954037,
104,0.4989,0.1,2,0.3326,0.29934,0.52384,104,1.97896,-0.358,-0.18293,0.32428,5,2U1D,1.0,True,0.377,4,False,left,0.0,0.0007319999858736992,1.9827410001307726,1.982009000144899,0.3246880997903645,0.8243550998158753,0.4996670000255108,
105,0.4989,1.2,2,0.30765,0.32428,0.44901,105,2.34482,0.538,0.26608,0.76498,5,2D1U,2.0,True,0.243,6,False,right,0.0,0.0006114998832345009,2.3482186999171972,2.3476072000339627,0.2981201000511646,0.7984822997823358,0.5003621997311711,
106,0.4989,0.1,2,0.36586,0.23282,0.58205,106,2.62754,0.9,0.44901,0.94791,5,lapse_rate,2.0,True,0.189,0,False,right,0.0,0.00027299998328089714,2.6230000001378357,2.622727000154555,0.3565250998362899,0.8565318998880684,0.5000068000517786,
107,0.4989,0.1,2,0.44069,0.24945,0.8897,107,2.66079,0.158,0.08315,0.58205,5,1D1U,2.0,True,0.292,8,False,right,0.0,0.0002667997032403946,2.664386300370097,2.6641195006668568,0.43060300033539534,0.931479100137949,0.5008760998025537,
108,0.4989,1.2,2,0.3908,0.29102,0.87307,108,2.37807,-0.358,-0.18293,0.32428,5,2U1D,1.0,True,0.406,4,False,left,0.0,0.0007429998368024826,2.3801638996228576,2.379420899786055,0.38014089968055487,0.8802899997681379,0.5001491000875831,
109,0.4989,0.1,2,0.30765,0.3908,0.4989,109,2.14526,-0.11,-0.0582,0.44901,5,1U1D,2.0,False,0.352,11,False,right,0.0,0.00025720009580254555,2.148010900244117,2.1477537001483142,0.29886640002951026,0.7990578999742866,0.5001914999447763,
110,0.4989,1.2,1,0.43238,0.3908,0.86476,110,2.95182,0.538,0.26608,0.76498,5,2D1U,1.0,True,0.586,6,False,left,0.0,0.0007302998565137386,2.9589022998698056,2.958172000013292,2.056387299671769,2.548047899734229,0.4916606000624597,
111,0.4989,1.2,1,0.44069,0.21619,0.46564,111,2.56933,0.9,0.44901,0.94791,5,lapse_rate,2.0,False,0.322,0,False,right,0.0,0.0007881000638008118,2.5651233000680804,2.5643352000042796,1.8485512998886406,2.3490563998930156,0.500505100004375,
112,0.4989,0.1,1,0.19956,0.34923,0.44069,112,2.04548,0.122,0.0582,0.5571,5,1D1U,2.0,False,0.574,8,False,right,0.0,0.0006766999140381813,2.0579009000211954,2.0572242001071572,1.1899009002372622,1.689887400250882,0.49998650001361966,
113,0.4989,1.2,1,0.19956,0.20787,0.67351,113,2.32819,0.502,0.24945,0.74835,5,2D1U,1.0,True,0.275,6,False,left,0.0,0.00031659984961152077,2.323813700117171,2.3234971002675593,1.6152570000849664,2.1151149002835155,0.49985790019854903,
114,0.4989,0.1,1,0.24113,0.19956,0.41575,114,1.69625,-0.322,-0.15798,0.34091,5,2U1D,2.0,True,0.242,4,False,right,0.0,0.00030300021171569824,1.700573300011456,1.7002702997997403,0.9908703002147377,1.4910552999936044,0.5001849997788668,
115,0.4989,1.2,1,0.43238,0.39912,0.74835,115,2.50281,-0.146,-0.07483,0.42406,5,1U1D,1.0,False,0.13,11,False,left,0.0,0.0007553002797067165,2.5071740997955203,2.5064187995158136,1.5983692998997867,2.0983150000683963,0.4999457001686096,
116,0.4989,0.1,1,0.21619,0.43238,0.81487,116,2.71069,0.502,0.24945,0.74835,5,2D1U,1.0,True,0.233,6,False,left,0.0,0.0007393998093903065,2.724136000033468,2.7233966002240777,1.7739708996377885,2.273601499851793,0.4996306002140045,
117,0.4989,1.2,1,0.23282,0.41575,0.78161,117,2.87699,0.9,0.44901,0.94791,5,lapse_rate,1.0,True,0.476,0,False,left,0.0,0.0007388000376522541,2.882340599782765,2.8816017997451127,1.957580499816686,2.457501699682325,0.4999211998656392,
118,0.4989,1.2,1,0.23282,0.42406,0.65688,118,2.39471,0.158,0.08315,0.58205,5,1D1U,1.0,True,0.344,9,True,left,0.0,0.0007394999265670776,2.3994861003011465,2.3987466003745794,1.4667408000677824,1.9658329002559185,0.4990921001881361,
119,0.4989,0.1,1,0.3326,0.43238,0.41575,119,2.02054,-0.322,-0.15798,0.34091,5,2U1D,2.0,True,0.231,4,False,right,0.0,0.0007399003952741623,2.0305743999779224,2.0298344995826483,1.0809084000065923,1.5813421998172998,0.5004337998107076,
120,0.4989,1.2,2,0.20787,0.40743,0.61531,120,2.13694,-0.182,-0.09146,0.40743,5,1U1D,2.0,False,0.28,11,False,right,0.0,0.0004418003372848034,2.140057200100273,2.139615399762988,0.19857680005952716,0.6983977002091706,0.4998209001496434,
121,0.4989,0.1,2,0.28271,0.24113,0.79824,121,1.87087,-0.9,-0.44901,0.04989,5,lapse_rate,1.0,True,0.417,0,False,left,0.0,0.000838099978864193,1.8817068999633193,1.880868799984455,0.2727795001119375,0.7727924003265798,0.5000129002146423,
122,0.4989,0.1,2,0.38249,0.28271,0.62362,122,2.51944,0.466,0.23282,0.73172,5,2D1U,2.0,True,0.182,6,False,right,0.0,0.00041110021993517876,2.5248053004033864,2.524394200183451,0.37457970017567277,0.8741545001976192,0.49957480002194643,
123,0.4989,1.2,2,0.25776,0.3908,0.7234,123,2.42796,0.122,0.0582,0.5571,5,1D1U,2.0,True,0.191,10,True,right,0.0,0.0007422999478876591,2.4324618000537157,2.431719500105828,0.24921440007165074,0.7491987003013492,0.4999843002296984,
124,0.4989,0.1,2,0.23282,0.24945,0.76498,124,2.10369,-0.286,-0.14135,0.35754,5,2U1D,1.0,True,0.305,4,False,left,0.0,0.0007338998839259148,2.107055999804288,2.1063220999203622,0.2307376000098884,0.7306278999894857,0.49989029997959733,
125,0.4989,1.2,2,0.44069,0.34091,0.59036,125,2.26166,-0.218,-0.10809,0.3908,5,1U1D,1.0,True,0.291,11,False,left,0.0,0.0008165999315679073,2.2657810002565384,2.2649644003249705,0.4326380002312362,0.932173800189048,0.49953579995781183,
126,0.4989,0.1,2,0.24113,0.43238,0.85644,126,2.43628,-0.182,-0.09146,0.40743,5,1U1D,1.0,True,0.75,12,True,left,0.0,0.0007436000742018223,2.4408016996458173,2.4400580995716155,0.2318455995991826,0.7320939996279776,0.500248400028795,
127,0.4989,1.2,2,0.34923,0.21619,0.51553,127,1.93739,-0.286,-0.14135,0.35754,5,2U1D,2.0,False,0.369,4,False,right,0.0,0.0007310002110898495,1.941223599947989,1.9404925997368991,0.3419876997359097,0.8406378999352455,0.4986502001993358,
128,0.4989,0.1,2,0.31597,0.34923,0.69846,128,2.59428,0.466,0.23282,0.73172,5,2D1U,2.0,True,0.237,6,False,right,0.0,0.0007567000575363636,2.5981574999168515,2.597400799859315,0.3063956997357309,0.8065105997957289,0.500114900059998,
129,0.4989,1.2,2,0.2245,0.2245,0.63194,129,2.12031,0.086,0.04157,0.54047,5,1D1U,2.0,True,0.282,10,False,right,0.0,0.0013302997685968876,2.12418320029974,2.122852900531143,0.2157393000088632,0.7185583002865314,0.5028190002776682,
130,0.4989,1.2,1,0.41575,0.3326,0.48227,130,2.67743,0.9,0.44901,0.94791,5,lapse_rate,1.0,True,0.115,0,False,left,0.0,0.0007029999978840351,2.681367199867964,2.6806641998700798,1.8398616998456419,2.3406374002806842,0.5007757004350424,
131,0.4989,0.1,1,0.34923,0.41575,0.6652,131,2.26999,-0.322,-0.15798,0.34091,5,2U1D,2.0,True,0.359,5,True,right,0.0,0.0007457002066075802,2.281965999864042,2.2812202996574342,1.348690299782902,1.848768400028348,0.500078100245446,
132,0.4989,1.2,1,0.31597,0.29934,0.81487,132,1.97897,-0.9,-0.44901,0.04989,5,lapse_rate,2.0,True,0.279,0,False,right,0.0,0.0007424997165799141,1.9744990998879075,1.9737566001713276,1.1747411997057498,1.6740644997917116,0.4993233000859618,
133,0.4989,1.2,1,0.38249,0.43238,0.40743,133,2.24504,0.05,0.02494,0.52384,5,1D1U,1.0,True,0.383,10,False,left,0.0,0.0009252000600099564,2.2492649001069367,2.2483397000469267,1.3078963002189994,1.8081406001001596,0.5002442998811603,
134,0.4989,0.1,1,0.44069,0.20787,0.62362,134,2.48617,0.43,0.21619,0.71509,5,2D1U,1.0,True,0.379,6,False,left,0.0,0.0007360996678471565,2.4898230000399053,2.489086900372058,1.77328580012545,2.273555099964142,0.500269299838692,
135,0.4989,1.2,1,0.3908,0.34923,0.84813,135,2.51112,-0.146,-0.07483,0.42406,5,1U1D,1.0,False,0.317,12,False,left,0.0,0.0007159998640418053,2.5246223998256028,2.523906399961561,1.660024099983275,2.158387000206858,0.498362900223583,
136,0.4989,0.1,1,0.30765,0.21619,0.4989,136,2.46955,0.9,0.44901,0.94791,5,lapse_rate,1.0,True,0.34,0,False,left,0.0,0.0007348000071942806,2.4642853001132607,2.4635505001060665,1.7479062001220882,2.2476039002649486,0.4996977001428604,
137,0.4989,0.1,1,0.28271,0.21619,0.50721,137,2.2201,0.43,0.21619,0.71509,5,2D1U,1.0,True,0.274,6,False,left,0.0,0.0007338002324104309,2.232763500418514,2.2320297001861036,1.4995077000930905,1.9997981004416943,0.5002904003486037,
138,0.4989,1.2,1,0.34923,0.21619,0.88139,138,2.45292,0.014,0.00831,0.50721,5,1D1U,1.0,True,0.357,10,False,left,0.0,0.0008009998127818108,2.4673407999798656,2.4665398001670837,1.7325395001098514,2.2328612999990582,0.5003217998892069,
139,0.4989,0.1,1,0.24113,0.37417,0.78161,139,2.23672,-0.322,-0.15798,0.34091,5,2U1D,2.0,True,0.241,5,True,right,0.0,0.0006964998319745064,2.240248200017959,2.2395517001859844,1.3569344002753496,1.8575472002848983,0.5006128000095487,
140,0.4989,1.2,2,0.37417,0.29102,0.39912,140,1.97064,-0.182,-0.09146,0.40743,5,1U1D,1.0,True,0.517,13,True,left,0.0,0.0003122999332845211,1.982065699994564,1.9817534000612795,0.36613670038059354,0.8657920002005994,0.4996552998200059,
141,0.4989,0.1,2,0.29102,0.24945,0.88139,141,2.2783,-0.286,-0.14135,0.35754,5,2U1D,2.0,False,0.371,6,True,right,0.0,0.0008375998586416245,2.281590700149536,2.2807531002908945,0.2883586003445089,0.7892869003117085,0.5009282999671996,
142,0,0,0,0,0,0,0,0,0,0,0,0,0,0,0,0,0,0,0,0,0,0,0,0,0,0,0
143,0.4989,1.2,2,0.29934,0.3908,0.68183,143,2.36145,-0.022,-0.00831,0.49058,5,1D1U,2.0,False,0.238,10,False,right,0.0,0.0007377001456916332,2.371713800355792,2.3709761002101004,0.296758099924773,0.7972663003019989,0.5005082003772259,
144,0.4989,0.1,2,0.37417,0.35754,0.4989,144,2.15357,-0.146,-0.07483,0.42406,5,1U1D,1.0,True,0.248,14,True,left,0.0,0.00036789989098906517,2.158444100059569,2.15807620016858,0.36656720004975796,0.8666191999800503,0.5000519999302924,
145,0.4989,1.2,2,0.35754,0.44069,0.68183,145,2.67742,0.394,0.19956,0.69846,5,2D1U,2.0,True,0.248,6,False,right,0.0,0.0007751001976430416,2.6818679999560118,2.6810928997583687,0.34834309993311763,0.8477545003406703,0.4994114004075527,
146,0.4989,0.1,2,0.34091,0.38249,0.6652,146,2.33651,-0.11,-0.0582,0.44901,5,1U1D,1.0,True,0.453,14,False,left,0.0,0.00048690009862184525,2.3397488999180496,2.3392619998194277,0.3309625997208059,0.8315658001229167,0.5006032004021108,
147,0.4989,1.2,2,0.27439,0.36586,0.40743,147,1.88749,-0.322,-0.15798,0.34091,5,2U1D,1.0,True,0.247,7,True,left,0.0,0.0007541999220848083,1.8812877996824682,1.8805335997603834,0.2642904999665916,0.7645042999647558,0.5002137999981642,
148,0.4989,0.1,2,0.20787,0.37417,0.69014,148,2.24503,-0.058,-0.02494,0.47395,5,1D1U,1.0,True,0.16,11,True,left,0.0,0.000725800171494484,2.249047599732876,2.2483217995613813,0.19946339959278703,0.6992629999294877,0.4997996003367007,
149,0.4989,1.2,2,0.29102,0.23282,0.77329,149,2.49449,0.394,0.19956,0.69846,5,2D1U,2.0,True,0.235,6,False,right,0.0,0.0002708001993596554,2.496560300234705,2.4962895000353456,0.28023070003837347,0.779477400239557,0.49924670020118356,
150,0.4989,0.1,1,0.37417,0.40743,0.59868,150,2.34482,-0.074,-0.03326,0.46564,5,1U1D,1.0,False,0.401,14,False,left,0.0,0.0007581999525427818,2.348066800273955,2.347308600321412,1.4304558001458645,1.9302022000774741,0.49974639993160963,
151,0.4989,1.2,1,0.24113,0.42406,0.82318,151,2.6691,0.358,0.18293,0.68183,5,2D1U,1.0,True,0.388,6,False,left,0.0,0.0009735999628901482,2.672777300234884,2.671803700271994,1.739803500007838,2.240441200323403,0.5006377003155649,
152,0.4989,0.1,1,0.30765,0.21619,0.84813,152,2.5527,0.358,0.18293,0.68183,5,2D1U,1.0,True,0.371,6,False,left,0.0,0.0007557999342679977,2.5578883001580834,2.5571325002238154,1.8310088999569416,2.3313160999678075,0.5003072000108659,
153,0.4989,1.2,1,0.38249,0.28271,0.81487,153,2.31988,-0.322,-0.15798,0.34091,5,2U1D,1.0,False,0.259,7,True,left,0.0,0.000772200059145689,2.330448599997908,2.329676399938762,1.5310630002059042,2.031452900264412,0.5003899000585079,
154,0.4989,0.1,1,0.43238,0.3326,0.59868,154,2.31157,-0.11,-0.0582,0.44901,5,1U1D,2.0,True,0.162,15,True,right,0.0,0.0006399997510015965,2.315642499830574,2.315002500079572,1.4739637998864055,1.9745048000477254,0.50054100016132,
155,0.4989,1.2,1,0.31597,0.44069,0.76498,155,2.51112,-0.022,-0.00831,0.49058,5,1D1U,1.0,False,0.567,12,True,left,0.0,0.0007286001928150654,2.522906499914825,2.52217789972201,1.565632099751383,2.0645376997999847,0.4989056000486016,
156,0.4989,0.1,1,0.32428,0.39912,0.49058,156,2.17852,-0.074,-0.03326,0.46564,5,1U1D,2.0,True,0.182,16,True,right,0.0,0.0007238998077809811,2.1749502001330256,2.1742263003252447,1.2743227002210915,1.7746627000160515,0.50033999979496,
157,0.4989,1.2,1,0.2245,0.43238,0.5571,157,2.19515,-0.038,-0.01663,0.48227,5,1U1D,2.0,True,0.273,16,False,right,0.0,0.0007468000985682011,2.1976092997938395,2.1968624996952713,1.2634296999312937,1.7643906995654106,0.5009609996341169,
158,0.4989,0.1,1,0.28271,0.28271,0.61531,158,2.00391,-0.358,-0.18293,0.32428,5,2U1D,2.0,True,0.341,7,False,right,0.0,0.0007321001030504704,2.0076560000889003,2.00692389998585,1.2160685998387635,1.7158205998130143,0.4997519999742508,
159,0.4989,1.2,1,0.34923,0.26608,0.44069,159,2.21178,0.322,0.15798,0.65688,5,2D1U,1.0,True,0.308,6,False,left,0.0,0.0007384996861219406,2.222939500119537,2.222201000433415,1.4393247999250889,1.9395659998990595,0.5002411999739707,
160,0.4989,0.1,2,0.19956,0.28271,0.87307,160,2.32819,-0.058,-0.02494,0.47395,5,1D1U,1.0,True,1.461,13,True,left,0.0,0.0007738000713288784,2.3326403996907175,2.3318665996193886,0.19093479961156845,0.6911823996342719,0.5002476000227034,
161,0.4989,1.2,2,0.24945,0.24113,0.69014,161,2.1702,-0.022,-0.00831,0.49058,5,1D1U,2.0,False,0.314,14,True,right,0.0,0.0007470999844372272,2.173952800221741,2.173205700237304,0.24134090030565858,0.7416018000803888,0.5002608997747302,
162,0.4989,0.1,2,0.29934,0.34923,0.79824,162,2.41966,-0.058,-0.02494,0.47395,5,1D1U,2.0,False,0.635,15,True,right,0.0,0.0007493002340197563,2.4259386002086103,2.4251892999745905,0.2928226999938488,0.7930905004031956,0.5002678004093468,
163,0.4989,1.2,2,0.29102,0.26608,0.60699,163,2.16189,-0.002,0.0,0.4989,5,1U1D,2.0,False,0.351,16,False,right,0.0,0.0007582996040582657,2.1725832000374794,2.171824900433421,0.28096310002729297,0.7815534002147615,0.5005903001874685,
164,0.4989,0.1,2,0.29934,0.21619,0.40743,164,1.74614,-0.358,-0.18293,0.32428,5,2U1D,1.0,True,0.349,7,False,left,0.0,0.0007477998733520508,1.7489537000656128,1.7482059001922607,0.2912721000611782,0.7910775998607278,0.4998054997995496,
165,0.4989,1.2,2,0.42406,0.2245,0.57373,165,2.37807,0.322,0.15798,0.65688,5,2D1U,2.0,True,0.538,6,False,right,0.0,0.0007287999615073204,2.381690800189972,2.3809620002284646,0.4155039000324905,0.9151176000013947,0.49961369996890426,
166,0.4989,0.1,2,0.28271,0.35754,0.78161,166,2.36977,-0.094,-0.04989,0.44901,5,1D1U,1.0,True,0.25,15,False,left,0.0,0.0007317997515201569,2.3813432999886572,2.380611500237137,0.27279660012573004,0.77259729988873,0.499800699763,
167,0.4989,1.2,2,0.31597,0.2245,0.60699,167,2.28661,0.286,0.14135,0.64025,5,2D1U,2.0,True,0.375,6,False,right,0.0,0.0007322002202272415,2.290718900039792,2.289986699819565,0.3071618997491896,0.807222199626267,0.5000602998770773,
168,0.4989,0.1,2,0.35754,0.30765,0.56542,168,2.36976,0.286,0.14135,0.64025,5,2D1U,2.0,True,0.257,6,False,right,0.0,0.0007946002297103405,2.3827158003114164,2.381921200081706,0.34863700019195676,0.8486173003911972,0.49998030019924045,
169,0.4989,1.2,2,0.27439,0.29102,0.70677,169,2.11199,-0.322,-0.15798,0.34091,5,2U1D,1.0,True,0.563,8,True,left,0.0,0.0008522998541593552,2.1145866001024842,2.113734300248325,0.26464950013905764,0.7647615000605583,0.5001119999215007,
170,0.4989,0.1,1,0.34923,0.27439,0.54879,170,2.15358,-0.038,-0.01663,0.48227,5,1U1D,1.0,False,1.485,17,True,left,0.0,0.0007101995870471001,2.156529600266367,2.15581940067932,1.3734552003443241,1.8736201003193855,0.5001648999750614,
171,0.4989,1.2,1,0.32428,0.37417,0.78161,171,2.4446,-0.074,-0.03326,0.46564,5,1U1D,1.0,False,0.514,17,False,left,0.0,0.0012020999565720558,2.4483810998499393,2.4471789998933673,1.5656999996863306,2.0648391996510327,0.49913919996470213,
172,0.4989,0.1,1,0.39912,0.2245,0.69014,172,2.15357,-0.322,-0.15798,0.34091,5,2U1D,2.0,True,0.113,8,True,right,0.0,0.0007293997332453728,2.1640518000349402,2.163322400301695,1.4306508000008762,1.9304979001171887,0.4998471001163125,
173,0.4989,1.2,1,0.19956,0.24113,0.61531,173,2.17852,0.25,0.12472,0.62362,5,2D1U,1.0,True,0.988,6,False,left,0.0,0.0007262001745402813,2.1831773002631962,2.182451100088656,1.4340087003074586,1.9336803001351655,0.4996715998277068,
174,0.4989,0.1,1,0.34923,0.32428,0.59868,174,2.39471,0.25,0.12472,0.62362,5,2D1U,1.0,True,0.247,6,False,left,0.0,0.0007625999860465527,2.3977768002077937,2.397014200221747,1.5642236000858247,2.0638839001767337,0.499660300090909,
175,0.4989,1.2,1,0.37417,0.42406,0.48227,175,2.25335,-0.058,-0.02494,0.47395,5,1D1U,1.0,False,0.166,16,True,left,0.0,0.0007662996649742126,2.264613900333643,2.2638476006686687,1.32392490003258,1.8227756000123918,0.4988506999798119,
176,0.4989,0.1,1,0.23282,0.28271,0.81487,176,2.18684,-0.286,-0.14135,0.35754,5,2U1D,2.0,True,0.111,8,False,right,0.0,0.0007600001990795135,2.1829112004488707,2.182151200249791,1.3977778004482388,1.8975794003345072,0.4998015998862684,
177,0.4989,1.2,1,0.31597,0.43238,0.74835,177,2.44461,-0.11,-0.0582,0.44901,5,1U1D,1.0,False,0.282,17,False,left,0.0,0.000699599739164114,2.4490362000651658,2.4483366003260016,1.5072642001323402,2.0071262000128627,0.4998619998805225,
178,0.4989,0.1,1,0.20787,0.29102,0.83981,178,2.28661,-0.094,-0.04989,0.44901,5,1D1U,2.0,True,0.254,17,True,right,0.0,0.0007627001032233238,2.289777100086212,2.289014399982989,1.4900155998766422,1.98962019989267,0.4996046000160277,
179,0.4989,1.2,1,0.28271,0.2245,0.88139,179,2.49449,0.214,0.10809,0.60699,5,2D1U,1.0,True,0.266,6,False,left,0.0,0.0007231999188661575,2.499041900038719,2.498318700119853,1.7658247002400458,2.265821900218725,0.4999971999786794,
180,0.4989,0.1,2,0.38249,0.34923,0.53216,180,2.36977,0.214,0.10809,0.60699,5,2D1U,2.0,True,0.242,6,False,right,0.0,0.0007615997456014156,2.382342000026256,2.3815804002806544,0.37362479977309704,0.8743806001730263,0.5007558003999293,
181,0.4989,1.2,2,0.40743,0.23282,0.83981,181,2.40302,-0.146,-0.07483,0.42406,5,1U1D,2.0,False,0.308,17,False,right,0.0,0.0007474999874830246,2.4140201997943223,2.4132726998068392,0.40567569993436337,0.9056560997851193,0.49998039985075593,
182,0.4989,0.1,2,0.40743,0.28271,0.61531,182,2.39471,0.178,0.09146,0.59036,5,2D1U,2.0,True,0.251,6,False,right,0.0,0.0007414999417960644,2.3980033001862466,2.3972618002444506,0.39788819989189506,0.8981841001659632,0.5002959002740681,
183,0.4989,1.2,2,0.40743,0.3908,0.48227,183,2.13694,-0.286,-0.14135,0.35754,5,2U1D,2.0,False,0.326,8,False,right,0.0,0.0002536000683903694,2.140724199824035,2.140470599755645,0.3997050002217293,0.8997420999221504,0.5000370997004211,
184,0.4989,0.1,2,0.3908,0.29934,0.47395,184,2.13694,-0.058,-0.02494,0.47395,5,1D1U,1.0,True,0.341,18,True,left,0.0,0.0007492001168429852,2.1399361002258956,2.1391869001090527,0.38182170037180185,0.8814841001294553,0.4996623997576535,
185,0.4989,1.2,2,0.31597,0.20787,0.52384,185,1.95401,-0.182,-0.09146,0.40743,5,1U1D,1.0,True,0.422,17,False,left,0.0,0.0007293997332453728,1.957057099789381,1.9563277000561357,0.30710129998624325,0.8069398999214172,0.499838599935174,
186,0.4989,0.1,2,0.3326,0.40743,0.57373,186,2.30324,-0.022,-0.00831,0.49058,5,1D1U,2.0,False,0.238,18,False,right,0.0,0.000780399888753891,2.3053347999230027,2.304554400034249,0.32229229994118214,0.8220675997436047,0.4997752998024225,
187,0.4989,1.2,2,0.34091,0.43238,0.8315,187,2.4446,-0.322,-0.15798,0.34091,5,2U1D,1.0,True,0.332,9,True,left,0.0,0.0008980999700725079,2.4496423001401126,2.44874420017004,0.33363750018179417,0.8327172002755105,0.4990797000937164,
188,0.4989,0.1,2,0.29102,0.30765,0.43238,188,1.87086,-0.322,-0.15798,0.34091,5,2U1D,1.0,True,0.266,9,True,left,0.0,0.0007271002978086472,1.8819162002764642,1.8811890999786556,0.28145450027659535,0.7809903002344072,0.49953579995781183,
189,0.4989,1.2,2,0.34091,0.3908,0.88139,189,2.70236,0.178,0.09146,0.59036,5,2D1U,2.0,True,0.282,6,False,right,0.0,0.0007437998428940773,2.7151708002202213,2.714427000377327,0.33181559992954135,0.8319636001251638,0.5001480001956224,
190,0.4989,0.1,1,0.29102,0.40743,0.85644,190,2.47785,-0.146,-0.07483,0.42406,5,1U1D,2.0,True,0.636,18,True,right,0.0,0.0005427999421954155,2.481639700010419,2.4810969000682235,1.5648334003053606,2.0651750001125038,0.5003415998071432,
191,0.4989,1.2,1,0.3908,0.28271,0.75666,191,2.40302,-0.058,-0.02494,0.47395,5,1D1U,1.0,False,0.276,19,True,left,0.0,0.0015520998276770115,2.4067798000760376,2.4052277002483606,1.6158035001717508,2.1155423000454903,0.4997387998737395,
192,0.4989,0.1,1,0.30765,0.42406,0.59868,192,2.2783,-0.11,-0.0582,0.44901,5,1U1D,2.0,True,0.114,18,False,right,0.0,0.0006039002910256386,2.2737702997401357,2.27316639944911,1.349084499757737,1.8489456996321678,0.4998611998744309,
193,0.4989,1.2,1,0.3908,0.34091,0.49058,193,2.07873,-0.286,-0.14135,0.35754,5,2U1D,2.0,True,0.209,10,True,right,0.0,0.0007465998642146587,2.0806920998729765,2.079945500008762,1.2400432000868022,1.739072300028056,0.49902909994125366,
194,0.4989,0.1,1,0.29102,0.29102,0.77329,194,2.42796,0.142,0.07483,0.57373,5,2D1U,1.0,True,0.238,6,False,left,0.0,0.0007277997210621834,2.423902700189501,2.423174900468439,1.6320035001263022,2.1324048000387847,0.5004012999124825,
195,0.4989,1.2,1,0.29102,0.20787,0.62362,195,2.07042,-0.094,-0.04989,0.44901,5,1D1U,1.0,False,0.234,19,False,left,0.0,0.0007264995947480202,2.080560800153762,2.079834300559014,1.3631862998008728,1.86460700025782,0.5014207004569471,
196,0.4989,0.1,1,0.38249,0.26608,0.80655,196,2.3864,-0.13,-0.06652,0.43238,5,1D1U,2.0,True,0.277,19,False,right,0.0,0.0012079998850822449,2.3905666996724904,2.389358699787408,1.6155475997366011,2.1154122999869287,0.4998647002503276,
197,0.4989,1.2,1,0.40743,0.28271,0.77329,197,2.42797,-0.074,-0.03326,0.46564,5,1U1D,1.0,False,0.442,18,False,left,0.0,0.0005448004230856895,2.433410699944943,2.4328658995218575,1.6421920997090638,2.142074799630791,0.4998826999217272,
198,0.4989,0.1,1,0.42406,0.43238,0.51553,198,2.4446,0.142,0.07483,0.57373,5,2D1U,1.0,True,0.183,6,False,left,0.0,0.00035299966111779213,2.457274300046265,2.4569213003851473,1.506981000304222,2.006518400274217,0.499537399969995,
199,0.4989,1.2,1,0.19956,0.42406,0.39912,199,1.87918,-0.286,-0.14135,0.35754,5,2U1D,1.0,False,0.11,10,True,left,0.0,0.0007436000742018223,1.8726531001739204,1.8719095000997186,0.9474995997734368,1.4483058000914752,0.5008062003180385,
200,0.4989,0.1,2,0.34923,0.29102,0.50721,200,2.09537,-0.094,-0.04989,0.44901,5,1D1U,2.0,False,0.205,20,True,right,0.0,0.0007547000423073769,2.105335899628699,2.1045811995863914,0.33912199968472123,0.8402946996502578,0.5011726999655366,
201,0.4989,1.2,2,0.20787,0.3326,0.87307,201,2.46954,0.106,0.04989,0.5571,5,2D1U,2.0,True,0.25,6,False,right,0.0,0.0007149004377424717,2.471776799764484,2.4710618993267417,0.19705309998244047,0.6978052998892963,0.5007521999068558,
202,0.4989,0.1,2,0.35754,0.40743,0.73172,202,2.4446,-0.11,-0.0582,0.44901,5,1U1D,1.0,True,0.189,19,True,left,0.0,0.0007478999905288219,2.4492510999552906,2.4485031999647617,0.3497974001802504,0.8495446001179516,0.4997471999377012,
203,0.4989,1.2,2,0.35754,0.2245,0.77329,203,2.28661,-0.13,-0.06652,0.43238,5,1D1U,2.0,False,0.378,21,True,right,0.0,0.0007500001229345798,2.288981399964541,2.2882313998416066,0.34762190002948046,0.8476587999612093,0.5000368999317288,
204,0.4989,0.1,2,0.20787,0.29934,0.59868,204,2.02054,-0.166,-0.08315,0.41575,5,1D1U,2.0,False,0.251,21,False,right,0.0,0.00034559983760118484,2.0327287996187806,2.0323831997811794,0.19909229967743158,0.6989906998351216,0.49989840015769005,
205,0.4989,1.2,2,0.43238,0.2245,0.74003,205,2.23672,-0.322,-0.15798,0.34091,5,2U1D,1.0,True,0.373,11,True,left,0.0,0.0007933001033961773,2.239856299944222,2.239062999840826,0.42293509980663657,0.9232217995449901,0.5002866997383535,
206,0.4989,0.1,2,0.42406,0.27439,0.4989,206,2.03716,-0.322,-0.15798,0.34091,5,2U1D,1.0,True,0.33,11,True,left,0.0,0.0008304999209940434,2.0475698998197913,2.0467393998987973,0.4224053998477757,0.9226507996208966,0.5002453997731209,
207,0.4989,1.2,2,0.40743,0.26608,0.75666,207,2.28661,-0.286,-0.14135,0.35754,5,2U1D,1.0,True,0.386,12,True,left,0.0,0.0007481998763978481,2.290278200060129,2.2895300001837313,0.3986797998659313,0.8988600997254252,0.500180299859494,
208,0.4989,0.1,2,0.3326,0.28271,0.50721,208,2.02054,-0.202,-0.09978,0.39912,5,1D1U,1.0,True,0.35,21,False,left,0.0,0.0002707000821828842,2.032579599879682,2.032308899797499,0.32390209985896945,0.8237208998762071,0.49981880001723766,
209,0.4989,1.2,2,0.3326,0.29934,0.59868,209,2.19516,-0.074,-0.03326,0.46564,5,1U1D,2.0,False,0.424,20,True,right,0.0,0.0007555000483989716,2.2069719997234643,2.2062164996750653,0.3238164000213146,0.8241864996962249,0.5003700996749103,
210,0.4989,0.1,1,0.30765,0.28271,0.78161,210,2.42797,0.106,0.04989,0.5571,5,2D1U,1.0,True,0.212,6,False,left,0.0,0.0007643997669219971,2.4317617998458445,2.4309974000789225,1.6399860000237823,2.140984599944204,0.5009985999204218,
211,0.4989,1.2,1,0.30765,0.35754,0.57373,211,2.15357,-0.166,-0.08315,0.41575,5,1D1U,1.0,False,0.34,22,True,left,0.0,0.0007322998717427254,2.158147200010717,2.157414900138974,1.2916140002198517,1.7915380001068115,0.4999239998869598,
212,0.4989,0.1,1,0.42406,0.24945,0.50721,212,2.21178,0.07,0.03326,0.53216,5,2D1U,1.0,True,0.509,6,False,left,0.0,0.0005517001263797283,2.223932399880141,2.2233806997537613,1.4567243000492454,1.9576524002477527,0.5009281001985073,
213,0.4989,1.2,1,0.39912,0.37417,0.69846,213,2.50281,0.07,0.03326,0.53216,5,2D1U,1.0,True,0.231,6,False,left,0.0,0.0007418999448418617,2.514178100042045,2.5134362000972033,1.630834000185132,2.1309885000810027,0.5001544998958707,
214,0.4989,0.1,1,0.41575,0.29102,0.75666,214,2.31987,-0.286,-0.14135,0.35754,5,2U1D,2.0,True,0.115,12,True,right,0.0,0.0007163998670876026,2.332316200248897,2.3315998003818095,1.5237014000304043,2.0235701999627054,0.49986879993230104,
215,0.4989,1.2,1,0.32428,0.24945,0.39912,215,1.92076,-0.11,-0.0582,0.44901,5,1U1D,1.0,False,0.226,21,True,left,0.0,0.0009041996672749519,1.9324881001375616,1.9315839004702866,1.1655284999869764,1.6659389999695122,0.5004104999825358,
216,0.4989,0.1,1,0.2245,0.25776,0.49058,216,1.98727,0.034,0.01663,0.51553,5,2D1U,1.0,True,0.113,6,False,left,0.0,0.000725800171494484,1.9825754999183118,1.9818496997468174,1.2234602998942137,1.724229599814862,0.5007692999206483,
217,0.4989,1.2,1,0.31597,0.35754,0.74835,217,2.43629,0.034,0.01663,0.51553,5,2D1U,1.0,True,0.148,6,False,left,0.0,0.0007481998763978481,2.4387171999551356,2.4379690000787377,1.5805036001838744,2.0808151001110673,0.5003114999271929,
218,0.4989,0.1,1,0.3326,0.24113,0.87307,218,2.36976,-0.146,-0.07483,0.42406,5,1U1D,2.0,True,0.384,21,False,right,0.0,0.0007317997515201569,2.3810050999745727,2.3802733002230525,1.6234678998589516,2.124140600208193,0.5006727003492415,
219,0.4989,1.2,1,0.29102,0.40743,0.64025,219,2.21177,-0.25,-0.12472,0.37417,5,2U1D,1.0,False,0.202,12,False,left,0.0,0.0008494001813232899,2.2144859000109136,2.2136364998295903,1.2977951001375914,1.7978531001135707,0.5000579999759793,
220,0.4989,0.1,2,0.27439,0.29934,0.87307,220,2.34482,-0.202,-0.09978,0.39912,5,1D1U,1.0,True,0.296,23,True,left,0.0,0.0007694000378251076,2.348642300348729,2.347872900310904,0.2659354000352323,0.7655494003556669,0.49961400032043457,
221,0.4989,1.2,2,0.19956,0.24945,0.86476,221,2.31157,-0.002,0.0,0.4989,5,2D1U,2.0,False,0.292,6,False,right,0.0,0.0007751998491585255,2.3162894998677075,2.315514300018549,0.1911779996007681,0.6908995998091996,0.4997216002084315,
222,0.4989,0.1,2,0.23282,0.39912,0.48227,222,2.02886,-0.166,-0.08315,0.41575,5,1D1U,1.0,True,0.74,24,True,left,0.0,0.0007448000833392143,2.030999999959022,2.0302551998756826,0.2223604000173509,0.7232450000010431,0.5008845999836922,
223,0.4989,1.2,2,0.29102,0.29102,0.88139,223,2.31987,-0.286,-0.14135,0.35754,5,2U1D,2.0,False,0.308,13,True,right,0.0,0.0007489998824894428,2.3320037997327745,2.331254799850285,0.2902246997691691,0.790179600007832,0.49995490023866296,
224,0.4989,0.1,2,0.20787,0.26608,0.48227,224,1.90413,-0.11,-0.0582,0.44901,5,1U1D,1.0,True,0.362,22,True,left,0.0,0.0007311003282666206,1.906631600111723,1.9059004997834563,0.19763529999181628,0.6982003999873996,0.5005650999955833,
225,0.4989,1.2,2,0.3908,0.27439,0.8315,225,2.46123,-0.074,-0.03326,0.46564,5,1U1D,1.0,True,0.626,22,False,left,0.0,0.0007279003039002419,2.4743738998658955,2.4736459995619953,0.3830328001640737,0.8825447000563145,0.49951189989224076,
226,0.4989,0.1,2,0.24113,0.35754,0.54047,226,2.12031,-0.038,-0.01663,0.48227,5,1U1D,1.0,True,0.529,22,False,left,0.0,0.0007608002051711082,2.1241866000927985,2.1234257998876274,0.231795699801296,0.7330380999483168,0.5012424001470208,
227,0.4989,1.2,2,0.35754,0.28271,0.49058,227,1.97064,-0.322,-0.15798,0.34091,5,2U1D,1.0,True,0.312,13,False,left,0.0,0.000869599636644125,1.9810871998779476,1.9802176002413034,0.3559177001006901,0.8558821999467909,0.4999644998461008,
228,0.4989,0.1,2,0.43238,0.2245,0.6652,228,2.25336,-0.13,-0.06652,0.43238,5,1D1U,1.0,True,0.113,24,False,left,0.0,0.0007262998260557652,2.2648867000825703,2.2641604002565145,0.42380210012197495,0.9237128999084234,0.4999107997864485,
229,0.4989,1.2,2,0.23282,0.2245,0.51553,229,1.95402,-0.038,-0.01663,0.48227,5,2D1U,2.0,False,0.248,7,True,right,0.0,0.0007152999751269817,1.9581308998167515,1.9574155998416245,0.22400629986077547,0.7242382001131773,0.5002319002524018,
230,0.4989,0.1,1,0.32428,0.24945,0.49058,230,2.06211,-0.002,0.0,0.4989,5,1U1D,2.0,False,0.333,22,False,right,0.0,0.00027079973369836807,2.0745955002494156,2.0743247005157173,1.3076438000425696,1.8068546000868082,0.49921080004423857,
231,0.4989,1.2,1,0.37417,0.32428,0.4989,231,2.16189,-0.074,-0.03326,0.46564,5,2D1U,1.0,False,0.359,7,False,left,0.0,0.000745799858123064,2.1748840999789536,2.1741383001208305,1.3304877001792192,1.8315731002949178,0.5010854001156986,
232,0.4989,0.1,1,0.37417,0.39912,0.54879,232,2.30325,-0.038,-0.01663,0.48227,5,1U1D,1.0,False,0.614,23,True,left,0.0,0.0007612002082169056,2.313510899897665,2.312749699689448,1.4053006996400654,1.9053831999190152,0.5000825002789497,
233,0.4989,1.2,1,0.44901,0.40743,0.73172,233,2.5527,-0.074,-0.03326,0.46564,5,1U1D,1.0,False,0.255,23,False,left,0.0,0.0007400000467896461,2.557436900213361,2.556696900166571,1.6404317999258637,2.140736899804324,0.5003050998784602,
234,0.4989,0.1,1,0.37417,0.39912,0.65688,234,2.37808,-0.094,-0.04989,0.44901,5,1D1U,1.0,False,0.22,24,False,left,0.0,0.0007564998231828213,2.3743022000417113,2.3735457002185285,1.4748883000575006,1.9743284997530282,0.49944019969552755,
235,0.4989,1.2,1,0.23282,0.35754,0.53216,235,1.96233,-0.322,-0.15798,0.34091,5,2U1D,1.0,False,0.112,13,False,left,0.0,0.0007649003528058529,1.9656095998361707,1.9648446994833648,1.0991394999437034,1.5989904999732971,0.4998510000295937,
236,0.4989,0.1,1,0.37417,0.24945,0.43238,236,1.87918,-0.358,-0.18293,0.32428,5,2U1D,1.0,False,0.113,13,False,left,0.0,0.0003507002256810665,1.8747213003225625,1.8743706000968814,1.1242912001907825,1.6237846002914011,0.4994934001006186,
237,0.4989,1.2,1,0.28271,0.25776,0.50721,237,1.97896,-0.13,-0.06652,0.43238,5,1D1U,1.0,False,0.109,25,True,left,0.0,0.0007703001610934734,1.981655600015074,1.9808852998539805,1.2143538002856076,1.7142483000643551,0.49989449977874756,
238,0.4989,0.1,1,0.34091,0.44069,0.5571,238,2.25335,-0.166,-0.08315,0.41575,5,1D1U,1.0,False,0.333,25,False,left,0.0,0.0003275997005403042,2.2672396996058524,2.266912099905312,1.3077410999685526,1.8074486996047199,0.4997075996361673,
239,0.4989,1.2,1,0.34091,0.26608,0.56542,239,2.12032,-0.11,-0.0582,0.44901,5,1U1D,1.0,False,0.209,23,False,left,0.0,0.0007289997301995754,2.1311540002934635,2.130425000563264,1.3484078999608755,1.8480350002646446,0.4996271003037691,
240,0.4989,0.1,2,0.41575,0.40743,0.69846,240,2.46955,-0.11,-0.0582,0.44901,5,2D1U,2.0,False,0.265,7,False,right,0.0,0.00030830036848783493,2.465126699768007,2.464818399399519,0.40671590017154813,0.9067603000439703,0.5000443998724222,
241,0.4989,1.2,2,0.34091,0.42406,0.73172,241,2.39471,-0.202,-0.09978,0.39912,5,1D1U,2.0,False,0.251,25,False,right,0.0,0.0006983000785112381,2.3982993001118302,2.397601000033319,0.3318149000406265,0.8324941000901163,0.5006792000494897,
242,0.4989,0.1,2,0.37417,0.40743,0.43238,242,2.13694,-0.146,-0.07483,0.42406,5,1U1D,2.0,False,0.645,23,False,right,0.0,0.00025769975036382675,2.140116599854082,2.139858900103718,0.3650948000140488,0.8650845000520349,0.49998970003798604,
243,0.4989,1.2,2,0.28271,0.26608,0.64025,243,2.09537,-0.182,-0.09146,0.40743,5,1U1D,2.0,False,0.309,23,False,right,0.0,0.000619600061327219,2.098404999822378,2.097785399761051,0.27319199964404106,0.773276699706912,0.500084700062871,
244,0.4989,0.1,2,0.27439,0.38249,0.39912,244,1.85424,-0.394,-0.19956,0.29934,5,2U1D,1.0,True,0.26,13,False,left,0.0,0.0007473002187907696,1.8554525999352336,1.8547052997164428,0.2730061002075672,0.7725690002553165,0.4995629000477493,
245,0.4989,1.2,2,0.29102,0.31597,0.8897,245,2.41965,-0.146,-0.07483,0.42406,5,2D1U,2.0,False,0.251,7,False,right,0.0,0.000574599951505661,2.4239631998352706,2.423388599883765,0.28163400012999773,0.7825429001823068,0.500908900052309,
246,0.4989,0.1,2,0.20787,0.2245,0.84813,246,2.18683,-0.182,-0.09146,0.40743,5,2D1U,2.0,False,0.282,7,False,right,0.0,0.0009371996857225895,2.189991599880159,2.1890544001944363,0.19867829978466034,0.6981750000268221,0.49949670024216175,
247,0.4989,1.2,2,0.29102,0.29934,0.58205,247,2.06211,-0.218,-0.10809,0.3908,5,1U1D,2.0,False,0.249,23,False,right,0.0,0.00025460030883550644,2.064208600204438,2.0639539998956025,0.28101389994844794,0.7815434001386166,0.5005295001901686,
248,0.4989,0.1,2,0.40743,0.35754,0.64857,248,2.28661,-0.254,-0.12472,0.37417,5,1U1D,1.0,True,0.274,23,False,left,0.0,0.0007842998020350933,2.2885046997107565,2.2877203999087214,0.3965401998721063,0.896942799910903,0.5004026000387967,
249,0.4989,1.2,2,0.44901,0.24113,0.73172,249,2.2201,-0.394,-0.19956,0.29934,5,2U1D,2.0,False,0.282,13,False,right,0.0,0.0010366002097725868,2.2240721001289785,2.223035499919206,0.44060440035536885,0.9411318004131317,0.5005274000577629,
250,0.4989,0.1,1,0.20787,0.40743,0.6652,250,2.16189,-0.238,-0.11641,0.38249,5,1D1U,2.0,True,0.417,25,False,right,0.0,0.0007471996359527111,2.1736717000603676,2.172924500424415,1.2487038001418114,1.748500999994576,0.4997971998527646,
251,0.4989,1.2,1,0.43238,0.31597,0.86476,251,2.50281,-0.218,-0.10809,0.3908,5,2D1U,1.0,False,0.475,7,False,left,0.0,0.0008086999878287315,2.506351300049573,2.5055426000617445,1.6819255002774298,2.181979600340128,0.5000541000626981,
252,0.4989,0.1,1,0.37417,0.42406,0.86476,252,2.55269,-0.218,-0.10809,0.3908,5,1U1D,1.0,False,0.314,24,True,left,0.0,0.000403599813580513,2.5567108001559973,2.5563072003424168,1.622562900185585,2.12257120013237,0.500008299946785,
253,0.4989,1.2,1,0.2245,0.43238,0.61531,253,2.0538,-0.43,-0.21619,0.28271,5,2U1D,2.0,True,0.187,13,False,right,0.0,0.0007274001836776733,2.057987700216472,2.0572603000327945,1.1168718002736568,1.6160079003311694,0.4991361000575125,
254,0.4989,0.1,1,0.37417,0.19956,0.79824,254,2.15358,-0.43,-0.21619,0.28271,5,2U1D,2.0,True,0.223,13,False,right,0.0,0.0007416000589728355,2.157708500046283,2.15696689998731,1.448665099684149,1.9492544997483492,0.5005894000642002,
255,0.4989,1.2,1,0.24945,0.23282,0.39912,255,1.77941,-0.202,-0.09978,0.39912,5,1D1U,2.0,True,0.411,26,True,right,0.0,0.0007290998473763466,1.7821790003217757,1.7814499004743993,1.0403044000267982,1.5406149001792073,0.5003105001524091,
256,0.4989,0.1,1,0.28271,0.37417,0.73172,256,2.26167,-0.254,-0.12472,0.37417,5,1U1D,1.0,False,0.34,25,True,left,0.0,0.000722500029951334,2.264702799730003,2.2639802997000515,1.3813254996202886,1.8822463997639716,0.500920900143683,
257,0.4989,1.2,1,0.39912,0.24945,0.8897,257,2.45292,-0.166,-0.08315,0.41575,5,1D1U,2.0,True,0.24,26,False,right,0.0,0.000780000351369381,2.456813100259751,2.4560330999083817,1.698599399998784,2.1981247002258897,0.4995253002271056,
258,0.4989,0.1,1,0.3908,0.24113,0.44901,258,1.87918,-0.394,-0.19956,0.29934,5,2U1D,1.0,False,0.475,14,True,left,0.0,0.0007540001533925533,1.882604899816215,1.8818508996628225,1.1330932998098433,1.6326391999609768,0.49954590015113354,
259,0.4989,1.2,1,0.38249,0.39912,0.82318,259,2.47786,-0.254,-0.12472,0.37417,5,2D1U,2.0,True,0.361,7,False,right,0.0,0.0007194001227617264,2.4823922999203205,2.481672899797559,1.5741183999925852,2.0738006001338363,0.4996822001412511,
260,0.4989,0.1,2,0.34091,0.27439,0.78992,260,2.27829,-0.254,-0.12472,0.37417,5,2D1U,2.0,False,0.69,7,False,right,0.0,0.0007886001840233803,2.282681900076568,2.2818932998925447,0.3323805998079479,0.8331446000374854,0.5007640002295375,
261,0.4989,1.2,2,0.34923,0.38249,0.60699,261,2.19515,-0.29,-0.14135,0.35754,5,1U1D,2.0,False,0.349,25,False,right,0.0,0.0007423004135489464,2.197522100061178,2.1967797996476293,0.3394235000014305,0.8396848998963833,0.5002613998949528,
262,0.4989,0.1,2,0.3326,0.43238,0.43238,262,2.03717,-0.326,-0.1663,0.34091,5,1U1D,2.0,False,0.265,25,False,right,0.0,0.00026819994673132896,2.040512999985367,2.0402448000386357,0.32410329999402165,0.8246842999942601,0.5005810000002384,
263,0.4989,1.2,2,0.26608,0.29934,0.44069,263,1.86255,-0.29,-0.14135,0.35754,5,2D1U,2.0,False,0.64,7,False,right,0.0,0.0007455996237695217,1.8744384003803134,1.8736928007565439,0.25818310026079416,0.7577185002155602,0.49953539995476604,
264,0.4989,0.1,2,0.25776,0.35754,0.44069,264,1.98727,-0.13,-0.06652,0.43238,5,1D1U,2.0,False,0.242,26,False,right,0.0,0.0007500997744500637,1.9886209000833333,1.9878708003088832,0.24768050014972687,0.7468472002074122,0.4991667000576854,
265,0.4989,1.2,2,0.38249,0.44901,0.50721,265,2.12032,-0.43,-0.21619,0.28271,5,2U1D,2.0,False,0.397,15,True,right,0.0,0.0007406999357044697,2.124105399940163,2.1233647000044584,0.37467720033600926,0.8744682003743947,0.4997910000383854,
266,0.4989,0.1,2,0.36586,0.28271,0.57373,266,2.06211,-0.326,-0.1663,0.34091,5,2D1U,1.0,True,0.381,7,False,left,0.0,0.00028879987075924873,2.064183599781245,2.0638947999104857,0.3554997001774609,0.8565352000296116,0.5010354998521507,
267,0.4989,1.2,2,0.43238,0.34923,0.89802,267,2.4945,-0.362,-0.18293,0.31597,5,1U1D,1.0,True,0.643,25,False,left,0.0,0.0002597002312541008,2.4978748001158237,2.4976150998845696,0.42282050009816885,0.9237465998157859,0.500926099717617,
268,0.4989,0.1,2,0.24113,0.42406,0.54047,268,2.12031,-0.166,-0.08315,0.41575,5,1D1U,2.0,False,0.381,27,True,right,0.0,0.000767500139772892,2.1241458002477884,2.1233783001080155,0.2318104999139905,0.732479200232774,0.5006687003187835,
269,0.4989,1.2,2,0.24113,0.40743,0.8315,269,2.24504,-0.466,-0.23282,0.26608,5,2U1D,2.0,False,0.44,15,False,right,0.0,0.0006295000202953815,2.2555272998288274,2.254897799808532,0.23063969984650612,0.7308403002098203,0.5002006003633142,
270,0.4989,0.1,1,0.32428,0.25776,0.79824,270,2.12863,-0.502,-0.24945,0.24945,5,2U1D,2.0,True,0.317,15,False,right,0.0,0.00026320014148950577,2.1312941000796854,2.131030899938196,1.3654191000387073,1.864631799980998,0.4992126999422908,
271,0.4989,1.2,1,0.23282,0.43238,0.42406,271,1.83761,-0.502,-0.24945,0.24945,5,2U1D,1.0,False,0.255,15,False,left,0.0,0.0002621002495288849,1.8388621998019516,1.8386000995524228,0.8972676997072995,1.3969688997603953,0.4997012000530958,
272,0.4989,0.1,1,0.2245,0.34923,0.77329,272,2.18683,-0.326,-0.1663,0.34091,5,2D1U,1.0,False,0.131,7,False,left,0.0,0.0006987997330725193,2.196560800075531,2.1958620003424585,1.3303688000887632,1.8303113002330065,0.49994250014424324,
273,0.4989,1.2,1,0.44069,0.41575,0.52384,273,2.22009,-0.326,-0.1663,0.34091,5,1U1D,1.0,False,0.131,26,True,left,0.0,0.00026929983869194984,2.223922499921173,2.223653200082481,1.2987505001947284,1.7991467998363078,0.5003962996415794,
274,0.4989,0.1,1,0.37417,0.23282,0.83981,274,2.26167,-0.362,-0.18293,0.31597,5,1U1D,2.0,True,0.274,27,True,right,0.0,0.0002642003819346428,2.2733593001030385,2.273095099721104,1.5236900001764297,2.023959499783814,0.5002694996073842,
275,0.4989,1.2,1,0.30765,0.3326,0.78161,275,2.31988,-0.202,-0.09978,0.39912,5,1D1U,1.0,False,0.267,27,False,left,0.0,0.000269200187176466,2.3323266999796033,2.332057499792427,1.4823287995532155,1.9828754998743534,0.5005467003211379,
276,0.4989,0.1,1,0.28271,0.29934,0.69846,276,2.1619,-0.238,-0.11641,0.38249,5,1D1U,1.0,False,0.266,27,False,left,0.0,0.0007667001336812973,2.174228200223297,2.1734615000896156,1.3583070002496243,1.8579951003193855,0.4996881000697613,
277,0.4989,1.2,1,0.34923,0.2245,0.54047,277,1.95401,-0.326,-0.1663,0.34091,5,1U1D,1.0,False,0.122,28,True,left,0.0,0.00078590027987957,1.9582376000471413,1.9574516997672617,1.2246109996922314,1.724776899907738,0.5001659002155066,
278,0.4989,0.1,1,0.44069,0.3326,0.48227,278,1.98728,-0.538,-0.26608,0.23282,5,2U1D,1.0,False,0.235,15,False,left,0.0,0.0009888000786304474,1.9917709003202617,1.9907821002416313,1.1496714004315436,1.6497251000255346,0.500053699593991,
279,0.4989,1.2,1,0.44069,0.28271,0.53216,279,1.97065,-0.574,-0.29102,0.21619,5,2U1D,1.0,False,0.199,15,False,left,0.0,0.0007390002720057964,1.9795698001980782,1.9788307999260724,1.188678199891001,1.6881646998226643,0.4994864999316633,
280,0.4989,0.1,2,0.29102,0.25776,0.73172,280,2.09537,-0.362,-0.18293,0.31597,5,2D1U,1.0,True,0.613,7,False,left,0.0,0.0007472001016139984,2.0993348001502454,2.0985876000486314,0.2828497001901269,0.7839140999130905,0.5010643997229636,
281,0.4989,1.2,2,0.3326,0.26608,0.78992,281,2.07874,-0.61,-0.30765,0.19124,5,2U1D,1.0,True,0.354,15,False,left,0.0,0.0002580997534096241,2.072740999981761,2.0724829002283514,0.32290069991722703,0.8225802001543343,0.4996795002371073,
282,0.4989,0.1,2,0.29934,0.30765,0.69846,282,2.12032,-0.362,-0.18293,0.31597,5,2D1U,1.0,True,0.359,7,False,left,0.0,0.0006821001879870892,2.132834699936211,2.132152599748224,0.2916613998822868,0.7914928998798132,0.4998314999975264,
283,0.4989,1.2,2,0.44069,0.44069,0.74003,283,2.48617,-0.274,-0.13304,0.36586,5,1D1U,1.0,True,0.321,27,False,left,0.0,0.000744799617677927,2.490247500129044,2.489502700511366,0.4317672997713089,0.9328299001790583,0.5010626004077494,
284,0.4989,0.1,2,0.3326,0.3326,0.53216,284,2.01223,-0.362,-0.18293,0.31597,5,1U1D,1.0,True,0.304,29,True,left,0.0,0.0007521999068558216,2.01483070012182,2.014078500214964,0.32302230037748814,0.8224283000454307,0.4994059996679425,
285,0.4989,1.2,2,0.2245,0.25776,0.78161,285,1.95401,-0.61,-0.30765,0.19124,5,2U1D,1.0,True,0.463,15,False,left,0.0,0.0007881000638008118,1.955417299643159,1.954629199579358,0.22278109984472394,0.7219504998065531,0.4991693999618292,
286,0.4989,0.1,2,0.19956,0.26608,0.52384,286,1.70457,-0.574,-0.29102,0.21619,5,2U1D,1.0,True,0.329,16,True,left,0.0,0.0007174001075327396,1.705663800239563,1.7049464001320302,0.189618700183928,0.6893489002250135,0.4997302000410855,
287,0.4989,1.2,2,0.28271,0.24113,0.68183,287,2.08706,-0.238,-0.11641,0.38249,5,1D1U,2.0,False,0.559,28,True,right,0.0,0.0007366999052464962,2.09018520032987,2.0894485004246235,0.2821100000292063,0.7825518003664911,0.5004418003372848,
288,0.4989,0.1,2,0.32428,0.24945,0.51553,288,1.92907,-0.326,-0.1663,0.34091,5,2D1U,2.0,False,0.536,8,True,right,0.0,0.0007414999417960644,1.9314391002990305,1.9306976003572345,0.3151366002857685,0.8145266999490559,0.4993900996632874,
289,0.4989,1.2,2,0.29102,0.20787,0.74003,289,2.07873,-0.326,-0.1663,0.34091,5,1U1D,2.0,False,0.286,30,True,right,0.0,0.001087899785488844,2.0809013000689447,2.079813400283456,0.2802165001630783,0.7812979002483189,0.5010814000852406,
290,0.4989,0.1,1,0.43238,0.29934,0.54047,290,1.98728,-0.574,-0.29102,0.21619,5,2U1D,2.0,True,1.239,16,True,right,0.0,0.0008242996409535408,1.9819718999788165,1.981147600337863,1.1819755001924932,1.6817336999811232,0.49975819978863,
291,0.4989,1.2,1,0.38249,0.41575,0.64857,291,2.17853,-0.538,-0.26608,0.23282,5,2U1D,2.0,True,0.208,16,False,right,0.0,0.0007478999905288219,2.172141899820417,2.1713939998298883,1.2636373001150787,1.7635992001742125,0.49996190005913377,
292,0.4989,0.1,1,0.36586,0.43238,0.50721,292,2.12032,-0.362,-0.18293,0.31597,5,1U1D,2.0,True,0.115,31,True,right,0.0,0.0007357997819781303,2.1322550997138023,2.131519299931824,1.1820646999403834,1.6825337996706367,0.5004690997302532,
293,0.4989,1.2,1,0.24945,0.28271,0.70677,293,2.0538,-0.362,-0.18293,0.31597,5,2D1U,2.0,True,0.204,9,True,right,0.0,0.0007523000240325928,2.055215499829501,2.0544631998054683,1.272156999912113,1.7725534001365304,0.5003964002244174,
294,0.4989,0.1,1,0.44069,0.44069,0.53216,294,2.2783,-0.274,-0.13304,0.36586,5,1D1U,2.0,True,0.245,29,True,right,0.0,0.0007123998366296291,2.28258359991014,2.2818712000735104,1.3322335998527706,1.8319035996682942,0.4996699998155236,
295,0.4989,1.2,1,0.27439,0.25776,0.84813,295,2.26167,-0.238,-0.11641,0.38249,5,1D1U,1.0,False,0.692,30,True,left,0.0,0.0007201996631920338,2.2741986997425556,2.2734785000793636,1.4986354000866413,1.9987309998832643,0.500095599796623,
296,0.4989,0.1,1,0.26608,0.26608,0.79824,296,2.19516,-0.274,-0.13304,0.36586,5,1D1U,1.0,False,0.259,31,True,left,0.0,0.0007516997866332531,2.198189599905163,2.19743790011853,1.4228063998743892,1.9229843998327851,0.500177999958396,
297,0.4989,1.2,1,0.39912,0.3908,0.84813,297,2.45292,-0.362,-0.18293,0.31597,5,2D1U,1.0,False,0.2,9,True,left,0.0,0.0008020000532269478,2.4642031001858413,2.4634011001326144,1.5567160001955926,2.0559947001747787,0.49927869997918606,
298,0.4989,0.1,1,0.29934,0.29934,0.8315,298,2.1619,-0.538,-0.26608,0.23282,5,2U1D,1.0,False,0.292,16,False,left,0.0,0.0008014999330043793,2.173219199758023,2.1724176998250186,1.3562023998238146,1.8565956996753812,0.5003932998515666,
299,0.4989,1.2,1,0.42406,0.34091,0.87307,299,2.47785,-0.326,-0.1663,0.34091,5,1U1D,2.0,True,0.114,32,True,right,0.0,0.0007335999980568886,2.4816123000346124,2.4808787000365555,1.6306298999115825,2.1319722002372146,0.5013423003256321,
300,0.4989,0.1,2,0.44069,0.34091,0.81487,300,2.43628,-0.31,-0.15798,0.34091,5,1D1U,1.0,True,1.258,31,False,left,0.0,0.0007607997395098209,2.441535299643874,2.4407744999043643,0.43290459970012307,0.9327709996141493,0.49986639991402626,
301,0.4989,1.2,2,0.31597,0.42406,0.42406,301,2.02885,-0.274,-0.13304,0.36586,5,1D1U,2.0,False,0.324,32,True,right,0.0,0.0007809000089764595,2.0311917001381516,2.030410800129175,0.3063596999272704,0.8061645999550819,0.4998049000278115,
302,0.4989,0.1,2,0.25776,0.24113,0.74835,302,1.96233,-0.574,-0.29102,0.21619,5,2U1D,1.0,True,0.391,17,True,left,0.0,0.0007327999919652939,1.9752182001248002,1.974485400132835,0.24986719992011786,0.7497181999497116,0.4998510000295937,
303,0.4989,1.2,2,0.30765,0.40743,0.57373,303,2.0039,-0.574,-0.29102,0.21619,5,2U1D,1.0,True,0.283,17,True,left,0.0,0.0007421998307108879,2.0167450001463294,2.0160028003156185,0.29997080005705357,0.7999799000099301,0.5000090999528766,
304,0.4989,0.1,2,0.24113,0.41575,0.59036,304,2.04548,-0.398,-0.19956,0.29934,5,2D1U,1.0,True,0.261,9,False,left,0.0,0.0004619997926056385,2.049533700104803,2.049071700312197,0.2323100999929011,0.7327642999589443,0.5004541999660432,
305,0.4989,1.2,2,0.37417,0.42406,0.71509,305,2.31156,-0.398,-0.19956,0.29934,5,2D1U,1.0,True,0.442,9,False,left,0.0,0.0007231999188661575,2.3219797001220286,2.3212565002031624,0.36405339976772666,0.8640358000993729,0.4999824003316462,
306,0.4989,0.1,2,0.37417,0.29934,0.78161,306,2.26999,-0.362,-0.18293,0.31597,5,2D1U,1.0,True,0.356,10,True,left,0.0,0.0007950002327561378,2.2730513997375965,2.2722563995048404,0.36473360005766153,0.864967199973762,0.5002335999161005,
307,0.4989,1.2,2,0.26608,0.26608,0.74835,307,2.12032,-0.31,-0.15798,0.34091,5,1D1U,2.0,False,0.475,33,True,right,0.0,0.0007503996603190899,2.132148299831897,2.131397900171578,0.2577672996558249,0.7577498997561634,0.49998260010033846,
308,0.4989,0.1,2,0.30765,0.36586,0.73172,308,2.22841,-0.346,-0.17461,0.32428,5,1D1U,1.0,True,0.236,33,False,left,0.0,0.0007436000742018223,2.231781200040132,2.23103759996593,0.29909110022708774,0.798711400013417,0.49962029978632927,
