,standardDur,audNoise,order,preDur,postDur,isiDur,trial_num,totalDur,delta_dur_percents,deltaDurS,testDurS,intensities,current_stair,responses,is_correct,response_rts,stair_num_reversal,stair_is_reversal,response_keys,conflictDur,recordedOnsetAudioTest,recordedOffsetAudioTest,recordedDurAudioTest,recordedOnsetVisualStandard,recordedOffsetVisualStandard,recordedDurVisualStandard,modalityPostCueTest
0,0.49822,1.2,2,0.20759,0.36536,0.53974,0,2.45788,0.7,0.34875,0.84697,5,1D1U,2.0,True,0.614,0,False,right,0.0,0.0013456996530294418,2.465908399783075,2.4645627001300454,0.20748129999265075,0.7075936999171972,0.5001123999245465,
1,0.49822,0.1,2,0.2159,0.39027,0.6809,1,2.55753,0.55,0.27402,0.77224,5,1D1U,2.0,True,0.13,0,False,right,0.0,0.0003239000216126442,2.5558171002194285,2.555493200197816,0.20667130034416914,0.7060731002129614,0.4994017998687923,
2,0.49822,1.2,2,0.39858,0.39027,0.58126,2,2.0178,-0.7,-0.34875,0.14947,5,1U1D,1.0,True,0.469,0,False,left,0.0,0.00048789987340569496,2.014180399943143,2.0136925000697374,0.3891774001531303,0.8898562001995742,0.5006788000464439,
3,0.49822,0.1,2,0.38197,0.38197,0.6809,3,2.09253,-0.7,-0.34875,0.14947,5,2U1D,1.0,True,0.143,0,False,left,0.0,0.0007451996207237244,2.0994502999819815,2.098705100361258,0.3735691998153925,0.8740089000202715,0.500439700204879,
4,0.49822,1.2,2,0.38197,0.43179,0.74733,4,2.10913,-0.9,-0.4484,0.04982,5,lapse_rate,1.0,True,0.761,0,False,left,0.0,0.0003770003095269203,2.12433879962191,2.123961799312383,0.3743647998198867,0.8740105996839702,0.49964579986408353,
5,0.49822,1.2,2,0.34045,0.39027,0.59786,5,2.67377,0.7,0.34875,0.84697,5,2D1U,2.0,True,0.166,0,False,right,0.0,0.0007391003891825676,2.682010699994862,2.6812715996056795,0.33204140001907945,0.8317641001194715,0.4997227001003921,
6,0.49822,0.1,2,0.36536,0.20759,0.56465,6,2.33333,0.4,0.19929,0.69751,5,1D1U,2.0,True,0.114,0,False,right,0.0,0.0006514000706374645,2.3230042001232505,2.322352800052613,0.3559918003156781,0.8560847002081573,0.5000928998924792,
7,0.49822,1.2,2,0.2325,0.37367,0.69751,7,2.0261,-0.55,-0.27402,0.2242,5,1U1D,1.0,True,1.582,0,False,left,0.0,0.0006985999643802643,2.0386804998852313,2.037981899920851,0.2217524996958673,0.7230400997214019,0.5012876000255346,
8,0.49822,0.1,2,0.29893,0.2159,0.72242,8,1.88494,-0.7,-0.34875,0.14947,5,2U1D,1.0,True,1.186,0,False,left,0.0,0.0007413998246192932,1.8814565003849566,1.8807151005603373,0.28986360039561987,0.7895139004103839,0.49965030001476407,
9,0.49822,0.1,2,0.28232,0.26572,0.43179,9,1.52787,-0.9,-0.4484,0.04982,5,lapse_rate,1.0,True,0.447,0,False,left,0.0,0.0006798002868890762,1.5325259999372065,1.5318461996503174,0.273365399800241,0.773768899962306,0.500403500162065,
10,0.49822,1.2,1,0.19929,0.25741,0.48161,10,2.2835,0.7,0.34875,0.84697,5,2D1U,1.0,True,3.688,0,False,left,0.0,0.00028609996661543846,2.290464200079441,2.2901781001128256,1.5247037000954151,2.0242383000440896,0.49953459994867444,
11,0.49822,0.1,1,0.39858,0.30724,0.64769,11,2.15066,-0.4,-0.19929,0.29893,5,1U1D,1.0,False,1.487,0,False,left,0.0,0.0006233002059161663,2.157231700140983,2.1566083999350667,1.3399136001244187,1.8399844001978636,0.5000708000734448,
12,0.49822,1.2,1,0.43179,0.34045,0.48161,12,2.52431,0.55,0.27402,0.77224,5,2D1U,1.0,True,0.114,0,False,left,0.0,0.0006892997771501541,2.5400392999872565,2.5393500002101064,1.681989900302142,2.181608899962157,0.4996189996600151,
13,0.49822,0.1,1,0.43179,0.29063,0.6809,13,2.52432,0.25,0.12456,0.62278,5,1D1U,1.0,True,0.117,0,False,left,0.0,0.0007526995614171028,2.531557200010866,2.530804500449449,1.731396600138396,2.231606500223279,0.500209900084883,
14,0.49822,0.1,1,0.38197,0.27402,0.42349,14,1.62752,-0.9,-0.4484,0.04982,5,lapse_rate,2.0,True,1.147,0,False,right,0.0,0.0005065998993813992,1.6318256999365985,1.6313191000372171,0.8480051001533866,1.3484374000690877,0.5004322999157012,
15,0.49822,1.2,1,0.34045,0.35706,0.64769,15,2.06762,-0.55,-0.27402,0.2242,5,2U1D,2.0,True,1.004,0,False,right,0.0,0.0008511999621987343,2.0742147001437843,2.0733635001815856,1.2078406000509858,1.7073623999021947,0.4995217998512089,
16,0.49822,0.1,1,0.35706,0.2325,0.48992,16,2.34994,0.55,0.27402,0.77224,5,2D1U,1.0,True,0.111,0,False,left,0.0,0.0008543999865651131,2.3567288001067936,2.3558744001202285,1.6156968004070222,2.1153098000213504,0.49961299961432815,
17,0.49822,1.2,1,0.43179,0.2325,0.81376,17,2.23368,-0.49,-0.24911,0.25741,5,1U1D,1.0,False,0.576,1,True,left,0.0,0.0004883999936282635,2.2309470996260643,2.230458699632436,1.4978526998311281,1.9973326995968819,0.49947999976575375,
18,0.49822,0.1,1,0.44009,0.36536,0.66429,18,2.19216,-0.55,-0.27402,0.2242,5,2U1D,1.0,False,0.612,0,False,left,0.0,0.0007557999342679977,2.1982954000122845,2.1975396000780165,1.3233709996566176,1.8232002998702228,0.49982930021360517,
19,0.49822,0.1,1,0.33215,0.20759,0.4484,19,2.43298,0.9,0.4484,0.94662,5,lapse_rate,1.0,True,0.533,0,False,left,0.0,0.0012511000968515873,2.4464434003457427,2.445192300248891,1.7298905001953244,2.2301754001528025,0.500284899957478,
20,0.49822,1.2,2,0.27402,0.34875,0.47331,20,2.14234,0.1,0.04982,0.54804,5,1D1U,2.0,True,6.462,0,False,right,0.0,0.0007378999143838882,2.150994800031185,2.1502569001168013,0.26674749981611967,0.7668311996385455,0.5000836998224258,
21,0.49822,0.1,2,0.25741,0.40688,0.79715,21,2.90628,0.9,0.4484,0.94662,5,lapse_rate,2.0,True,0.112,0,False,right,0.0,0.0007759998552501202,2.915602400433272,2.914826400578022,0.2489798003807664,0.7490052003413439,0.5000253999605775,
22,0.49822,0.1,2,0.29063,0.41518,0.47331,22,2.37485,0.4,0.19929,0.69751,5,2D1U,2.0,True,0.834,0,False,right,0.0,0.0007229000329971313,2.373927100095898,2.373204200062901,0.289903299883008,0.790050100069493,0.500146800186485,
23,0.49822,1.2,2,0.20759,0.37367,0.6892,23,1.97627,-0.58,-0.29063,0.20759,5,1U1D,2.0,False,4.34,1,False,right,0.0,0.0007386999204754829,1.9738799002952874,1.9731412003748119,0.1982455002143979,0.6975895999930799,0.499344099778682,
24,0.49822,0.1,2,0.41518,0.42349,0.70581,24,2.51601,-0.05,-0.02491,0.47331,5,1D1U,2.0,False,3.874,0,False,right,0.0,0.0008126003667712212,2.5299927997402847,2.5291801993735135,0.4140446996316314,0.9141917997039855,0.5001471000723541,
25,0.49822,1.2,2,0.29893,0.28232,0.40688,25,1.66903,-0.64,-0.32384,0.18268,5,2U1D,1.0,True,1.263,1,True,left,0.0,0.0003442000597715378,1.6718338998034596,1.671489699743688,0.2889451999217272,0.7884255000390112,0.49948030011728406,
26,0.49822,0.1,2,0.33215,0.28232,0.83867,26,2.13404,-0.64,-0.32384,0.18268,5,2U1D,1.0,True,0.762,1,True,left,0.0,0.0007305997423827648,2.1319129997864366,2.131182400044054,0.3233157997019589,0.8231752999126911,0.4998595002107322,
27,0.49822,1.2,2,0.19929,0.41518,0.8968,27,2.707,0.4,0.19929,0.69751,5,2D1U,2.0,True,0.113,0,False,right,0.0,0.0006182002834975719,2.6980848000384867,2.697466599754989,0.1896635997109115,0.6898419000208378,0.5001783003099263,
28,0.49822,0.1,2,0.29063,0.28232,0.44009,28,2.45788,0.9,0.4484,0.94662,5,lapse_rate,2.0,True,0.123,0,False,right,0.0,0.0007258998230099678,2.4663259997032583,2.4656000998802483,0.28250439977273345,0.7823164998553693,0.4998121000826359,
29,0.49822,0.1,2,0.32384,0.44009,0.57295,29,2.00117,-0.67,-0.33215,0.16607,5,1U1D,1.0,True,2.054,1,False,left,0.0,0.000626599881798029,2.006299499887973,2.005672900006175,0.31460070004686713,0.8144235997460783,0.4998228996992111,
30,0.49822,1.2,1,0.20759,0.39027,0.53974,30,2.06761,-0.14,-0.06643,0.43179,5,1D1U,2.0,True,11.197,1,True,right,0.0,0.0007722997106611729,2.0818292000330985,2.0810569003224373,1.1733054998330772,1.6736262999475002,0.500320800114423,
31,0.49822,0.1,1,0.20759,0.33215,0.77224,31,2.00118,-0.616,-0.30724,0.19098,5,1U1D,2.0,True,1.067,2,True,right,0.0,0.00035159988328814507,1.9982943995855749,1.9979427997022867,1.1654641996137798,1.665238999761641,0.49977480014786124,
32,0.49822,1.2,1,0.20759,0.29893,0.66429,32,2.12573,-0.086,-0.04152,0.4567,5,1D1U,1.0,False,1.446,2,True,left,0.0,0.000529599841684103,2.139428500086069,2.138898900244385,1.3232368002645671,1.8233795003034174,0.5001427000388503,
33,0.49822,0.1,1,0.2325,0.2159,0.74733,33,2.31673,0.25,0.12456,0.62278,5,2D1U,1.0,True,0.3,0,False,left,0.0,0.0007486003451049328,2.3150583002716303,2.3143096999265254,1.598349000327289,2.0979321002960205,0.4995830999687314,
34,0.49822,0.1,1,0.42349,0.28232,0.87189,34,2.12574,-0.9,-0.4484,0.04982,5,lapse_rate,1.0,False,1.302,0,False,left,0.0,0.0007910998538136482,2.140830500051379,2.1400394001975656,1.3402038998901844,1.8407743000425398,0.5005704001523554,
35,0.49822,1.2,1,0.43179,0.2325,0.81376,35,2.18386,-0.586,-0.29063,0.20759,5,2U1D,2.0,True,0.33,2,True,right,0.0,0.0007717004045844078,2.1904226997867227,2.1896509993821383,1.4488733997568488,1.9483574000187218,0.499484000261873,
36,0.49822,0.1,1,0.29893,0.31554,0.42349,36,1.75208,-0.562,-0.28232,0.2159,5,1U1D,1.0,False,1.607,2,False,left,0.0,0.0004340996965765953,1.7652757000178099,1.7648416003212333,0.9314069002866745,1.4322573998942971,0.5008504996076226,
37,0.49822,1.2,1,0.36536,0.31554,0.63108,37,2.43298,0.25,0.12456,0.62278,5,2D1U,1.0,True,0.197,0,False,left,0.0,0.0007476001046597958,2.440341499634087,2.4395938995294273,1.6155628999695182,2.1146784997545183,0.4991155997850001,
38,0.49822,0.1,1,0.37367,0.41518,0.44009,38,1.93475,-0.586,-0.29063,0.20759,5,2U1D,2.0,True,0.658,2,True,right,0.0,0.0007472997531294823,1.9412148999981582,1.9404676002450287,1.0157751999795437,1.5159784997813404,0.5002032998017967,
39,0.49822,1.2,1,0.19929,0.25741,0.69751,39,1.70225,-0.9,-0.4484,0.04982,5,lapse_rate,2.0,True,0.781,0,False,right,0.0,0.0005021002143621445,1.6975862002000213,1.6970840999856591,0.9395198998972774,1.4397578001953661,0.5002379002980888,
40,0.49822,1.2,2,0.28232,0.2325,0.83037,40,2.2752,-0.14,-0.06643,0.43179,5,1D1U,1.0,True,0.59,3,True,left,0.0,0.0006283000111579895,2.283013999927789,2.282385699916631,0.2742914999835193,0.7741157999262214,0.49982429994270205,
41,0.49822,0.1,2,0.20759,0.32384,0.51483,41,2.09252,0.1,0.04982,0.54804,5,2D1U,2.0,True,3.32,0,False,right,0.0,0.0005916999652981758,2.1063224002718925,2.1057307003065944,0.1987455002963543,0.698386600241065,0.49964109994471073,
42,0.49822,1.2,2,0.29063,0.40688,0.49822,42,1.92645,-0.532,-0.26572,0.2325,5,2U1D,1.0,True,0.436,2,False,left,0.0,0.0007529999129474163,1.9235487999394536,1.9227958000265062,0.28158520022407174,0.7819958999752998,0.5004106997512281,
43,0.49822,0.1,2,0.40688,0.32384,0.59786,43,2.01778,-0.616,-0.30724,0.19098,5,1U1D,2.0,False,0.592,3,True,right,0.0,0.0007643001154065132,2.014252500142902,2.0134882000274956,0.398271800018847,0.897893600165844,0.499621800146997,
44,0.49822,1.2,2,0.29063,0.39858,0.87189,44,2.10914,-0.9,-0.4484,0.04982,5,lapse_rate,1.0,True,0.364,0,False,left,0.0,0.0006058001890778542,2.123172600287944,2.1225668000988662,0.28170640021562576,0.7808726001530886,0.4991661999374628,
45,0.49822,1.2,2,0.41518,0.28232,0.48992,45,2.14234,-0.086,-0.04152,0.4567,5,1D1U,1.0,True,0.878,4,True,left,0.0,0.0005268999375402927,2.15729339979589,2.1567664998583496,0.4073832998983562,0.9076777999289334,0.5002945000305772,
46,0.49822,0.1,2,0.2242,0.34045,0.57295,46,2.11743,-0.032,-0.01661,0.48161,5,1D1U,2.0,False,0.559,4,False,right,0.0,0.0003581000491976738,2.121712099760771,2.121353999711573,0.21291289990767837,0.7137408996932209,0.5008279997855425,
47,0.49822,1.2,2,0.26572,0.42349,0.54804,47,2.28351,0.1,0.04982,0.54804,5,2D1U,2.0,True,0.315,0,False,right,0.0,0.0006287000142037868,2.298545000143349,2.2979163001291454,0.25608120020478964,0.756260999944061,0.5001797997392714,
48,0.49822,0.1,2,0.36536,0.34875,0.72242,48,2.16725,-0.532,-0.26572,0.2325,5,2U1D,1.0,True,0.7,2,False,left,0.0,0.0007675997912883759,2.172564800363034,2.1717972005717456,0.35632590018212795,0.8566395002417266,0.5003136000595987,
49,0.49822,1.2,2,0.24081,0.32384,0.58126,49,1.8102,-0.67,-0.33215,0.16607,5,1U1D,1.0,True,0.452,3,False,left,0.0,0.0007571997120976448,1.8226022003218532,1.8218450006097555,0.23141860030591488,0.7312669004313648,0.4998483001254499,
50,0.49822,0.1,1,0.33215,0.24081,0.83867,50,2.85647,0.9,0.4484,0.94662,5,lapse_rate,1.0,True,0.184,0,False,left,0.0,0.0002780999056994915,2.8746633999980986,2.874385300092399,2.1158672999590635,2.61609570030123,0.5002284003421664,
51,0.49822,0.1,1,0.24081,0.30724,0.72242,51,1.95967,-0.616,-0.30724,0.19098,5,1U1D,2.0,True,0.113,4,True,right,0.0,0.0005140001885592937,1.957912199664861,1.9573981994763017,1.1489423997700214,1.6495276000350714,0.5005852002650499,
52,0.49822,1.2,1,0.28232,0.35706,0.86358,52,2.45788,-0.086,-0.04152,0.4567,5,1D1U,1.0,False,0.488,5,True,left,0.0,0.0007708999328315258,2.4566596001386642,2.4558887002058327,1.598933500237763,2.0991616998799145,0.5002281996421516,
53,0.49822,0.1,1,0.29893,0.38197,0.76394,53,2.20047,-0.478,-0.24081,0.25741,5,2U1D,2.0,True,0.109,2,False,right,0.0,0.0006059003062546253,2.207593100145459,2.2069871998392045,1.3150066998787224,1.81529980013147,0.5002931002527475,
54,0.49822,1.2,1,0.31554,0.26572,0.66429,54,2.69039,0.9,0.4484,0.94662,5,lapse_rate,1.0,True,0.126,0,False,left,0.0,0.0007458003237843513,2.691018700134009,2.6902728998102248,1.9238407998345792,2.4240741999819875,0.5002334001474082,
55,0.49822,1.2,1,0.39027,0.36536,0.62278,55,2.34994,-0.05,-0.02491,0.47331,5,2D1U,2.0,True,0.719,0,False,right,0.0,0.0007285997271537781,2.3492846000008285,2.3485560002736747,1.482534300070256,1.9825295000337064,0.49999519996345043,
56,0.49822,0.1,1,0.26572,0.42349,0.72242,56,2.34164,-0.14,-0.06643,0.43179,5,1D1U,1.0,False,0.347,5,False,left,0.0,0.0007794001139700413,2.340642999857664,2.339863599743694,1.4158034999854863,1.9157120999880135,0.49990860000252724,
57,0.49822,1.2,1,0.44009,0.38197,0.43179,57,2.00948,-0.478,-0.24081,0.25741,5,2U1D,2.0,True,1.961,2,False,right,0.0,0.0008041001856327057,2.0142866000533104,2.0134824998676777,1.1307798000052571,1.6301040002144873,0.4993242002092302,
58,0.49822,0.1,1,0.35706,0.35706,0.6809,58,2.10914,-0.562,-0.28232,0.2159,5,1U1D,2.0,True,0.263,4,False,right,0.0,0.0002617998979985714,2.1243205000646412,2.1240587001666427,1.2494359002448618,1.7485616002231836,0.4991256999783218,
59,0.49822,1.2,1,0.39858,0.2242,0.6809,59,2.27521,-0.05,-0.02491,0.47331,5,2D1U,1.0,False,0.151,0,False,left,0.0,0.0002676001749932766,2.273000399582088,2.2727327994070947,1.5487795998342335,2.048809299711138,0.5000296998769045,
60,0.49822,1.2,2,0.41518,0.34045,0.63108,60,1.93475,-0.9,-0.4484,0.04982,5,lapse_rate,1.0,True,1.475,0,False,left,0.0,0.0005916999652981758,1.955342700239271,1.9547510002739727,0.4049686002545059,0.9071654002182186,0.5021967999637127,
61,0.49822,0.1,2,0.29893,0.4484,0.49822,61,2.0344,-0.424,-0.2159,0.29063,5,2U1D,1.0,True,0.926,2,False,left,0.0,0.0007267999462783337,2.041186800226569,2.040460000280291,0.2907695001922548,0.7911896002478898,0.500420100055635,
62,0.49822,1.2,2,0.2242,0.29063,0.51483,62,1.77699,-0.508,-0.25741,0.24911,5,1U1D,2.0,False,0.693,4,False,right,0.0,0.0003101998008787632,1.772046399768442,1.7717361999675632,0.21444140002131462,0.7142198998481035,0.4997784998267889,
63,0.49822,0.1,2,0.39858,0.28232,0.6726,63,2.2586,-0.194,-0.09964,0.40688,5,1D1U,2.0,False,0.725,5,False,right,0.0,0.0007780999876558781,2.2555157002061605,2.2547376002185047,0.38910310016945004,0.8889294001273811,0.49982629995793104,
64,0.49822,1.2,2,0.31554,0.2242,0.55635,64,2.54093,0.9,0.4484,0.94662,5,lapse_rate,2.0,True,0.156,0,False,right,0.0,0.0007692002691328526,2.5396980000659823,2.5389287997968495,0.3060687002725899,0.806218400131911,0.5001496998593211,
65,0.49822,1.2,2,0.42349,0.2159,0.53143,65,2.10083,-0.14,-0.06643,0.43179,5,2D1U,1.0,True,0.59,1,True,left,0.0,0.0007501998916268349,2.1054578996263444,2.1047076997347176,0.4139988999813795,0.9141621999442577,0.5001632999628782,
66,0.49822,1.2,2,0.37367,0.41518,0.6809,66,2.01779,-0.9,-0.4484,0.04982,5,lapse_rate,2.0,False,1.537,0,False,right,0.0,0.0006454000249505043,2.01508059957996,2.0144351995550096,0.3648561998270452,0.8659090995788574,0.5010528997518122,
67,0.49822,0.1,2,0.39027,0.24081,0.79715,67,2.30012,-0.248,-0.12456,0.37367,5,1D1U,2.0,False,0.8,5,False,right,0.0,0.0006577000021934509,2.2913477001711726,2.290690000168979,0.3827888001687825,0.8828086000867188,0.5000197999179363,
68,0.49822,1.2,2,0.31554,0.42349,0.58956,68,2.11744,-0.424,-0.2159,0.29063,5,2U1D,2.0,False,0.509,2,False,right,0.0,0.0005414998158812523,2.115200700238347,2.114659200422466,0.30653540045022964,0.8065351000986993,0.4999996996484697,
69,0.49822,0.1,2,0.26572,0.43179,0.54804,69,1.95967,-0.562,-0.28232,0.2159,5,1U1D,2.0,False,0.489,5,True,right,0.0,0.0007457002066075802,1.9662056998349726,1.965459999628365,0.2575745000503957,0.7571935001760721,0.4996190001256764,
70,0.49822,1.2,1,0.29063,0.29893,0.70581,70,2.22538,-0.14,-0.06643,0.43179,5,2D1U,2.0,True,0.49,1,True,right,0.0,0.00030060019344091415,2.2236155001446605,2.2233148999512196,1.4231953998096287,1.9236995000392199,0.5005041002295911,
71,0.49822,0.1,1,0.29063,0.28232,0.88019,71,2.30011,-0.302,-0.14947,0.34875,5,1D1U,1.0,False,0.846,5,False,left,0.0,0.0002758000046014786,2.3063493999652565,2.306073599960655,1.514814999885857,2.0152541999705136,0.5004392000846565,
72,0.49822,1.2,1,0.41518,0.26572,0.51483,72,2.15065,-0.086,-0.04152,0.4567,5,2D1U,1.0,False,1.737,2,True,left,0.0,0.0006438000127673149,2.1744370004162192,2.173793200403452,1.3828138001263142,1.8823034004308283,0.49948960030451417,
73,0.49822,0.1,1,0.41518,0.30724,0.81376,73,2.29181,-0.478,-0.24081,0.25741,5,2U1D,2.0,True,1.001,3,True,right,0.0,0.0006630998104810715,2.3061060002073646,2.3054429003968835,1.4800734999589622,1.980959199834615,0.5008856998756528,
74,0.49822,1.2,1,0.34045,0.40688,0.47331,74,2.66548,0.9,0.4484,0.94662,5,lapse_rate,2.0,False,0.407,0,False,right,0.0,0.00026220036670565605,2.657544699963182,2.6572824995964766,1.75768329994753,2.2574586998671293,0.4997753999195993,
75,0.49822,1.2,1,0.2325,0.4484,0.86358,75,2.23368,-0.616,-0.30724,0.19098,5,1U1D,1.0,False,1.705,5,False,left,0.0,0.0006595999002456665,2.2329414999112487,2.232281900011003,1.2827619998715818,1.7819910999387503,0.4992291000671685,
76,0.49822,1.2,1,0.26572,0.29893,0.51483,76,1.62752,-0.9,-0.4484,0.04982,5,lapse_rate,2.0,True,0.481,0,False,right,0.0,0.0004197000525891781,1.6231250003911555,1.6227053003385663,0.823176700156182,1.324271600227803,0.5010949000716209,
77,0.49822,0.1,1,0.34045,0.41518,0.41518,77,1.92644,-0.478,-0.24081,0.25741,5,2U1D,2.0,True,1.353,3,True,right,0.0,0.0007909997366368771,1.931358200032264,1.9305672002956271,1.0059321001172066,1.506937799975276,0.5010056998580694,
78,0.49822,1.2,1,0.43179,0.40688,0.40688,78,2.06761,-0.356,-0.17438,0.32384,5,1D1U,2.0,True,1.016,5,False,right,0.0,0.0007523996755480766,2.07272050017491,2.0719681004993618,1.1564744003117085,1.6565354000777006,0.5000609997659922,
79,0.49822,0.1,1,0.2159,0.29893,0.74733,79,1.92645,-0.67,-0.33215,0.16607,5,1U1D,2.0,True,0.112,5,False,right,0.0,0.0009102998301386833,1.922887200023979,1.9219769001938403,1.1223945999518037,1.6224595000967383,0.5000649001449347,
80,0.49822,1.2,2,0.44009,0.2159,0.78054,80,2.36654,-0.14,-0.06643,0.43179,5,2D1U,2.0,False,1.222,3,True,right,0.0,0.0002827998250722885,2.3720732000656426,2.3717904002405703,0.4306624000892043,0.9303883002139628,0.4997259001247585,
81,0.49822,0.1,2,0.38197,0.30724,0.53974,81,1.91815,-0.616,-0.30724,0.19098,5,1U1D,1.0,True,0.332,6,True,left,0.0,0.0004172995686531067,1.9234359003603458,1.9230186007916927,0.37373040011152625,0.8736401000060141,0.49990969989448786,
82,0.49822,1.2,2,0.24081,0.33215,0.88019,82,2.35825,-0.194,-0.09964,0.40688,5,2D1U,2.0,False,0.37,3,False,right,0.0,0.000444900244474411,2.357106300070882,2.3566613998264074,0.23285569995641708,0.7321569002233446,0.4993012002669275,
83,0.49822,0.1,2,0.30724,0.31554,0.53143,83,1.94306,-0.424,-0.2159,0.29063,5,2U1D,1.0,True,0.331,4,True,left,0.0,0.0006285998970270157,1.9481635000556707,1.9475349001586437,0.29767580004408956,0.7985173999331892,0.5008415998890996,
84,0.49822,1.2,2,0.25741,0.28232,0.4567,84,1.54447,-0.9,-0.4484,0.04982,5,lapse_rate,1.0,True,2.168,0,False,left,0.0,0.0007242001593112946,1.5487822997383773,1.548058099579066,0.24823059979826212,0.7478833999484777,0.4996528001502156,
85,0.49822,1.2,2,0.2242,0.19929,0.56465,85,1.83511,-0.302,-0.14947,0.34875,5,1D1U,1.0,True,1.653,6,True,left,0.0,0.0005510998889803886,1.8551452001556754,1.854594100266695,0.21378340013325214,0.713459599763155,0.49967619962990284,
86,0.49822,0.1,2,0.42349,0.34875,0.4484,86,2.00949,-0.424,-0.2159,0.29063,5,2U1D,2.0,False,1.209,4,True,right,0.0,0.0007106000557541847,2.0147343003191054,2.014023700263351,0.4147709999233484,0.9143671002238989,0.49959610030055046,
87,0.49822,1.2,2,0.44009,0.24911,0.63108,87,2.76512,0.9,0.4484,0.94662,5,lapse_rate,2.0,True,0.283,0,False,right,0.0,0.0004867999814450741,2.7559676999226213,2.755480899941176,0.43177480017766356,0.931324599776417,0.49954979959875345,
88,0.49822,1.2,2,0.42349,0.32384,0.49822,88,2.11744,-0.248,-0.12456,0.37367,5,2D1U,2.0,False,1.037,3,False,right,0.0,0.0007978999055922031,2.12263030000031,2.1218324000947177,0.4142270004376769,0.9142119004391134,0.49998490000143647,
89,0.49822,0.1,2,0.20759,0.29063,0.70581,89,1.91815,-0.562,-0.28232,0.2159,5,1U1D,1.0,True,0.307,6,False,left,0.0,0.0007789996452629566,1.9065940002910793,1.9058150006458163,0.19787769997492433,0.6982108000665903,0.500333100091666,
90,0.49822,1.2,1,0.36536,0.43179,0.43179,90,2.10083,-0.248,-0.12456,0.37367,5,1D1U,2.0,True,0.976,6,False,right,0.0,0.0002896999940276146,2.105967399664223,2.1056776996701956,1.1649082996882498,1.6646795999258757,0.49977130023762584,
91,0.49822,0.1,1,0.43179,0.36536,0.83867,91,2.54092,-0.194,-0.09964,0.40688,5,1D1U,1.0,False,0.111,6,False,left,0.0,0.0007475996389985085,2.549641099758446,2.5488935001194477,1.6746345995925367,2.1747137997299433,0.5000792001374066,
92,0.49822,1.2,1,0.39027,0.39858,0.53974,92,2.08422,-0.478,-0.24081,0.25741,5,2U1D,2.0,True,0.858,5,True,right,0.0,0.0004281001165509224,2.0905247000046074,2.0900965998880565,1.182934199925512,1.6832419000566006,0.5003077001310885,
93,0.49822,0.1,1,0.25741,0.24911,0.4484,93,1.80189,-0.302,-0.14947,0.34875,5,2D1U,2.0,True,0.589,3,False,right,0.0,0.0008021998219192028,1.8056915001943707,1.8048893003724515,1.0475997002795339,1.5474133002571762,0.4998135999776423,
94,0.49822,1.2,1,0.29063,0.41518,0.58956,94,2.0427,-0.508,-0.25741,0.24911,5,1U1D,2.0,True,0.677,6,False,right,0.0,0.0008657998405396938,2.0577634000219405,2.0568976001814008,1.1237631002441049,1.6238343003205955,0.5000712000764906,
95,0.49822,0.1,1,0.24911,0.39858,0.76394,95,2.85647,0.9,0.4484,0.94662,5,lapse_rate,1.0,True,0.46,0,False,left,0.0,0.000725999940186739,2.864313299767673,2.8635872998274863,1.956556299701333,2.4562757997773588,0.4997195000760257,
96,0.49822,0.1,1,0.43179,0.27402,0.66429,96,2.24199,-0.248,-0.12456,0.37367,5,1D1U,2.0,True,0.733,7,True,right,0.0,0.0007654000073671341,2.2559018000029027,2.2551363999955356,1.4726861999370158,1.9721840997226536,0.49949789978563786,
97,0.49822,0.1,1,0.24911,0.34045,0.59786,97,1.73546,-0.9,-0.4484,0.04982,5,lapse_rate,2.0,True,1.284,0,False,right,0.0,0.0006440998986363411,1.7392454999499023,1.738601400051266,0.889561700168997,1.3892975999042392,0.49973589973524213,
98,0.49822,1.2,1,0.29063,0.27402,0.4567,98,1.79359,-0.454,-0.2242,0.27402,5,1U1D,2.0,True,0.645,6,False,right,0.0,0.0007378002628684044,1.797917400021106,1.7971795997582376,1.0151328998617828,1.5149753000587225,0.4998424001969397,
99,0.49822,0.1,1,0.33215,0.27402,0.73903,99,2.10083,-0.478,-0.24081,0.25741,5,2U1D,2.0,True,1.298,5,True,right,0.0,0.0007564998231828213,2.105894900392741,2.105138400569558,1.322647400200367,1.8230175003409386,0.5003701001405716,
100,0.49822,1.2,2,0.26572,0.35706,0.71412,100,2.18387,-0.302,-0.14947,0.34875,5,2D1U,2.0,False,1.007,3,False,right,0.0,0.0002701999619603157,2.1989672002382576,2.1986970002762973,0.25707050040364265,0.7570891003124416,0.5000185999087989,
101,0.49822,0.1,2,0.35706,0.20759,0.4484,101,1.91815,-0.194,-0.09964,0.40688,5,1D1U,2.0,False,0.347,8,True,right,0.0,0.0007356996648013592,1.9239326999522746,1.9231970002874732,0.34905869979411364,0.8491147998720407,0.5000561000779271,
102,0.49822,1.2,2,0.31554,0.2159,0.63938,102,1.99288,-0.356,-0.17438,0.32384,5,2D1U,1.0,True,0.661,3,False,left,0.0,0.0007437001913785934,2.00748569983989,2.0067419996485114,0.30749949999153614,0.8079523998312652,0.5004528998397291,
103,0.49822,0.1,2,0.2159,0.28232,0.84697,103,2.13404,-0.424,-0.2159,0.29063,5,2U1D,2.0,False,0.39,6,True,right,0.0,0.0007184999994933605,2.1320372000336647,2.1313187000341713,0.2079197997227311,0.7078136000782251,0.499893800355494,
104,0.49822,1.2,2,0.36536,0.2242,0.58956,104,2.62396,0.9,0.4484,0.94662,5,lapse_rate,2.0,True,0.162,0,False,right,0.0,0.0005715996958315372,2.6237503001466393,2.623178700450808,0.3572752997279167,0.8571180999279022,0.4998428001999855,
105,0.49822,1.2,2,0.42349,0.24081,0.63938,105,2.10083,-0.4,-0.19929,0.29893,5,1U1D,1.0,True,0.285,6,False,left,0.0,0.0007839999161660671,2.0973123996518552,2.096528399735689,0.4144554999656975,0.9145706999115646,0.5001151999458671,
106,0.49822,0.1,2,0.2325,0.28232,0.57295,106,1.90983,-0.346,-0.17438,0.32384,5,1U1D,1.0,True,0.374,6,False,left,0.0,0.0007919003255665302,1.9156492003239691,1.9148572999984026,0.2244000001810491,0.7237729001790285,0.4993728999979794,
107,0.49822,1.2,2,0.41518,0.28232,0.6809,107,2.25029,-0.248,-0.12456,0.37367,5,1D1U,2.0,False,0.766,9,True,right,0.0,0.00027350010350346565,2.2562489002011716,2.255975400097668,0.40546829998493195,0.9056748002767563,0.5002065002918243,
108,0.49822,0.1,2,0.29063,0.27402,0.70581,108,1.8185,-0.9,-0.4484,0.04982,5,lapse_rate,1.0,True,0.934,0,False,left,0.0,0.0007210997864603996,1.815448499750346,1.8147273999638855,0.28298990009352565,0.782056299969554,0.4990663998760283,
109,0.49822,0.1,2,0.29893,0.31554,0.47331,109,1.90984,-0.356,-0.17438,0.32384,5,2D1U,2.0,False,0.319,3,False,right,0.0,0.00028929999098181725,1.9224026999436319,1.92211339995265,0.2899314998649061,0.7899453998543322,0.5000138999894261,
110,0.49822,1.2,1,0.24081,0.30724,0.88019,110,2.18387,-0.478,-0.24081,0.25741,5,2U1D,2.0,True,0.523,7,True,right,0.0,0.0005303998477756977,2.1900581000372767,2.189527700189501,1.374096400104463,1.873638499993831,0.4995420998893678,
111,0.49822,0.1,1,0.32384,0.33215,0.73072,111,1.93475,-0.9,-0.4484,0.04982,5,lapse_rate,2.0,True,0.168,0,False,right,0.0,0.0003182999789714813,1.9394559999927878,1.9391377000138164,1.0986019000411034,1.5988535997457802,0.5002516997046769,
112,0.49822,0.1,1,0.26572,0.39027,0.51483,112,1.92645,-0.478,-0.24081,0.25741,5,2U1D,2.0,True,0.496,7,True,right,0.0,0.0007823999039828777,1.9396379999816418,1.938855600077659,1.0315721998922527,1.5315676000900567,0.499995400197804,
113,0.49822,1.2,1,0.2242,0.2242,0.80546,113,2.10083,-0.302,-0.14947,0.34875,5,1D1U,2.0,True,0.82,9,False,right,0.0,0.0002807001583278179,2.1062729000113904,2.1059921998530626,1.3729038001038134,1.8730448000133038,0.5001409999094903,
114,0.49822,0.1,1,0.39027,0.42349,0.86358,114,2.53262,-0.292,-0.14947,0.35706,5,1U1D,2.0,True,0.984,6,False,right,0.0,0.0002592001110315323,2.5308112003840506,2.530552000273019,1.606030400376767,2.1063563004136086,0.5003259000368416,
115,0.49822,1.2,1,0.39027,0.34875,0.63108,115,2.16725,-0.41,-0.20759,0.29893,5,2D1U,2.0,True,1.983,3,False,right,0.0,0.0007868004031479359,2.1735614999197423,2.1727746995165944,1.3159205997362733,1.8155887997709215,0.4996682000346482,
116,0.49822,0.1,1,0.44009,0.38197,0.73903,116,2.35824,-0.41,-0.20759,0.29893,5,2D1U,2.0,True,1.245,3,False,right,0.0,0.0007980000227689743,2.3577489000745118,2.356950900051743,1.4744417001493275,1.9741800003685057,0.4997383002191782,
117,0.49822,1.2,1,0.24911,0.24911,0.74733,117,2.11744,-0.248,-0.12456,0.37367,5,1D1U,1.0,False,0.917,10,True,left,0.0,0.0003070002421736717,2.1154550998471677,2.115148099604994,1.3657271000556648,1.865614800248295,0.4998877001926303,
118,0.49822,0.1,1,0.37367,0.24911,0.39858,118,1.5694,-0.9,-0.4484,0.04982,5,lapse_rate,2.0,True,1.454,0,False,right,0.0,0.0007424000650644302,1.5652968999929726,1.5645544999279082,0.8146915002726018,1.3150484999641776,0.5003569996915758,
119,0.49822,0.1,1,0.37367,0.2325,0.53143,119,1.92645,-0.424,-0.2159,0.29063,5,2U1D,2.0,True,0.582,8,True,right,0.0,0.000719199888408184,1.9243502002209425,1.9236310003325343,1.1914353002794087,1.6903067003004253,0.4988714000210166,
120,0.49822,1.2,2,0.42349,0.24911,0.51483,120,2.06762,-0.238,-0.11625,0.38197,5,1U1D,2.0,False,0.406,6,False,right,0.0,0.0007751001976430416,2.073059399612248,2.072284299414605,0.41477979999035597,0.9141735997982323,0.49939379980787635,
121,0.49822,0.1,2,0.29893,0.29063,0.80546,121,2.2503,-0.292,-0.14947,0.35706,5,1U1D,1.0,True,0.605,7,True,left,0.0,0.0003569996915757656,2.2737063001841307,2.273349300492555,0.29047639993950725,0.7901276000775397,0.49965120013803244,
122,0.49822,1.2,2,0.2159,0.25741,0.63108,122,1.92645,-0.356,-0.17438,0.32384,5,2D1U,1.0,True,0.53,4,True,left,0.0,0.0002545001916587353,1.940188500098884,1.9399339999072254,0.20689009968191385,0.7072068997658789,0.5003168000839651,
123,0.49822,0.1,2,0.2242,0.30724,0.83867,123,2.81495,0.9,0.4484,0.94662,5,lapse_rate,2.0,True,0.182,0,False,right,0.0,0.0004960000514984131,2.8238301002420485,2.82333410019055,0.21487380005419254,0.715043400414288,0.5001696003600955,
124,0.49822,0.1,2,0.26572,0.28232,0.77224,124,2.10913,-0.424,-0.2159,0.29063,5,2U1D,1.0,True,0.346,8,True,left,0.0,0.0007747998461127281,2.1231017000973225,2.1223269002512097,0.25659439992159605,0.756270700134337,0.4996763002127409,
125,0.49822,1.2,2,0.38197,0.29063,0.42349,125,1.94306,-0.302,-0.14947,0.34875,5,1D1U,1.0,True,0.916,11,True,left,0.0,0.00028980011120438576,1.9479228002019227,1.9476330000907183,0.37304520001634955,0.8731927000917494,0.5001475000753999,
126,0.49822,0.1,2,0.26572,0.39858,0.85528,126,2.39977,-0.238,-0.11625,0.38197,5,1U1D,2.0,False,0.22,8,True,right,0.0,0.0002759997732937336,2.415469500236213,2.4151935004629195,0.2567859999835491,0.7560473000630736,0.4992613000795245,
127,0.49822,1.2,2,0.2325,0.40688,0.64769,127,2.10913,-0.356,-0.17438,0.32384,5,2D1U,1.0,True,0.309,4,True,left,0.0,0.0007348000071942806,2.122727799694985,2.121992999687791,0.22244989965111017,0.7234427998773754,0.5009929002262652,
128,0.49822,0.1,2,0.19929,0.44009,0.69751,128,2.20878,-0.248,-0.12456,0.37367,5,1D1U,2.0,False,0.931,12,True,right,0.0,0.0007799998857080936,2.2318455004133284,2.2310655005276203,0.18956500012427568,0.6898330003023148,0.5002680001780391,
129,0.49822,1.2,2,0.40688,0.34045,0.75563,129,2.31672,-0.37,-0.18268,0.31554,5,2U1D,2.0,False,0.665,8,False,right,0.0,0.0004914002493023872,2.3155765999108553,2.315085199661553,0.3996327999047935,0.8995802998542786,0.49994749994948506,
130,0.49822,1.2,1,0.25741,0.36536,0.78054,130,2.84815,0.9,0.4484,0.94662,5,lapse_rate,2.0,False,1.004,0,False,right,0.0,0.000502999871969223,2.8488946999423206,2.8483917000703514,1.9834724999964237,2.482696999795735,0.49922449979931116,
131,0.49822,0.1,1,0.2325,0.41518,0.66429,131,2.15894,-0.302,-0.14947,0.34875,5,1D1U,2.0,True,2.435,13,True,right,0.0,0.0007450003176927567,2.1740194000303745,2.1732743997126818,1.2409410998225212,1.7403529998846352,0.499411900062114,
132,0.49822,1.2,1,0.38197,0.34875,0.63108,132,2.15065,-0.424,-0.2159,0.29063,5,2U1D,2.0,True,0.304,9,True,right,0.0,0.0005721999332308769,2.16324400017038,2.162671800237149,1.2966205002740026,1.7965047000907362,0.4998841998167336,
133,0.49822,1.2,1,0.29063,0.35706,0.58956,133,2.68209,0.9,0.4484,0.94662,5,lapse_rate,2.0,False,1.166,0,False,right,0.0,0.00025669997557997704,2.697773900348693,2.697517200373113,1.822174500208348,2.322542800102383,0.5003682998940349,
134,0.49822,0.1,1,0.39027,0.33215,0.58126,134,2.15896,-0.292,-0.14947,0.35706,5,1U1D,1.0,False,0.302,9,True,left,0.0,0.0006490997038781643,2.1567020998336375,2.1560530001297593,1.323227500077337,1.823163100052625,0.4999355999752879,
135,0.49822,1.2,1,0.36536,0.2325,0.86358,135,2.30841,-0.302,-0.14947,0.34875,5,2D1U,1.0,False,0.215,4,False,left,0.0,0.0007090000435709953,2.313577299937606,2.312868299894035,1.572227600030601,2.072421600110829,0.5001940000802279,
136,0.49822,0.1,1,0.36536,0.41518,0.62278,136,2.22538,-0.346,-0.17438,0.32384,5,1U1D,1.0,False,1.16,9,False,left,0.0,0.0007449998520314693,2.223553900141269,2.2228089002892375,1.3070235000923276,1.807080099824816,0.5000565997324884,
137,0.49822,1.2,1,0.43179,0.35706,0.84697,137,2.45788,-0.356,-0.17438,0.32384,5,2D1U,1.0,False,0.812,5,True,left,0.0,0.00028560031205415726,2.4562834999524057,2.4559978996403515,1.5990414996631444,2.0982387997210026,0.49919730005785823,
138,0.49822,0.1,1,0.25741,0.38197,0.6726,138,2.18387,-0.248,-0.12456,0.37367,5,1D1U,2.0,True,0.272,14,True,right,0.0,0.000754999928176403,2.1907592001371086,2.190004200208932,1.2993586002849042,1.799012300092727,0.4996536998078227,
139,0.49822,1.2,1,0.29063,0.34875,0.8968,139,2.32503,-0.424,-0.2159,0.29063,5,2U1D,2.0,True,0.853,9,True,right,0.0,0.00026190001517534256,2.3404626003466547,2.3402007003314793,1.4742998001165688,1.9745559003204107,0.5002561002038419,
140,0.49822,0.1,2,0.30724,0.2325,0.44009,140,2.42467,0.9,0.4484,0.94662,5,lapse_rate,2.0,True,1.351,0,False,right,0.0,0.0005072001367807388,2.4233557004481554,2.4228485003113747,0.2974751000292599,0.7977951001375914,0.5003200001083314,
141,0.49822,0.1,2,0.2159,0.38197,0.42349,141,1.92646,-0.194,-0.09964,0.40688,5,1D1U,1.0,True,1.492,14,False,left,0.0,0.00027449987828731537,1.939690100029111,1.9394156001508236,0.20691519975662231,0.7067650998942554,0.4998499001376331,
142,0,0,0,0,0,0,0,0,0,0,0,0,0,0,0,0,0,0,0,0,0,0,0,0,0,0,0
143,0.49822,1.2,2,0.4484,0.43179,0.58956,143,2.2669,-0.41,-0.20759,0.29893,5,2D1U,1.0,True,0.729,5,False,left,0.0,0.0004259999841451645,2.27265809988603,2.272232099901885,0.4400125998072326,0.9413950997404754,0.5013824999332428,
144,0.49822,0.1,2,0.26572,0.20759,0.48992,144,1.76038,-0.4,-0.19929,0.29893,5,1U1D,1.0,True,1.301,9,False,left,0.0,0.0006502000615000725,1.7550974003970623,1.7544472003355622,0.25570520013570786,0.7547599002718925,0.4990547001361847,
145,0.49822,1.2,2,0.34045,0.35706,0.6892,145,2.20047,-0.37,-0.18268,0.31554,5,2U1D,1.0,True,0.787,10,True,left,0.0,0.0006899996660649776,2.2065616003237665,2.2058716006577015,0.3311829003505409,0.8309559002518654,0.4997729999013245,
146,0.49822,0.1,2,0.36536,0.43179,0.78885,146,2.51601,-0.14,-0.06643,0.43179,5,1D1U,2.0,False,6.413,14,False,right,0.0,0.0005698003806173801,2.5303163998760283,2.529746599495411,0.3549537998624146,0.8555936999619007,0.5006399000994861,
147,0.49822,1.2,2,0.42349,0.39858,0.61447,147,2.23369,-0.41,-0.20759,0.29893,5,2D1U,2.0,False,2.36,5,False,right,0.0,0.0005447999574244022,2.2317258999682963,2.231181100010872,0.41522879991680384,0.9150642002932727,0.4998354003764689,
148,0.49822,0.1,2,0.2242,0.43179,0.88849,148,2.30842,-0.464,-0.2325,0.26572,5,2D1U,2.0,False,3.721,5,False,right,0.0,0.0007274998351931572,2.314120300114155,2.3133928002789617,0.21472820034250617,0.7141603999771178,0.4994321996346116,
149,0.49822,1.2,2,0.33215,0.33215,0.57295,149,2.05101,-0.37,-0.18268,0.31554,5,2U1D,1.0,True,1.037,10,True,left,0.0,0.0007637999951839447,2.057152200024575,2.056388400029391,0.32426430005580187,0.8239377001300454,0.49967340007424355,
150,0.49822,0.1,1,0.25741,0.33215,0.83037,150,2.24199,-0.346,-0.17438,0.32384,5,1U1D,2.0,True,0.355,10,True,right,0.0,0.0007346998900175095,2.2487971000373363,2.248062400147319,1.406608700286597,1.9072997001931071,0.5006909999065101,
151,0.49822,1.2,1,0.33215,0.24081,0.46501,151,1.777,-0.518,-0.25741,0.24081,5,2D1U,2.0,True,0.207,5,False,right,0.0,0.00036509986966848373,1.7813653000630438,1.7810002001933753,1.0319990999996662,1.5314007000997663,0.49940160010010004,
152,0.49822,0.1,1,0.38197,0.34875,0.4567,152,2.0427,-0.292,-0.14947,0.35706,5,1U1D,1.0,False,0.116,10,False,left,0.0,0.0008141002617776394,2.047542499843985,2.046728399582207,1.1894209999591112,1.6888174996711314,0.49939649971202016,
153,0.49822,1.2,1,0.25741,0.35706,0.4484,153,1.90154,-0.316,-0.15777,0.34045,5,2U1D,1.0,False,0.129,10,False,left,0.0,0.0008378000929951668,1.9068475998938084,1.9060097998008132,1.040272600017488,1.540018499828875,0.49974589981138706,
154,0.49822,0.1,1,0.41518,0.37367,0.83867,154,2.53262,-0.194,-0.09964,0.40688,5,1D1U,1.0,False,0.114,15,True,left,0.0,0.000731700100004673,2.523687799926847,2.5229560998268425,1.6568180001340806,2.1570382001809776,0.5002202000468969,
155,0.49822,1.2,1,0.42349,0.2242,0.82206,155,2.20878,-0.518,-0.25741,0.24081,5,2D1U,2.0,True,0.219,5,False,right,0.0,0.000283299945294857,2.224043400026858,2.223760100081563,1.4823898002505302,1.9825805998407304,0.5001907995902002,
156,0.49822,0.1,1,0.44009,0.42349,0.86358,156,2.54922,-0.346,-0.17438,0.32384,5,1U1D,1.0,False,0.453,11,True,left,0.0,0.0007926998659968376,2.5569509002380073,2.5561582003720105,1.6237738002091646,2.124266800004989,0.5004929997958243,
157,0.49822,1.2,1,0.39858,0.27402,0.6892,157,2.23369,-0.248,-0.12456,0.37367,5,1D1U,2.0,True,0.91,15,False,right,0.0,0.0006279000081121922,2.229712300002575,2.2290843999944627,1.4550494998693466,1.954729899764061,0.49968039989471436,
158,0.49822,0.1,1,0.20759,0.29063,0.77224,158,2.0344,-0.464,-0.2325,0.26572,5,2D1U,2.0,True,0.591,6,True,right,0.0,0.00028319982811808586,2.0315430001355708,2.0312598003074527,1.2403586003929377,1.7393389004282653,0.4989803000353277,
159,0.49822,1.2,1,0.43179,0.34875,0.75563,159,2.30011,-0.464,-0.2325,0.26572,5,2D1U,2.0,True,0.54,6,True,right,0.0,0.00029540015384554863,2.3002534001134336,2.299957999959588,1.4503138000145555,1.9501200001686811,0.4998062001541257,
160,0.49822,0.1,2,0.41518,0.32384,0.83867,160,2.39145,-0.37,-0.18268,0.31554,5,2U1D,1.0,True,0.378,11,True,left,0.0,0.0007540001533925533,2.389788799919188,2.3890347997657955,0.4060756997205317,0.9063595999032259,0.5002839001826942,
161,0.49822,1.2,2,0.41518,0.34875,0.73072,161,2.39975,-0.194,-0.09964,0.40688,5,1D1U,2.0,False,0.49,16,True,right,0.0,0.0003897002898156643,2.397521900013089,2.3971321997232735,0.40619240002706647,0.9060173998586833,0.4998249998316169,
162,0.49822,0.1,2,0.32384,0.27402,0.58126,162,2.05101,-0.248,-0.12456,0.37367,5,1D1U,2.0,False,0.326,17,True,right,0.0,0.000777900218963623,2.0645324997603893,2.0637545995414257,0.31382460007444024,0.8147562998346984,0.5009316997602582,
163,0.49822,1.2,2,0.43179,0.42349,0.70581,163,2.37485,-0.37,-0.18268,0.31554,5,2U1D,2.0,False,0.558,11,True,right,0.0,0.0007960000075399876,2.3653931003063917,2.3645971002988517,0.4240628001280129,0.9236365002579987,0.4995737001299858,
164,0.49822,0.1,2,0.2242,0.26572,0.44009,164,1.72716,-0.41,-0.20759,0.29893,5,2D1U,1.0,True,1.338,6,False,left,0.0,0.0007935999892652035,1.740567300003022,1.7397737000137568,0.2160065001808107,0.7152741001918912,0.4992676000110805,
165,0.49822,1.2,2,0.24911,0.2242,0.73903,165,2.00949,-0.4,-0.19929,0.29893,5,1U1D,1.0,True,0.575,11,False,left,0.0,0.00027079973369836807,2.0156604000367224,2.015389600303024,0.24033850012347102,0.7410000003874302,0.5006615002639592,
166,0.49822,0.1,2,0.38197,0.26572,0.57295,166,2.0427,-0.346,-0.17438,0.32384,5,1U1D,1.0,True,0.514,12,True,left,0.0,0.0006142002530395985,2.040747500024736,2.0401332997716963,0.37429909966886044,0.8740658997558057,0.4997668000869453,
167,0.49822,1.2,2,0.35706,0.29893,0.59786,167,2.10082,-0.302,-0.14947,0.34875,5,1D1U,1.0,True,0.551,17,False,left,0.0,0.0003567999228835106,2.0969460997730494,2.096589299850166,0.3475356996059418,0.8471273998729885,0.4995917002670467,
168,0.49822,0.1,2,0.4484,0.24911,0.75563,168,2.24199,-0.424,-0.2159,0.29063,5,2U1D,2.0,False,0.792,11,False,right,0.0,0.00029159989207983017,2.239841400180012,2.239549800287932,0.4393569999374449,0.9398961002007127,0.5005391002632678,
169,0.49822,1.2,2,0.29063,0.39027,0.62278,169,2.10083,-0.41,-0.20759,0.29893,5,2D1U,2.0,False,0.422,6,False,right,0.0,0.0002929000183939934,2.098293200135231,2.098000300116837,0.2816356001421809,0.7816824000328779,0.500046799890697,
170,0.49822,0.1,1,0.39027,0.35706,0.85528,170,2.45789,-0.292,-0.14947,0.35706,5,1U1D,1.0,False,2.47,12,False,left,0.0,0.00032609980553388596,2.456673000007868,2.456346900202334,1.5992689998820424,2.099444900173694,0.5001759002916515,
171,0.49822,1.2,1,0.37367,0.43179,0.75563,171,2.43298,-0.248,-0.12456,0.37367,5,1D1U,2.0,True,0.574,18,True,right,0.0,0.000735000241547823,2.4398715998977423,2.4391365996561944,1.4981641001068056,1.998068599961698,0.4999044998548925,
172,0.49822,0.1,1,0.42349,0.44009,0.74733,172,2.43297,-0.346,-0.17438,0.32384,5,1U1D,1.0,False,2.235,13,True,left,0.0,0.0003074998967349529,2.4399953996762633,2.4396878997795284,1.489436799660325,1.9893501996994019,0.4999134000390768,
173,0.49822,1.2,1,0.24911,0.36536,0.84697,173,2.22538,-0.464,-0.2325,0.26572,5,2D1U,2.0,True,0.675,7,True,right,0.0,0.0006639999337494373,2.240750700235367,2.2400867003016174,1.3571628001518548,1.8572521000169218,0.500089299865067,
174,0.49822,0.1,1,0.41518,0.2325,0.83037,174,2.24199,-0.464,-0.2325,0.26572,5,2D1U,2.0,True,0.882,7,True,right,0.0,0.00029430026188492775,2.249468000140041,2.249173699878156,1.5074558998458087,2.0073509998619556,0.4998951000161469,
175,0.49822,1.2,1,0.32384,0.20759,0.76394,175,2.051,-0.478,-0.24081,0.25741,5,2U1D,2.0,True,0.645,11,False,right,0.0,0.000775500200688839,2.0653174999170005,2.0645419997163117,1.3401243998669088,1.8400888997130096,0.4999644998461008,
176,0.49822,0.1,1,0.2242,0.25741,0.71412,176,2.10083,-0.194,-0.09964,0.40688,5,1D1U,1.0,False,0.392,18,False,left,0.0,0.0002514999359846115,2.0976074999198318,2.097355999983847,1.3391609000973403,1.8397160000167787,0.5005550999194384,
177,0.49822,1.2,1,0.31554,0.20759,0.62278,177,1.90154,-0.478,-0.24081,0.25741,5,2U1D,2.0,True,0.107,11,False,right,0.0,0.0002748998813331127,1.9057718999683857,1.9054970000870526,1.189468199852854,1.689223799854517,0.49975560000166297,
178,0.49822,0.1,1,0.34045,0.20759,0.59786,178,1.94305,-0.41,-0.20759,0.29893,5,2D1U,1.0,False,1.551,8,True,left,0.0,0.0002800002694129944,1.9491459000855684,1.9488658998161554,1.2324006999842823,1.7334048002958298,0.5010041003115475,
179,0.49822,1.2,1,0.39858,0.34875,0.47331,179,1.98458,-0.464,-0.2325,0.26572,5,2D1U,2.0,True,0.756,9,True,right,0.0,0.0007357997819781303,1.991282899864018,1.9905471000820398,1.1319189998321235,1.6323102000169456,0.5003912001848221,
180,0.49822,0.1,2,0.36536,0.20759,0.58126,180,1.95136,-0.4,-0.19929,0.29893,5,1U1D,2.0,False,1.514,13,False,right,0.0,0.00027219997718930244,1.955714300274849,1.9554421002976596,0.35601000022143126,0.8556929999031126,0.4996829996816814,
181,0.49822,1.2,2,0.29063,0.41518,0.72242,181,2.19217,-0.464,-0.2325,0.26572,5,2D1U,1.0,True,0.112,9,True,left,0.0,0.0010243002325296402,2.206603500060737,2.2055791998282075,0.28163980040699244,0.7820991002954543,0.5004592998884618,
182,0.49822,0.1,2,0.42349,0.29063,0.85528,182,2.35825,-0.424,-0.2159,0.29063,5,2U1D,1.0,True,1.354,12,True,left,0.0,0.0007853996939957142,2.373528600204736,2.3727432005107403,0.41533120023086667,0.9143252000212669,0.49899399979040027,
183,0.49822,1.2,2,0.27402,0.25741,0.77224,183,2.17556,-0.248,-0.12456,0.37367,5,1D1U,1.0,True,0.729,19,True,left,0.0,0.0002978998236358166,2.1826871996745467,2.182389299850911,0.2661915998905897,0.7651813998818398,0.49898979999125004,
184,0.49822,0.1,2,0.2159,0.24911,0.69751,184,2.06762,-0.194,-0.09964,0.40688,5,1D1U,2.0,False,0.647,20,True,right,0.0,0.0007943003438413143,2.081688600126654,2.0808942997828126,0.20713800005614758,0.7067893999628723,0.4996513999067247,
185,0.49822,1.2,2,0.37367,0.36536,0.6809,185,2.19217,-0.454,-0.2242,0.27402,5,1U1D,2.0,False,1.101,13,False,right,0.0,0.000519199762493372,2.190958300139755,2.1904391003772616,0.36605089996010065,0.8659445000812411,0.4998936001211405,
186,0.49822,0.1,2,0.29063,0.34875,0.81376,186,2.32503,-0.248,-0.12456,0.37367,5,1D1U,2.0,False,0.565,21,True,right,0.0,0.0007301000878214836,2.331458800006658,2.3307286999188364,0.28183719981461763,0.7820227998308837,0.5001856000162661,
187,0.49822,1.2,2,0.30724,0.24081,0.40688,187,1.8019,-0.302,-0.14947,0.34875,5,1D1U,2.0,False,1.977,21,False,right,0.0,0.0002811998128890991,1.8064731997437775,1.8061919999308884,0.2984619000926614,0.797953300178051,0.4994914000853896,
188,0.49822,0.1,2,0.44009,0.42349,0.57295,188,2.22538,-0.424,-0.2159,0.29063,5,2U1D,2.0,False,0.632,12,True,right,0.0,0.0006498000584542751,2.2387971999123693,2.238147399853915,0.43111390015110373,0.9307266999967396,0.4996127998456359,
189,0.49822,1.2,2,0.27402,0.41518,0.75563,189,2.24198,-0.41,-0.20759,0.29893,5,2D1U,1.0,True,0.242,10,True,left,0.0,0.00028089992702007294,2.248114800080657,2.247833900153637,0.26530229998752475,0.7653693002648652,0.5000670002773404,
190,0.49822,0.1,1,0.33215,0.41518,0.71412,190,2.20878,-0.508,-0.25741,0.24911,5,1U1D,2.0,True,1.528,13,False,right,0.0,0.0006482996977865696,2.216706100385636,2.2160578006878495,1.2907273001037538,1.790452000219375,0.4997247001156211,
191,0.49822,1.2,1,0.44009,0.25741,0.87189,191,2.32502,-0.478,-0.24081,0.25741,5,2U1D,2.0,True,0.2,13,True,right,0.0,0.0007258998230099678,2.3410398000851274,2.3403139002621174,1.566193399950862,2.0655195000581443,0.4993261001072824,
192,0.49822,0.1,1,0.41518,0.34875,0.56465,192,2.15064,-0.356,-0.17438,0.32384,5,1D1U,2.0,True,0.447,21,False,right,0.0,0.0002862000837922096,2.1641257000155747,2.1638394999317825,1.2983117001131177,1.797813800163567,0.49950210005044937,
193,0.49822,1.2,1,0.32384,0.34045,0.83037,193,2.29181,-0.41,-0.20759,0.29893,5,2D1U,2.0,True,0.258,10,True,right,0.0,0.000627400353550911,2.290228999685496,2.289601599331945,1.4487774996086955,1.9487810996361077,0.5000036000274122,
194,0.49822,0.1,1,0.38197,0.43179,0.60617,194,2.19217,-0.454,-0.2242,0.27402,5,1U1D,2.0,True,0.499,14,True,right,0.0,0.0006576003506779671,2.182222600094974,2.181564999744296,1.2570582004263997,1.7571831000968814,0.5001248996704817,
195,0.49822,1.2,1,0.26572,0.25741,0.83867,195,2.11743,-0.478,-0.24081,0.25741,5,2U1D,2.0,True,0.418,13,True,right,0.0,0.00040929997339844704,2.1326795001514256,2.132270200178027,1.357758100144565,1.8578591998666525,0.5001010997220874,
196,0.49822,0.1,1,0.36536,0.37367,0.76394,196,2.30012,-0.4,-0.19929,0.29893,5,1U1D,1.0,False,0.878,14,False,left,0.0,0.0002921000123023987,2.3143548001535237,2.3140627001412213,1.4227247000671923,1.9222268001176417,0.49950210005044937,
197,0.49822,1.2,1,0.27402,0.25741,0.46501,197,1.78529,-0.424,-0.2159,0.29063,5,2U1D,1.0,False,0.695,14,True,left,0.0,0.0007413001731038094,1.781999200116843,1.7812578999437392,1.0236670998856425,1.5231776000000536,0.4995105001144111,
198,0.49822,0.1,1,0.39027,0.2325,0.44009,198,1.88492,-0.356,-0.17438,0.32384,5,2D1U,2.0,True,0.458,10,False,right,0.0,0.0002807998098433018,1.873304400127381,1.8730236003175378,1.1485071000643075,1.6482184999622405,0.499711399897933,
199,0.49822,1.2,1,0.41518,0.34875,0.47331,199,2.0593,-0.356,-0.17438,0.32384,5,2D1U,2.0,True,0.487,10,False,right,0.0,0.0004376000724732876,2.0561032998375595,2.055665699765086,1.2058739000931382,1.706097099930048,0.5002231998369098,
200,0.49822,0.1,2,0.28232,0.38197,0.6726,200,2.18386,-0.302,-0.14947,0.34875,5,1D1U,2.0,False,0.453,22,True,right,0.0,0.0006271000020205975,2.1976715000346303,2.1970444000326097,0.2730852998793125,0.7731305998750031,0.5000452999956906,
201,0.49822,1.2,2,0.37367,0.34875,0.63108,201,2.12574,-0.454,-0.2242,0.27402,5,1U1D,2.0,False,0.604,15,True,right,0.0,0.0003128000535070896,2.1398807000368834,2.1395678999833763,0.3648157003335655,0.8651789999566972,0.5003632996231318,
202,0.49822,0.1,2,0.34045,0.19929,0.69751,202,2.05931,-0.356,-0.17438,0.32384,5,1D1U,2.0,False,0.55,23,True,right,0.0,0.0007543996907770634,2.064927500206977,2.0641731005162,0.3311684001237154,0.8314068000763655,0.5002383999526501,
203,0.49822,1.2,2,0.24911,0.28232,0.54804,203,1.92644,-0.302,-0.14947,0.34875,5,2D1U,2.0,False,0.462,10,False,right,0.0,0.0007567997090518475,1.9388612997718155,1.9381045000627637,0.23858230002224445,0.7386004999279976,0.5000181999057531,
204,0.49822,0.1,2,0.39027,0.2325,0.73903,204,2.11743,-0.478,-0.24081,0.25741,5,2U1D,2.0,False,0.853,15,True,right,0.0,0.0008017998188734055,2.11476769996807,2.1139659001491964,0.3816995001398027,0.8825030000880361,0.5008034999482334,
205,0.49822,1.2,2,0.34875,0.24081,0.48161,205,1.80189,-0.532,-0.26572,0.2325,5,2U1D,2.0,False,0.466,15,False,right,0.0,0.0007249000482261181,1.7910167002119124,1.7902918001636863,0.34203220019117,0.8411882002837956,0.4991560000926256,
206,0.49822,0.1,2,0.4484,0.42349,0.74733,206,2.32503,-0.586,-0.29063,0.20759,5,2U1D,2.0,False,0.722,15,False,right,0.0,0.000649699941277504,2.338228200096637,2.3375785001553595,0.43896370008587837,0.9386359001509845,0.49967220006510615,
207,0.49822,1.2,2,0.26572,0.34045,0.6809,207,2.0344,-0.508,-0.25741,0.24911,5,1U1D,1.0,True,0.269,15,False,left,0.0,0.0006250003352761269,2.0312676997855306,2.0306426994502544,0.2564767999574542,0.7556549999862909,0.4991782000288367,
208,0.49822,0.1,2,0.26572,0.4484,0.59786,208,2.10913,-0.41,-0.20759,0.29893,5,1D1U,1.0,True,0.116,23,False,left,0.0,0.0006363000720739365,2.1321145999245346,2.1314782998524606,0.25651999982073903,0.7576386998407543,0.5011187000200152,
209,0.49822,1.2,2,0.39858,0.40688,0.75563,209,2.38315,-0.356,-0.17438,0.32384,5,1D1U,1.0,True,0.942,24,True,left,0.0,0.0003289002925157547,2.3907536999322474,2.3904247996397316,0.39070639992132783,0.890244500245899,0.49953810032457113,
210,0.49822,0.1,1,0.39858,0.35706,0.43179,210,2.00949,-0.356,-0.17438,0.32384,5,2D1U,1.0,False,0.491,11,True,left,0.0,0.000793099869042635,2.015244400128722,2.0144513002596796,1.1490071001462638,1.6480678003281355,0.49906070018187165,
211,0.49822,1.2,1,0.39858,0.4484,0.43179,211,2.12574,-0.302,-0.14947,0.34875,5,1D1U,2.0,True,0.842,24,False,right,0.0,0.00027349963784217834,2.130805800203234,2.130532300565392,1.1729772998951375,1.6734438999556005,0.500466600060463,
212,0.49822,0.1,1,0.27402,0.44009,0.51483,212,1.90984,-0.64,-0.32384,0.18268,5,2U1D,1.0,False,1.013,15,False,left,0.0,0.0004862002097070217,1.914394499734044,1.913908299524337,0.9649316999129951,1.464948299806565,0.50001659989357,
213,0.49822,1.2,1,0.44009,0.37367,0.58126,213,2.16726,-0.454,-0.2242,0.27402,5,1U1D,2.0,True,0.112,16,True,right,0.0,0.0007189000025391579,2.173636899795383,2.172917999792844,1.2908227997832,1.789860799908638,0.499038000125438,
214,0.49822,0.1,1,0.34045,0.44009,0.49822,214,2.07591,-0.41,-0.20759,0.29893,5,2D1U,2.0,True,0.732,11,False,right,0.0,0.0007449002005159855,2.0822393000125885,2.0814943998120725,1.1318848999217153,1.6314225001260638,0.49953760020434856,
215,0.49822,1.2,1,0.35706,0.31554,0.58956,215,2.05931,-0.41,-0.20759,0.29893,5,2D1U,2.0,True,0.45,11,False,right,0.0,0.0007461002096533775,2.0574787999503314,2.056732699740678,1.2404317003674805,1.7413054001517594,0.5008736997842789,
216,0.49822,0.1,1,0.39027,0.29893,0.81376,216,2.32502,-0.356,-0.17438,0.32384,5,2D1U,1.0,False,0.154,12,True,left,0.0,0.0003820001147687435,2.3402420999482274,2.3398600998334587,1.523423200007528,2.0239560999907553,0.5005328999832273,
217,0.49822,1.2,1,0.38197,0.26572,0.79715,217,2.24199,-0.41,-0.20759,0.29893,5,2D1U,1.0,False,0.437,13,True,left,0.0,0.0002749999985098839,2.257648100145161,2.2573731001466513,1.4740742002613842,1.9734705002047122,0.4993962999433279,
218,0.49822,0.1,1,0.2242,0.34045,0.76394,218,2.20048,-0.248,-0.12456,0.37367,5,1D1U,1.0,False,0.735,24,False,left,0.0,0.00031960010528564453,2.2155422000214458,2.21522259991616,1.3567321002483368,1.8566662003286183,0.4999341000802815,
219,0.49822,1.2,1,0.26572,0.34045,0.84697,219,2.10083,-0.694,-0.34875,0.14947,5,2U1D,2.0,True,0.112,15,False,right,0.0,0.00025819987058639526,2.096090099774301,2.0958318999037147,1.2543433997780085,1.7547924001701176,0.5004490003921092,
220,0.49822,0.1,2,0.40688,0.2325,0.60617,220,2.0427,-0.4,-0.19929,0.29893,5,1U1D,2.0,False,0.346,16,False,right,0.0,0.0004696999676525593,2.0412571001797915,2.040787400212139,0.3995793000794947,0.8996569002047181,0.5000776001252234,
221,0.49822,1.2,2,0.2325,0.33215,0.49822,221,1.90984,-0.302,-0.14947,0.34875,5,1D1U,1.0,True,0.67,25,True,left,0.0,0.00039579998701810837,1.9151324997656047,1.9147366997785866,0.22290890011936426,0.7235003998503089,0.5005914997309446,
222,0.49822,0.1,2,0.43179,0.20759,0.72242,222,2.13404,-0.454,-0.2242,0.27402,5,1U1D,1.0,True,0.411,17,True,left,0.0,0.0007843999192118645,2.1328608002513647,2.132076400332153,0.42420220002532005,0.9250018000602722,0.5007996000349522,
223,0.49822,1.2,2,0.34875,0.38197,0.78054,223,2.2752,-0.464,-0.2325,0.26572,5,2D1U,2.0,False,1.046,13,False,right,0.0,0.00032160012051463127,2.273928700014949,2.273607099894434,0.34098879992961884,0.8403217000886798,0.49933290015906096,
224,0.49822,0.1,2,0.27402,0.36536,0.8968,224,2.18387,-0.694,-0.34875,0.14947,5,2U1D,1.0,True,0.492,15,False,left,0.0,0.0007619000971317291,2.198510999791324,2.1977490996941924,0.2653493001125753,0.7662162999622524,0.5008669998496771,
225,0.49822,1.2,2,0.34875,0.27402,0.73903,225,2.23369,-0.248,-0.12456,0.37367,5,1D1U,2.0,False,0.35,26,True,right,0.0,0.0007775998674333096,2.240273099858314,2.2394954999908805,0.3403369998559356,0.8409359999932349,0.5005990001372993,
226,0.49822,0.1,2,0.2325,0.34875,0.44009,226,1.70224,-0.64,-0.32384,0.18268,5,2U1D,2.0,False,0.545,16,True,right,0.0,0.00026979995891451836,1.6997275999747217,1.6994578000158072,0.22546479990705848,0.7250402998179197,0.49957549991086125,
227,0.49822,1.2,2,0.40688,0.19929,0.81376,227,2.06762,-0.694,-0.34875,0.14947,5,2U1D,2.0,False,0.784,17,True,right,0.0,0.00031589996069669724,2.0731786000542343,2.0728627000935376,0.39832299994304776,0.8987670000642538,0.500444000121206,
228,0.49822,0.1,2,0.2242,0.2242,0.65599,228,1.95136,-0.302,-0.14947,0.34875,5,1D1U,2.0,False,0.585,27,True,right,0.0,0.0006083999760448933,1.974008799996227,1.9734004000201821,0.21615950018167496,0.7160445000045002,0.4998849998228252,
229,0.49822,1.2,2,0.39858,0.30724,0.58126,229,2.08423,-0.4,-0.19929,0.29893,5,1U1D,2.0,False,0.844,18,True,right,0.0,0.0008128001354634762,2.0823792000301182,2.0815663998946548,0.3895919001661241,0.8900985000655055,0.5005065998993814,
230,0.49822,0.1,1,0.43179,0.2325,0.69751,230,2.10083,-0.518,-0.25741,0.24081,5,2D1U,2.0,True,0.624,13,False,right,0.0,0.0007667997851967812,2.0965181002393365,2.0957513004541397,1.3712778999470174,1.8714748001657426,0.5001969002187252,
231,0.49822,1.2,1,0.20759,0.29893,0.51483,231,1.76038,-0.518,-0.25741,0.24081,5,2D1U,2.0,True,0.714,13,False,right,0.0,0.0009697000496089458,1.7741046999581158,1.7731349999085069,0.9576328997500241,1.4578383998014033,0.5002055000513792,
232,0.49822,0.1,1,0.2159,0.29893,0.6892,232,1.82681,-0.748,-0.37367,0.12456,5,2U1D,1.0,False,0.773,17,False,left,0.0,0.0005518002435564995,1.847770499996841,1.8472186997532845,1.023172200191766,1.5232331999577582,0.5000609997659922,
233,0.49822,1.2,1,0.29063,0.43179,0.64769,233,2.14235,-0.454,-0.2242,0.27402,5,1U1D,2.0,True,0.641,19,True,right,0.0,0.0003034002147614956,2.1478300001472235,2.147526599932462,1.2061159000732005,1.7065556002780795,0.500439700204879,
234,0.49822,0.1,1,0.41518,0.38197,0.72242,234,2.31672,-0.4,-0.19929,0.29893,5,1U1D,1.0,False,1.134,20,True,left,0.0,0.0002748998813331127,2.3232017001137137,2.3229268002323806,1.431363099720329,1.9307860997505486,0.49942300003021955,
235,0.49822,1.2,1,0.39027,0.28232,0.62278,235,2.11743,-0.356,-0.17438,0.32384,5,1D1U,1.0,False,0.775,27,False,left,0.0,0.0007242001593112946,2.132412100210786,2.1316879000514746,1.331250200048089,1.8317911000922322,0.5005409000441432,
236,0.49822,0.1,1,0.2325,0.36536,0.63938,236,2.03439,-0.41,-0.20759,0.29893,5,1D1U,1.0,False,0.2,27,False,left,0.0,0.0007224003784358501,2.031655800063163,2.030933399684727,1.1659216000698507,1.665248999837786,0.4993273997679353,
237,0.49822,1.2,1,0.37367,0.30724,0.43179,237,1.87664,-0.464,-0.2325,0.26572,5,2D1U,2.0,True,0.367,14,True,right,0.0,0.000775699969381094,1.8811240000650287,1.8803483000956476,1.0645647002384067,1.5652677002362907,0.500702999997884,
238,0.49822,0.1,1,0.36536,0.40688,0.6726,238,2.21708,-0.454,-0.2242,0.27402,5,1U1D,1.0,False,0.221,21,True,left,0.0,0.0002580997534096241,2.215192200150341,2.214934100396931,1.3068034001626074,1.8065619999542832,0.4997585997916758,
239,0.49822,1.2,1,0.34875,0.42349,0.88849,239,2.25859,-0.802,-0.39858,0.09964,5,2U1D,2.0,True,0.225,17,False,right,0.0,0.0006039002910256386,2.2561405999585986,2.255536699667573,1.3311119000427425,1.831259900238365,0.5001480001956224,
240,0.49822,0.1,2,0.24081,0.43179,0.44009,240,1.87663,-0.464,-0.2325,0.26572,5,1D1U,1.0,True,0.286,27,False,left,0.0,0.000735200010240078,1.8740929998457432,1.873357799835503,0.23243859969079494,0.7321863998658955,0.49974780017510056,
241,0.49822,1.2,2,0.29063,0.20759,0.81376,241,2.10913,-0.41,-0.20759,0.29893,5,1D1U,2.0,False,0.951,28,True,right,0.0,0.00026659993454813957,2.131290199700743,2.131023599766195,0.282182099763304,0.7819117996841669,0.4997296999208629,
242,0.49822,0.1,2,0.41518,0.2242,0.43179,242,1.83511,-0.464,-0.2325,0.26572,5,2D1U,1.0,True,0.436,14,True,left,0.0,0.000247300136834383,1.848732499871403,1.8484851997345686,0.40731750009581447,0.9069936997257173,0.49967619962990284,
243,0.49822,1.2,2,0.35706,0.38197,0.58126,243,1.91815,-0.802,-0.39858,0.09964,5,2U1D,2.0,False,0.608,17,False,right,0.0,0.0007899999618530273,1.9079859997145832,1.9071959997527301,0.34904100000858307,0.8493782998993993,0.5003372998908162,
244,0.49822,0.1,2,0.37367,0.40688,0.63108,244,2.15896,-0.508,-0.25741,0.24911,5,1U1D,2.0,False,0.625,21,False,right,0.0,0.0007227002643048763,2.1570228999480605,2.1563001996837556,0.36509119998663664,0.8648707000538707,0.49977950006723404,
245,0.49822,1.2,2,0.39858,0.35706,0.69751,245,2.21709,-0.464,-0.2325,0.26572,5,1D1U,2.0,False,0.773,29,True,right,0.0,0.00026320014148950577,2.2237631999887526,2.223499999847263,0.39101719995960593,0.8906315001659095,0.4996143002063036,
246,0.49822,0.1,2,0.27402,0.26572,0.63108,246,1.88494,-0.562,-0.28232,0.2159,5,1U1D,2.0,False,0.487,21,False,right,0.0,0.0007654000073671341,1.8900242997333407,1.8892588997259736,0.2654120000079274,0.7649709000252187,0.4995589000172913,
247,0.49822,1.2,2,0.29893,0.38197,0.55635,247,1.8102,-0.856,-0.43179,0.07473,5,2U1D,2.0,False,0.485,17,False,right,0.0,0.0002788999117910862,1.8144752997905016,1.8141963998787105,0.290115499868989,0.7899199998937547,0.49980450002476573,
248,0.49822,0.1,2,0.29893,0.34045,0.76394,248,2.14235,-0.518,-0.25741,0.24081,5,1D1U,1.0,True,0.287,29,False,left,0.0,0.0007627001032233238,2.1394436000846326,2.1386808999814093,0.28926320001482964,0.7893753000535071,0.5001121000386775,
249,0.49822,1.2,2,0.39027,0.2159,0.81376,249,2.21708,-0.41,-0.20759,0.29893,5,2D1U,2.0,False,0.543,14,False,right,0.0,0.0002848999574780464,2.2218973003327847,2.2216124003753066,0.3806317001581192,0.8807089002802968,0.5000772001221776,
250,0.49822,0.1,1,0.25741,0.24081,0.48992,250,1.67734,-0.616,-0.30724,0.19098,5,1U1D,2.0,True,1.572,21,False,right,0.0,0.0006313999183475971,1.690576999913901,1.6899455999955535,0.9324090997688472,1.4324734001420438,0.5000643003731966,
251,0.49822,1.2,1,0.36536,0.24911,0.6809,251,1.84341,-0.9,-0.4484,0.04982,5,2U1D,2.0,True,0.115,17,False,right,0.0,0.0003651999868452549,1.8493711999617517,1.8490059999749064,1.0906977001577616,1.623375500086695,0.5326777999289334,
252,0.49822,0.1,1,0.30724,0.26572,0.46501,252,1.80191,-0.464,-0.2325,0.26572,5,2D1U,1.0,False,0.165,15,True,left,0.0,0.0006649000570178032,1.8069012998603284,1.8062363998033106,1.0325609999708831,1.5318649001419544,0.4993039001710713,
253,0.49822,1.2,1,0.39858,0.39027,0.70581,253,2.2586,-0.464,-0.2325,0.26572,5,1D1U,1.0,False,0.508,30,True,left,0.0,0.0006713001057505608,2.25669480022043,2.2560235001146793,1.3648775001056492,1.8652035999111831,0.5003260998055339,
254,0.49822,0.1,1,0.24081,0.28232,0.58126,254,1.84342,-0.518,-0.25741,0.24081,5,1D1U,1.0,False,0.132,31,True,left,0.0,0.0005675996653735638,1.8394618001766503,1.8388942005112767,1.0563183003105223,1.5560077000409365,0.49968939973041415,
255,0.49822,1.2,1,0.2159,0.26572,0.79715,255,1.99289,-0.562,-0.28232,0.2159,5,1U1D,2.0,True,0.164,22,True,right,0.0,0.0007369997911155224,1.9915939001366496,1.990856900345534,1.224080600310117,1.7243093000724912,0.5002286997623742,
256,0.49822,0.1,1,0.25741,0.31554,0.84697,256,2.16725,-0.508,-0.25741,0.24911,5,1U1D,2.0,True,0.469,22,False,right,0.0,0.00027529988437891006,2.173176699783653,2.172901399899274,1.3478115000762045,1.8477793000638485,0.49996779998764396,
257,0.49822,1.2,1,0.24081,0.31554,0.87189,257,1.97628,-0.9,-0.4484,0.04982,5,2U1D,2.0,True,0.211,17,False,right,0.0,0.0002983999438583851,1.981973399873823,1.9816749999299645,1.1572846001945436,1.657060000114143,0.4997753999195993,
258,0.49822,0.1,1,0.2159,0.39027,0.83037,258,2.00949,-0.846,-0.42349,0.07473,5,2U1D,2.0,True,0.11,18,True,right,0.0,0.0006132000125944614,2.0245482996106148,2.0239350995980203,1.115879399701953,1.6156729999929667,0.4997936002910137,
259,0.49822,1.2,1,0.2325,0.27402,0.61447,259,1.86002,-0.518,-0.25741,0.24081,5,2D1U,1.0,False,0.449,15,False,left,0.0,0.000784900039434433,1.8487383997999132,1.8479534997604787,1.0825663995929062,1.5823850999586284,0.4998187003657222,
260,0.49822,0.1,2,0.39027,0.31554,0.43179,260,1.85172,-0.572,-0.28232,0.2159,5,1D1U,1.0,True,0.542,31,False,left,0.0,0.0006136996671557426,1.8576692999340594,1.8570556002669036,0.3833642997778952,0.8823406998999417,0.49897640012204647,
261,0.49822,1.2,2,0.30724,0.37367,0.69751,261,1.95137,-0.846,-0.42349,0.07473,5,2U1D,1.0,True,0.847,18,True,left,0.0,0.000705100130289793,1.9726327997632325,1.9719276996329427,0.29719539964571595,0.7969339997507632,0.4997386001050472,
262,0.49822,0.1,2,0.2159,0.28232,0.48992,262,1.70226,-0.572,-0.28232,0.2159,5,2D1U,2.0,False,1.883,15,False,right,0.0,0.000722500029951334,1.692314200103283,1.6915917000733316,0.20823039999231696,0.7087221001274884,0.5004917001351714,
263,0.49822,1.2,2,0.33215,0.39027,0.46501,263,1.95967,-0.454,-0.2242,0.27402,5,1U1D,1.0,True,1.484,22,False,left,0.0,0.0007727001793682575,1.9583205999806523,1.957547899801284,0.3241747999563813,0.8249177001416683,0.500742900185287,
264,0.49822,0.1,2,0.40688,0.26572,0.72242,264,2.13405,-0.518,-0.25741,0.24081,5,1D1U,2.0,False,1.108,32,True,right,0.0,0.0007393998093903065,2.1309458003379405,2.13020640052855,0.3975771004334092,0.8971395003609359,0.4995623999275267,
265,0.49822,1.2,2,0.32384,0.27402,0.83037,265,2.14235,-0.572,-0.28232,0.2159,5,1D1U,1.0,True,2.224,33,True,left,0.0,0.0006510000675916672,2.155490899924189,2.154839899856597,0.31404099985957146,0.8148817997425795,0.500840799883008,
266,0.49822,0.1,2,0.20759,0.37367,0.58956,266,1.77699,-0.792,-0.39858,0.10795,5,2U1D,1.0,True,0.504,18,False,left,0.0,0.000758300069719553,1.772329700179398,1.7715714001096785,0.19770220015197992,0.6973407999612391,0.4996385998092592,
267,0.49822,1.2,2,0.36536,0.43179,0.78885,267,2.2752,-0.626,-0.31554,0.19098,5,2D1U,1.0,True,1.223,15,False,left,0.0,0.0007994002662599087,2.2807661001570523,2.2799666998907924,0.3552322997711599,0.8556435001082718,0.500411200337112,
268,0.49822,0.1,2,0.40688,0.29063,0.6809,268,2.17556,-0.4,-0.19929,0.29893,5,1U1D,2.0,False,1.013,22,False,right,0.0,0.0005472996272146702,2.1821758998557925,2.181628600228578,0.3987245997413993,0.8993365997448564,0.5006120000034571,
269,0.49822,1.2,2,0.29893,0.20759,0.53143,269,1.81019,-0.454,-0.2242,0.27402,5,1U1D,2.0,False,0.992,23,True,right,0.0,0.0007508001290261745,1.8146648001857102,1.813914000056684,0.28913719998672605,0.7899987003766,0.500861500389874,
270,0.49822,0.1,1,0.32384,0.42349,0.58956,270,2.07592,-0.518,-0.25741,0.24081,5,1D1U,2.0,True,0.265,34,True,right,0.0,0.0007791002281010151,2.0643684999085963,2.0635893996804953,1.1477176998741925,1.6470598001033068,0.4993421002291143,
271,0.49822,1.2,1,0.26572,0.33215,0.79715,271,2.08422,-0.626,-0.31554,0.19098,5,2D1U,2.0,True,0.132,15,False,right,0.0,0.0002791001461446285,2.090537200216204,2.0902581000700593,1.248874300159514,1.7487425999715924,0.4998682998120785,
272,0.49822,0.1,1,0.19929,0.29893,0.6892,272,1.95136,-0.464,-0.2325,0.26572,5,1D1U,2.0,True,0.204,34,False,right,0.0,0.00040059955790638924,1.9654409000650048,1.9650403005070984,1.1481453999876976,1.6479758000932634,0.4998304001055658,
273,0.49822,1.2,1,0.2159,0.32384,0.53974,273,1.87663,-0.41,-0.20759,0.29893,5,1D1U,2.0,True,0.274,34,False,right,0.0,0.0007704002782702446,1.8731963001191616,1.8724258998408914,1.0483731999993324,1.5486488002352417,0.5002756002359092,
274,0.49822,0.1,1,0.20759,0.41518,0.53974,274,1.90984,-0.508,-0.25741,0.24911,5,1U1D,1.0,False,0.654,23,False,left,0.0,0.0002888999879360199,1.923087399918586,1.92279849993065,0.9900743002071977,1.4898508000187576,0.4997764998115599,
275,0.49822,1.2,1,0.29893,0.30724,0.52313,275,1.73547,-0.792,-0.39858,0.10795,5,2U1D,2.0,True,0.199,18,False,right,0.0,0.0007376000285148621,1.7493044999428093,1.7485668999142945,0.9242030000314116,1.4241349999792874,0.49993199994787574,
276,0.49822,0.1,1,0.4484,0.33215,0.83037,276,2.32504,-0.562,-0.28232,0.2159,5,1U1D,2.0,True,0.163,23,False,right,0.0,0.00027769990265369415,2.3328293999657035,2.33255170006305,1.4912694999948144,1.9905254999175668,0.4992559999227524,
277,0.49822,1.2,1,0.24911,0.20759,0.69751,277,1.97627,-0.356,-0.17438,0.32384,5,1D1U,1.0,False,0.495,34,False,left,0.0,0.00073640001937747,1.9748170003294945,1.974080600310117,1.266533000394702,1.7658207002095878,0.49928769981488585,
278,0.49822,0.1,1,0.26572,0.32384,0.46501,278,1.76869,-0.572,-0.28232,0.2159,5,2D1U,2.0,True,0.85,16,True,right,0.0,0.00025139981880784035,1.773439799901098,1.7731884000822902,0.940451200120151,1.440905099734664,0.5004538996145129,
279,0.49822,1.2,1,0.2242,0.35706,0.75563,279,1.96797,-0.738,-0.36536,0.13286,5,2U1D,2.0,True,0.414,18,False,right,0.0,0.0007842001505196095,1.973869000095874,1.9730847999453545,1.106749499682337,1.6068219998851418,0.5000725002028048,
280,0.49822,0.1,2,0.31554,0.38197,0.48992,280,1.93476,-0.508,-0.25741,0.24911,5,1U1D,1.0,True,0.914,24,True,left,0.0,0.00025559961795806885,1.947745700366795,1.947490100748837,0.30606750026345253,0.8061659000813961,0.5000983998179436,
281,0.49822,1.2,2,0.44009,0.4484,0.78054,281,2.46618,-0.41,-0.20759,0.29893,5,1D1U,2.0,False,0.403,35,True,right,0.0,0.0005443999543786049,2.4820715999230742,2.4815271999686956,0.4321282999590039,0.9320639995858073,0.4999356996268034,
282,0.49822,0.1,2,0.19929,0.42349,0.69751,282,1.95137,-0.738,-0.36536,0.13286,5,2U1D,1.0,True,0.318,18,False,left,0.0,0.00032480014488101006,1.9568475000560284,1.9565226999111474,0.19031119998544455,0.6901565003208816,0.49984530033543706,
283,0.49822,1.2,2,0.2159,0.2159,0.48161,283,1.5694,-0.684,-0.34045,0.15777,5,2U1D,1.0,True,2.041,18,False,left,0.0,0.0002723000943660736,1.5823344998061657,1.5820621997117996,0.2064678999595344,0.7075204001739621,0.5010525002144277,
284,0.49822,0.1,2,0.39027,0.38197,0.6892,284,2.17556,-0.572,-0.28232,0.2159,5,2D1U,2.0,False,0.478,16,True,right,0.0,0.00029170000925660133,2.1717648999765515,2.171473199967295,0.3796969000250101,0.8801150000654161,0.500418100040406,
285,0.49822,1.2,2,0.36536,0.42349,0.81376,285,2.37485,-0.454,-0.2242,0.27402,5,1U1D,2.0,False,0.748,24,False,right,0.0,0.0006575998850166798,2.3719591996632516,2.371301599778235,0.35539739998057485,0.8561007999815047,0.5007034000009298,
286,0.49822,0.1,2,0.34045,0.40688,0.60617,286,2.11744,-0.464,-0.2325,0.26572,5,1D1U,2.0,False,0.777,35,False,right,0.0,0.0006693997420370579,2.1223571998998523,2.121687800157815,0.33135379990562797,0.8315687999129295,0.5002150000073016,
287,0.49822,1.2,2,0.36536,0.36536,0.4484,287,1.86832,-0.626,-0.31554,0.19098,5,2D1U,1.0,True,0.459,17,True,left,0.0,0.0002805003896355629,1.8739952999167144,1.8737147995270789,0.35797560028731823,0.8577205003239214,0.4997449000366032,
288,0.49822,0.1,2,0.24911,0.44009,0.78885,288,2.13404,-0.684,-0.34045,0.15777,5,2U1D,1.0,True,0.432,18,False,left,0.0,0.0007243002764880657,2.1320394999347627,2.1313151996582747,0.24025599984452128,0.7394886002875865,0.49923260044306517,
289,0.49822,1.2,2,0.29063,0.2325,0.54804,289,1.8185,-0.508,-0.25741,0.24911,5,1U1D,1.0,True,0.977,25,True,left,0.0,0.0007691001519560814,1.8219082998111844,1.8211391996592283,0.28063839999958873,0.7801383999176323,0.4994999999180436,
290,0.49822,0.1,1,0.36536,0.40688,0.6726,290,2.18387,-0.518,-0.25741,0.24081,5,1D1U,1.0,False,0.235,35,False,left,0.0,0.000310700386762619,2.189015300013125,2.1887045996263623,1.2728905999101698,1.7732170997187495,0.5003264998085797,
291,0.49822,1.2,1,0.39858,0.24911,0.85528,291,2.27521,-0.454,-0.2242,0.27402,5,1U1D,2.0,True,0.741,26,True,right,0.0,0.0006746998988091946,2.281299900263548,2.2806252003647387,1.5230882000178099,2.0234866002574563,0.5003984002396464,
292,0.49822,0.1,1,0.44009,0.31554,0.51483,292,1.95136,-0.63,-0.31554,0.18268,5,2U1D,2.0,True,0.542,18,False,right,0.0,0.0007366999052464962,1.9653183999471366,1.9645817000418901,1.1311751999892294,1.631444700062275,0.5002695000730455,
293,0.49822,1.2,1,0.44009,0.30724,0.55635,293,1.99288,-0.626,-0.31554,0.19098,5,2D1U,2.0,True,0.569,17,True,right,0.0,0.0007646000012755394,1.9999688998796046,1.999204299878329,1.1827819999307394,1.6826454000547528,0.4998634001240134,
294,0.49822,0.1,1,0.4484,0.29063,0.71412,294,2.2503,-0.4,-0.19929,0.29893,5,1U1D,1.0,False,0.715,26,False,left,0.0,0.0007202001288533211,2.2573895999230444,2.256669399794191,1.4569357000291348,1.957109599839896,0.5001738998107612,
295,0.49822,1.2,1,0.28232,0.39027,0.49822,295,1.94305,-0.454,-0.2242,0.27402,5,1U1D,1.0,False,0.109,27,True,left,0.0,0.0005477000959217548,1.9496875000186265,1.9491397999227047,1.0494886999949813,1.5491082998923957,0.49961959989741445,
296,0.49822,0.1,1,0.29893,0.4484,0.82206,296,2.25029,-0.63,-0.31554,0.18268,5,2U1D,2.0,True,0.291,18,False,right,0.0,0.0008934997022151947,2.264946199953556,2.264052700251341,1.2981141000054777,1.7986691002734005,0.5005550002679229,
297,0.49822,1.2,1,0.25741,0.20759,0.71412,297,1.89324,-0.576,-0.29063,0.2159,5,2U1D,2.0,True,0.374,18,False,right,0.0,0.0006709001027047634,1.8985603996552527,1.897889499552548,1.1825106996111572,1.68196289986372,0.49945220025256276,
298,0.49822,0.1,1,0.33215,0.41518,0.66429,298,2.12574,-0.576,-0.29063,0.2159,5,2U1D,2.0,True,0.714,18,False,right,0.0,0.0007358002476394176,2.1323032998479903,2.131567499600351,1.2069656001403928,1.707621700130403,0.5006560999900103,
299,0.49822,1.2,1,0.19929,0.29063,0.84697,299,2.05101,-0.572,-0.28232,0.2159,5,2D1U,2.0,True,0.43,18,True,right,0.0,0.0002851998433470726,2.064059500116855,2.063774300273508,1.2561735999770463,1.756329399999231,0.5001558000221848,
300,0.49822,0.1,2,0.40688,0.32384,0.72242,300,2.20047,-0.508,-0.25741,0.24911,5,1U1D,2.0,False,0.301,27,False,right,0.0,0.00026819994673132896,2.2067668000236154,2.206498600076884,0.39817590033635497,0.8982112002559006,0.5000352999195457,
301,0.49822,1.2,2,0.39858,0.34045,0.74733,301,2.20048,-0.572,-0.28232,0.2159,5,2D1U,2.0,False,0.381,18,True,right,0.0,0.000752799678593874,2.2061981996521354,2.2054453999735415,0.3894417998380959,0.8898885999806225,0.5004468001425266,
302,0.49822,0.1,2,0.4484,0.29893,0.59786,302,2.08422,-0.522,-0.25741,0.24081,5,2U1D,1.0,True,0.395,18,False,left,0.0,0.0007182001136243343,2.0830583996139467,2.0823401995003223,0.4410803997889161,0.9423275999724865,0.5012472001835704,
303,0.49822,1.2,2,0.43179,0.20759,0.78885,303,2.14235,-0.562,-0.28232,0.2159,5,1U1D,2.0,False,0.619,27,False,right,0.0,0.0007376000285148621,2.1571291997097433,2.1563915996812284,0.4236018997617066,0.9232390001416206,0.49963710037991405,
304,0.49822,0.1,2,0.27402,0.2159,0.48992,304,1.66904,-0.626,-0.31554,0.19098,5,2D1U,2.0,False,0.538,19,True,right,0.0,0.0005068001337349415,1.6725208996795118,1.6720140995457768,0.2642681999132037,0.7639449997805059,0.4996767998673022,
305,0.49822,1.2,2,0.35706,0.2325,0.72242,305,2.05101,-0.522,-0.25741,0.24081,5,2U1D,2.0,False,1.36,18,False,right,0.0,0.0006677000783383846,2.0573302996344864,2.056662599556148,0.3486254997551441,0.8487588996067643,0.5001333998516202,
306,0.49822,0.1,2,0.24081,0.43179,0.6726,306,2.05932,-0.576,-0.29063,0.2159,5,2U1D,1.0,True,1.275,19,True,left,0.0,0.0007724002934992313,2.0573776001110673,2.056605199817568,0.23265619995072484,0.7321402998641133,0.4994840999133885,
307,0.49822,1.2,2,0.39858,0.29893,0.77224,307,2.15895,-0.616,-0.30724,0.19098,5,1U1D,2.0,False,0.874,27,False,right,0.0,0.0007390999235212803,2.1653403998352587,2.1646012999117374,0.391255300026387,0.8904216000810266,0.4991663000546396,
308,0.49822,0.1,2,0.41518,0.20759,0.88019,308,2.16725,-0.67,-0.33215,0.16607,5,1U1D,1.0,True,0.311,27,False,left,0.0,0.00029480038210749626,2.181251000147313,2.1809561997652054,0.4062890000641346,0.9059394001960754,0.49965040013194084,
