,standardDur,audNoise,order,preDur,postDur,isiDur,trial_num,totalDur,delta_dur_percents,deltaDurS,testDurS,intensities,current_stair,responses,is_correct,response_rts,stair_num_reversal,stair_is_reversal,response_keys,conflictDur,recordedOnsetAudioTest,recordedOffsetAudioTest,recordedDurAudioTest,recordedOnsetVisualStandard,recordedOffsetVisualStandard,recordedDurVisualStandard,modalityPostCueTest
0,0.50258,0.1,2,0.41881,0.29317,0.51933,0,2.68041,0.9,0.45232,0.94652,5,lapse_rate,2.0,True,0.213,0,False,right,0.0,0.00029830029234290123,2.696996800135821,2.696698499843478,0.40531970001757145,0.905487600248307,0.5001679002307355,
1,0.50258,1.2,2,0.25129,0.25129,0.51095,1,1.66688,-0.7,-0.3518,0.15077,5,1U1D,1.0,True,1.358,0,False,left,0.0,0.00026089977473020554,1.673657899722457,1.6733969999477267,0.24027410009875894,0.7403858001343906,0.5001117000356317,
2,0.50258,0.1,2,0.30992,0.34343,0.86276,2,2.86469,0.7,0.3518,0.846,5,1D1U,2.0,True,31.279,0,False,right,0.0,0.0007334998808801174,2.857196500059217,2.856463000178337,0.2987219998613,0.7978953998535872,0.49917339999228716,
3,0.50258,1.2,2,0.26804,0.44394,0.73711,3,2.79767,0.7,0.3518,0.846,5,2D1U,2.0,True,0.342,0,False,right,0.0,0.00030139973387122154,2.815245300065726,2.814943900331855,0.2565322001464665,0.7562938001938164,0.49976160004734993,
4,0.50258,0.1,2,0.29317,0.29317,0.69523,4,1.93492,-0.7,-0.3518,0.15077,5,2U1D,1.0,True,0.728,0,False,left,0.0,0.0006021000444889069,1.9483765000477433,1.9477744000032544,0.28146009985357523,0.7815176001749933,0.500057500321418,
5,0.50258,1.2,2,0.41044,0.45232,0.82087,5,3.13273,0.9,0.45232,0.94652,5,lapse_rate,2.0,True,0.492,0,False,right,0.0,0.0007160999812185764,3.141867400147021,3.1411513001658022,0.4001655001193285,0.9001006004400551,0.49993510032072663,
6,0.50258,1.2,2,0.41044,0.41881,0.72036,6,2.27835,-0.55,-0.27642,0.22616,5,1U1D,1.0,True,0.79,0,False,left,0.0,0.00027689989656209946,2.264955500140786,2.264678600244224,0.39806010015308857,0.8982981001026928,0.5002379999496043,
7,0.50258,0.1,2,0.33505,0.32667,0.67848,7,2.62177,0.55,0.27642,0.77899,5,1D1U,2.0,True,0.297,0,False,right,0.0,0.0007956000044941902,2.6155456001870334,2.6147500001825392,0.3235999997705221,0.823541599791497,0.4999416000209749,
8,0.50258,1.2,2,0.32667,0.36018,0.55283,8,1.79252,-0.9,-0.45232,0.05026,5,lapse_rate,2.0,False,0.663,0,False,right,0.0,0.0006721001118421555,1.7978020999580622,1.79712999984622,0.313811999745667,0.8143472000956535,0.5005352003499866,
9,0.50258,1.2,2,0.26804,0.24291,0.57796,9,1.74226,-0.7,-0.3518,0.15077,5,2U1D,2.0,False,0.665,0,False,right,0.0,0.000610200222581625,1.7489424999803305,1.7483322997577488,0.25769250001758337,0.7570998999290168,0.49940739991143346,
10,0.50258,0.1,2,0.40206,0.34343,0.67848,10,2.77255,0.7,0.3518,0.846,5,2D1U,2.0,True,1.647,0,False,right,0.0,0.0005844999104738235,2.7733995001763105,2.7728150002658367,0.3905619001016021,0.8903769999742508,0.4998150998726487,
11,0.50258,1.2,2,0.33505,0.43557,0.50258,11,2.07733,-0.4,-0.20103,0.30155,5,1U1D,1.0,True,0.682,0,False,left,0.0,0.0004549003206193447,2.0728225000202656,2.0723675996996462,0.3224590001627803,0.8225072002969682,0.5000482001341879,
12,0.50258,0.1,2,0.45232,0.36856,0.73711,12,2.83956,0.55,0.27642,0.77899,5,2D1U,2.0,True,0.8,0,False,right,0.0,0.0007663001306355,2.8491050000302494,2.848338699899614,0.44063480012118816,0.9401536001823843,0.4995188000611961,
13,0.50258,1.2,2,0.44394,0.30155,0.846,13,3.04059,0.9,0.45232,0.94652,5,lapse_rate,2.0,True,1.078,0,False,right,0.0,0.0007323999889194965,3.0486409002915025,3.047908500302583,0.43256490025669336,0.9323935001157224,0.49982859985902905,
14,0.50258,1.2,2,0.36856,0.30155,0.51095,14,1.75903,-0.85,-0.42719,0.07539,5,2U1D,2.0,False,0.6,0,False,right,0.0,0.0002655000425875187,1.765202899929136,1.7649373998865485,0.35672289971262217,0.8569589001126587,0.5002360004000366,
15,0.50258,0.1,2,0.3183,0.43557,0.61147,15,2.57153,0.4,0.20103,0.70361,5,1D1U,2.0,True,0.891,0,False,right,0.0,0.0007442999631166458,2.574175499845296,2.5734311998821795,0.30702679976820946,0.8067462998442352,0.4997195000760257,
16,0.50258,1.2,2,0.41044,0.44394,0.51933,16,2.65528,0.55,0.27642,0.77899,5,2D1U,2.0,True,0.4,0,False,right,0.0,0.0007948996499180794,2.672993100248277,2.672198200598359,0.39853430027142167,0.8983171000145376,0.4997827997431159,
17,0.50258,0.1,2,0.32667,0.3183,0.74549,17,2.26997,-0.25,-0.12564,0.37693,5,1U1D,1.0,True,1.479,0,False,left,0.0,0.000741299707442522,2.273196800146252,2.2724555004388094,0.3229396999813616,0.8229355998337269,0.49999589985236526,
18,0.50258,1.2,2,0.20941,0.22616,0.57796,18,2.46263,0.9,0.45232,0.94652,5,lapse_rate,1.0,False,1.526,0,False,left,0.0,0.0002562999725341797,2.4650820000097156,2.4648257000371814,0.19869690015912056,0.6983976000919938,0.49970069993287325,
19,0.50258,1.2,2,0.40206,0.39368,0.87951,19,2.80605,0.25,0.12564,0.62822,5,1D1U,2.0,True,0.744,0,False,right,0.0,0.000757299829274416,2.799159500282258,2.7984022004529834,0.3912415001541376,0.8903222000226378,0.49908069986850023,
20,0.50258,0.1,2,0.3183,0.25129,0.85438,20,1.97681,-0.9,-0.45232,0.05026,5,2U1D,1.0,True,1.169,0,False,left,0.0,0.00025639962404966354,1.9731205999851227,1.972864200361073,0.3074728003703058,0.8068110002204776,0.4993381998501718,
21,0.50258,1.2,2,0.28479,0.41044,0.51933,21,2.42075,0.4,0.20103,0.70361,5,2D1U,2.0,True,2.599,0,False,right,0.0,0.0012691998854279518,2.415695399977267,2.414426200091839,0.27398910000920296,0.7735080998390913,0.49951899982988834,
22,0.50258,0.1,2,0.29317,0.25966,0.83763,22,2.34536,-0.1,-0.05026,0.45232,5,1U1D,1.0,True,44.243,0,False,left,0.0,0.0007180999964475632,2.3320363997481763,2.3313182997517288,0.2823554999195039,0.7822912000119686,0.4999357000924647,
23,0.50258,1.2,2,0.43557,0.40206,0.6701,23,2.06057,-0.9,-0.45232,0.05026,5,2U1D,2.0,False,0.473,0,False,right,0.0,0.0007368000224232674,2.0657172999344766,2.0649804999120533,0.4241122999228537,0.9239692999981344,0.49985700007528067,
24,0.50258,0.1,2,0.30155,0.44394,0.61984,24,2.42074,0.1,0.05026,0.55283,5,1D1U,2.0,True,1.903,0,False,right,0.0,0.000677300151437521,2.4144699997268617,2.413792699575424,0.29038550006225705,0.7900819997303188,0.49969649966806173,
25,0.50258,1.2,2,0.26804,0.36018,0.52771,25,1.70877,-0.9,-0.45232,0.05026,5,lapse_rate,1.0,True,1.139,0,False,left,0.0,0.00029380014166235924,1.7235975000075996,1.7233036998659372,0.2571217999793589,0.7570604998618364,0.4999386998824775,
26,0.50258,1.2,2,0.20941,0.25129,0.64497,26,2.13596,0.05,0.02513,0.52771,5,1U1D,2.0,True,0.904,0,False,right,0.0,0.0006027999334037304,2.1406930000521243,2.1400902001187205,0.19920600019395351,0.6990836001932621,0.4998775999993086,
27,0.50258,1.2,2,0.29317,0.34343,0.88788,27,2.07732,-0.9,-0.45232,0.05026,5,lapse_rate,1.0,True,1.044,0,False,left,0.0,0.0008072000928223133,2.082473700400442,2.0816665003076196,0.282402700278908,0.7817506999708712,0.4993479996919632,
28,0.50258,0.1,2,0.37693,0.25129,0.73711,28,2.34536,-0.05,-0.02513,0.47745,5,1D1U,2.0,False,0.703,0,False,right,0.0,0.000737400259822607,2.3485348001122475,2.347797399852425,0.36516909999772906,0.865430099889636,0.500260999891907,
29,0.50258,1.2,2,0.3183,0.41881,0.846,29,2.13595,-0.9,-0.45232,0.05026,5,2U1D,1.0,True,1.396,0,False,left,0.0,0.0006257998757064342,2.1401101001538336,2.139484300278127,0.3070325003936887,0.8075802000239491,0.5005476996302605,
30,0.50258,0.1,1,0.36856,0.42719,0.82087,30,2.82281,0.4,0.20103,0.70361,5,2D1U,2.0,False,2.104,0,False,right,0.0,0.0006121001206338406,2.82226620009169,2.821654099971056,1.8725959998555481,2.3728489000350237,0.5002529001794755,
31,0.50258,1.2,1,0.43557,0.38531,0.70361,31,2.77256,0.49,0.24291,0.74549,5,2D1U,1.0,True,1.862,1,True,left,0.0,0.0007241000421345234,2.7741312999278307,2.773407199885696,1.8658821997232735,2.365389300044626,0.4995071003213525,
32,0.50258,0.1,1,0.39368,0.21778,0.41044,32,1.95167,-0.14,-0.06701,0.42719,5,1D1U,1.0,False,32.297,1,True,left,0.0,0.0006134998984634876,1.9658197001554072,1.9652062002569437,1.2159000001847744,1.7155602998100221,0.4996602996252477,
33,0.50258,1.2,1,0.27642,0.21778,0.86276,33,2.31186,-0.1,-0.05026,0.45232,5,1U1D,2.0,True,0.665,0,False,right,0.0,0.0006317002698779106,2.322013400029391,2.321381699759513,1.572052899748087,2.071914699859917,0.49986180011183023,
34,0.50258,0.1,1,0.42719,0.3518,0.62822,34,1.96005,-0.9,-0.45232,0.05026,5,lapse_rate,2.0,True,0.403,0,False,right,0.0,0.00041869981214404106,1.9499674998223782,1.9495488000102341,1.09112360002473,1.5908250999636948,0.49970149993896484,
35,0.50258,0.1,1,0.30155,0.41044,0.72874,35,1.99357,-0.9,-0.45232,0.05026,5,2U1D,2.0,True,0.575,0,False,right,0.0,0.0002811998128890991,1.9975705998949707,1.9972894000820816,1.0649327002465725,1.564620700199157,0.4996879999525845,
36,0.50258,1.2,1,0.39368,0.20941,0.85438,36,2.48776,0.05,0.02513,0.52771,5,1U1D,1.0,True,1.099,0,False,left,0.0,0.0007833000272512436,2.482310200110078,2.4815269000828266,1.756263599731028,2.2563374997116625,0.5000738999806345,
37,0.50258,1.2,1,0.21778,0.22616,0.58634,37,1.58312,-0.9,-0.45232,0.05026,5,lapse_rate,2.0,True,0.692,0,False,right,0.0,0.0002725999802350998,1.5899306000210345,1.5896580000407994,0.8393975999206305,1.3398680998943746,0.5004704999737442,
38,0.50258,0.1,1,0.34343,0.24291,0.86276,38,2.33699,-0.23,-0.11727,0.38531,5,1D1U,1.0,False,2.393,1,False,left,0.0,0.00026459991931915283,2.3477080003358424,2.347443400416523,1.5724341003224254,2.072435900103301,0.5000017997808754,
39,0.50258,1.2,1,0.20941,0.21778,0.74549,39,1.7674,-0.81,-0.40206,0.09214,5,2U1D,2.0,True,0.692,1,True,right,0.0,0.00028849998489022255,1.764390700031072,1.7641022000461817,1.03077149996534,1.5314613999798894,0.5006899000145495,
40,0.50258,0.1,1,0.44394,0.37693,0.53608,40,2.60502,0.49,0.24291,0.74549,5,2D1U,1.0,True,0.318,1,True,left,0.0,0.0010711997747421265,2.6156327999196947,2.6145616001449525,1.7065392998047173,2.206698799971491,0.5001595001667738,
41,0.50258,1.2,1,0.33505,0.28479,0.42719,41,1.64175,-0.81,-0.40206,0.09214,5,2U1D,2.0,True,1.278,1,True,right,0.0,0.0006834999658167362,1.6569962999783456,1.656312800012529,0.8394693997688591,1.3394570001401007,0.49998760037124157,
42,0.50258,0.1,1,0.21778,0.24291,0.72036,42,2.02706,-0.32,-0.15915,0.34343,5,1D1U,1.0,False,0.998,1,False,left,0.0,0.0006629000417888165,2.040523699950427,2.039860799908638,1.2649517999961972,1.7651466997340322,0.5001948997378349,
43,0.50258,0.1,1,0.28479,0.37693,0.41044,43,2.52126,0.9,0.45232,0.94652,5,lapse_rate,1.0,True,1.023,0,False,left,0.0,0.000286799855530262,2.515098199713975,2.514811399858445,1.6235524998046458,2.123639799654484,0.500087299849838,
44,0.50258,1.2,1,0.37693,0.41881,0.75386,44,2.5045,-0.1,-0.05026,0.45232,5,1U1D,1.0,False,0.386,0,False,left,0.0,0.0007029999978840351,2.4988421997986734,2.4981391998007894,1.5661062998697162,2.0660512996837497,0.4999449998140335,
45,0.50258,0.1,1,0.34343,0.20941,0.50258,45,2.27836,0.436,0.21778,0.72036,5,2D1U,1.0,True,0.477,2,True,left,0.0,0.00042660022154450417,2.273364100139588,2.2729374999180436,1.5482825003564358,2.0477921003475785,0.49950959999114275,
46,0.50258,1.2,1,0.34343,0.22616,0.82925,46,2.30348,-0.19,-0.09214,0.40206,5,1U1D,2.0,True,0.595,1,True,right,0.0,0.0007491996511816978,2.3064995999448,2.3057504002936184,1.5571327996440232,2.057304499670863,0.50017170002684,
47,0.50258,0.1,1,0.25966,0.37693,0.50258,47,2.36211,0.436,0.21778,0.72036,5,2D1U,1.0,True,0.654,2,True,left,0.0,0.0007579997181892395,2.358062000013888,2.3573040002956986,1.4654685999266803,1.9662862000986934,0.500817600172013,
48,0.50258,1.2,1,0.30992,0.21778,0.6701,48,1.75064,-0.9,-0.45232,0.05026,5,lapse_rate,1.0,False,2.977,0,False,left,0.0,0.0012411000207066536,1.7573730000294745,1.7561319000087678,1.0156557001173496,1.5157633000053465,0.5001075998879969,
49,0.50258,1.2,1,0.25966,0.3518,0.46907,49,1.72551,-0.72,-0.36018,0.1424,5,2U1D,2.0,True,1.899,1,False,right,0.0,0.00026930030435323715,1.7315877000801265,1.7313183997757733,0.8563534999266267,1.3565564998425543,0.5002029999159276,
50,0.50258,0.1,1,0.39368,0.30155,0.70361,50,2.19459,-0.41,-0.20103,0.29317,5,1D1U,1.0,False,0.766,1,False,left,0.0,0.0007285997271537781,2.2068113000132143,2.2060827002860606,1.3732245001010597,1.8737176000140607,0.5004930999130011,
51,0.50258,1.2,1,0.43557,0.39368,0.89626,51,2.91494,0.382,0.19265,0.68685,5,2D1U,1.0,True,0.929,2,False,left,0.0,0.0002720002084970474,2.915068000089377,2.91479599988088,1.997856100089848,2.4982149000279605,0.5003587999381125,
52,0.50258,0.1,1,0.25129,0.21778,0.77899,52,1.8009,-0.9,-0.45232,0.05026,5,lapse_rate,1.0,False,2.915,0,False,left,0.0,0.00027720024809241295,1.8082348997704685,1.807957699522376,1.0660977000370622,1.56664999993518,0.5005522998981178,
53,0.50258,0.1,1,0.20941,0.29317,0.58634,53,2.02707,-0.136,-0.06701,0.43557,5,1U1D,1.0,False,1.866,2,True,left,0.0,0.0002649002708494663,2.0220915996469557,2.0218266993761063,1.2140555996447802,1.7137727998197079,0.4997172001749277,
54,0.50258,1.2,1,0.34343,0.3518,0.82925,54,2.16946,-0.72,-0.36018,0.1424,5,2U1D,2.0,True,0.51,1,False,right,0.0,0.0002707000821828842,2.1818857002072036,2.1816150001250207,1.2989115002565086,1.7989976000972092,0.5000860998407006,
55,0.50258,0.1,1,0.38531,0.3183,0.72036,55,2.17784,-0.5,-0.25129,0.25129,5,1D1U,1.0,False,1.049,1,False,left,0.0,0.0007835999131202698,2.1808643001131713,2.180080700200051,1.3394960002042353,1.8398055001161993,0.5003094999119639,
56,0.50258,1.2,1,0.20941,0.20941,0.65335,56,2.52127,0.9,0.45232,0.94652,5,lapse_rate,1.0,True,0.501,0,False,left,0.0,0.0007217000238597393,2.524481199681759,2.523759499657899,1.790380199905485,2.291274100076407,0.5008939001709223,
57,0.50258,1.2,1,0.29317,0.25966,0.73711,57,1.99355,-0.59,-0.29317,0.20103,5,1D1U,2.0,True,1.933,1,False,right,0.0,0.0007766997441649437,1.9994308003224432,1.9986541005782783,1.2156255999580026,1.7159112999215722,0.5002856999635696,
58,0.50258,0.1,1,0.21778,0.44394,0.42719,58,1.99355,-0.19,-0.09214,0.40206,5,1U1D,1.0,False,1.145,3,True,left,0.0,0.0007468000985682011,2.0159305999986827,2.0151837999001145,1.032284699846059,1.5322965998202562,0.5000118999741971,
59,0.50258,1.2,1,0.25129,0.42719,0.56959,59,1.93493,-0.63,-0.3183,0.18428,5,2U1D,1.0,False,1.418,1,False,left,0.0,0.0002762996591627598,1.955193500034511,1.9549172003753483,0.9884847002103925,1.4887750004418194,0.500290300231427,
60,0.50258,0.1,2,0.34343,0.38531,0.57796,60,2.49613,0.382,0.19265,0.68685,5,2D1U,2.0,True,0.341,2,False,right,0.0,0.0007205000147223473,2.4979535001330078,2.4972330001182854,0.3313373001292348,0.8313905000686646,0.5000531999394298,
61,0.50258,1.2,2,0.3518,0.44394,0.74549,61,2.27835,-0.536,-0.26804,0.23454,5,1D1U,2.0,False,0.391,2,True,right,0.0,0.0007260004058480263,2.2817230001091957,2.2809969997033477,0.3402963001281023,0.84031100012362,0.5000146999955177,
62,0.50258,0.1,2,0.38531,0.20941,0.72036,62,2.47939,0.328,0.16753,0.66173,5,2D1U,2.0,True,0.645,2,False,right,0.0,0.0002667997032403946,2.4825407001189888,2.4822739004157484,0.37409189995378256,0.8741111997514963,0.5000192997977138,
63,0.50258,0.1,2,0.42719,0.30992,0.85438,63,2.14433,-0.9,-0.45232,0.05026,5,lapse_rate,1.0,True,0.4,0,False,left,0.0,0.0002677999436855316,2.1474863002076745,2.147218500263989,0.4140925002284348,0.9143206998705864,0.5002281996421516,
64,0.50258,1.2,2,0.32667,0.36018,0.43557,64,1.78415,-0.684,-0.34343,0.15915,5,2U1D,2.0,False,0.687,2,True,right,0.0,0.0003263000398874283,1.7813952001743019,1.7810689001344144,0.3144643004052341,0.8148060003295541,0.50034169992432,
65,0.50258,0.1,2,0.23454,0.22616,0.50258,65,1.84279,-0.244,-0.12564,0.37693,5,1U1D,1.0,True,10.858,3,False,left,0.0,0.00042300019413232803,1.8478625998832285,1.8474395996890962,0.22303189989179373,0.7230774001218379,0.5000455002300441,
66,0.50258,1.2,2,0.41881,0.21778,0.77899,66,2.57989,0.328,0.16753,0.66173,5,2D1U,2.0,True,0.808,2,False,right,0.0,0.0002456996589899063,2.5979916001670063,2.5977459005080163,0.40622639982029796,0.906977899838239,0.500751500017941,
67,0.50258,1.2,2,0.33505,0.33505,0.88788,67,3.00708,0.9,0.45232,0.94652,5,lapse_rate,2.0,True,0.488,0,False,right,0.0,0.00025410018861293793,3.0070183998905122,3.0067642997018993,0.3239489998668432,0.8240100997500122,0.5000610998831689,
68,0.50258,0.1,2,0.34343,0.44394,0.88788,68,2.57989,-0.19,-0.09214,0.40206,5,1U1D,2.0,False,0.795,4,True,right,0.0,0.0002709999680519104,2.5982523998245597,2.597981399856508,0.33184750005602837,0.8317018998786807,0.49985439982265234,
69,0.50258,1.2,2,0.42719,0.26804,0.54446,69,1.9433,-0.59,-0.29317,0.20103,5,1D1U,2.0,False,1.425,3,True,right,0.0,0.0007393998093903065,1.9493412002921104,1.9486018004827201,0.41552780009806156,0.9152326001785696,0.499704800080508,
70,0.50258,0.1,2,0.41044,0.29317,0.72874,70,2.06895,-0.738,-0.36856,0.13402,5,2U1D,2.0,False,0.607,2,False,right,0.0,0.0003457004204392433,2.0642388998530805,2.0638931994326413,0.3981570000760257,0.8977490002289414,0.4995920001529157,
71,0.50258,1.2,2,0.21778,0.30155,0.58634,71,1.70877,-0.792,-0.39368,0.10052,5,2U1D,2.0,False,0.526,2,False,right,0.0,0.0005713002756237984,1.7238052999600768,1.723233999684453,0.20681509980931878,0.7068723998963833,0.5000573000870645,
72,0.50258,0.1,2,0.34343,0.43557,0.51933,72,2.17784,-0.244,-0.12564,0.37693,5,1U1D,2.0,False,1.671,5,True,right,0.0,0.0004377998411655426,2.165035500191152,2.1645977003499866,0.33151340018957853,0.8317670999094844,0.5002536997199059,
73,0.50258,0.1,2,0.25966,0.30155,0.68685,73,1.8009,-0.9,-0.45232,0.05026,5,lapse_rate,1.0,True,2.436,0,False,left,0.0,0.00026219990104436874,1.7981004999019206,1.7978383000008762,0.24851630022749305,0.7483065999113023,0.4997902996838093,
74,0.50258,1.2,2,0.43557,0.29317,0.4942,74,2.36212,0.274,0.13402,0.6366,5,2D1U,2.0,True,0.725,2,False,right,0.0,0.0007310998626053333,2.363418400287628,2.362687300425023,0.42215280001983047,0.9219996999017894,0.49984689988195896,
75,0.50258,0.1,2,0.25966,0.37693,0.48582,75,1.80089,-0.644,-0.3183,0.1759,5,1D1U,1.0,True,0.568,3,False,left,0.0,0.00033820001408457756,1.807676199823618,1.8073379998095334,0.24888980016112328,0.7491772999055684,0.5002874997444451,
76,0.50258,1.2,2,0.22616,0.27642,0.83763,76,1.91818,-0.846,-0.41881,0.07539,5,2U1D,1.0,True,0.697,2,False,left,0.0,0.0006676996126770973,1.9238581000827253,1.9231904004700482,0.2156445998698473,0.7154242997057736,0.4997796998359263,
77,0.50258,1.2,2,0.3518,0.41881,0.41881,77,1.74226,-0.9,-0.45232,0.05026,5,lapse_rate,1.0,True,2.693,0,False,left,0.0,0.000443900004029274,1.7405092995613813,1.740065399557352,0.34078799979761243,0.840130899567157,0.4993428997695446,
78,0.50258,0.1,2,0.3518,0.33505,0.57796,78,2.11919,-0.298,-0.15077,0.3518,5,1U1D,2.0,False,1.433,5,False,right,0.0,0.00026350002735853195,2.115904999896884,2.1156414998695254,0.3413898996077478,0.8411262999288738,0.499736400321126,
79,0.50258,1.2,2,0.41044,0.40206,0.61984,79,2.13595,-0.59,-0.29317,0.20103,5,1D1U,2.0,False,0.514,4,True,right,0.0,0.0006299000233411789,2.139804099686444,2.1391741996631026,0.39762109983712435,0.8976957998238504,0.500074699986726,
80,0.50258,0.1,2,0.3518,0.28479,0.41044,80,2.18621,0.274,0.13402,0.6366,5,2D1U,2.0,True,0.399,2,False,right,0.0,0.0007114997133612633,2.1893095998093486,2.1885981000959873,0.3387083997949958,0.8391883997246623,0.5004799999296665,
81,0.50258,1.2,2,0.33505,0.3518,0.53608,81,2.33698,0.22,0.10889,0.61147,5,2D1U,2.0,True,0.213,2,False,right,0.0,0.00042870035395026207,2.340287100058049,2.3398583997040987,0.32355079986155033,0.8239484997466207,0.5003976998850703,
82,0.50258,0.1,2,0.22616,0.25966,0.50258,82,1.66688,-0.644,-0.3183,0.1759,5,1D1U,2.0,False,0.712,5,True,right,0.0,0.0006574001163244247,1.6821781997568905,1.681520799640566,0.215586899779737,0.7154113999567926,0.4998245001770556,
83,0.50258,0.1,2,0.28479,0.32667,0.67848,83,1.84278,-0.9,-0.45232,0.05026,5,lapse_rate,1.0,True,0.268,0,False,left,0.0,0.0005238000303506851,1.8487690999172628,1.848245299886912,0.2730280002579093,0.7734786001965404,0.5004505999386311,
84,0.50258,1.2,2,0.36018,0.28479,0.60309,84,1.82603,-0.846,-0.41881,0.07539,5,2U1D,1.0,True,0.624,2,False,left,0.0,0.00027820002287626266,1.8312148000113666,1.8309365999884903,0.34785200003534555,0.8476661997847259,0.49981419974938035,
85,0.50258,0.1,2,0.29317,0.25129,0.43557,85,1.80928,-0.352,-0.1759,0.32667,5,1U1D,2.0,False,0.492,5,False,right,0.0,0.0009833001531660557,1.814100599847734,1.813117299694568,0.28043749975040555,0.7803531000390649,0.49991560028865933,
86,0.50258,1.2,2,0.25966,0.27642,0.73711,86,1.87629,-0.792,-0.39368,0.10052,5,2U1D,1.0,True,0.803,3,True,left,0.0,0.0006674998439848423,1.8737480002455413,1.8730805004015565,0.24977950006723404,0.7489783000200987,0.49919879995286465,
87,0.50258,0.1,2,0.34343,0.37693,0.79575,87,2.31186,-0.406,-0.20103,0.29317,5,1U1D,2.0,False,0.466,5,False,right,0.0,0.0004580998793244362,2.3237729999236763,2.323314900044352,0.3322993000037968,0.8319139997474849,0.4996146997436881,
88,0.50258,1.2,2,0.20941,0.40206,0.55283,88,1.81765,-0.698,-0.3518,0.15077,5,1D1U,2.0,False,1.586,5,False,right,0.0,0.0002864999696612358,1.8228949001058936,1.8226084001362324,0.19791690027341247,0.6981374002061784,0.500220499932766,
89,0.50258,0.1,2,0.40206,0.3183,0.55283,89,2.72229,0.9,0.45232,0.94652,5,lapse_rate,2.0,True,0.113,0,False,right,0.0,0.0007065995596349239,2.722107899840921,2.7214013002812862,0.3889399999752641,0.8883076999336481,0.49936769995838404,
90,0.50258,0.1,1,0.28479,0.36018,0.53608,90,2.2951,0.22,0.10889,0.61147,5,2D1U,1.0,True,0.493,2,False,left,0.0,0.0008713002316653728,2.3074995996430516,2.3066282994113863,1.4156213998794556,1.9160895999521017,0.5004682000726461,
91,0.50258,1.2,1,0.22616,0.38531,0.42719,91,1.66688,-0.752,-0.37693,0.12564,5,1D1U,2.0,True,1.177,5,False,right,0.0,0.0007609999738633633,1.6740049002692103,1.673243900295347,0.7659052000381052,1.2658704998902977,0.4999652998521924,
92,0.50258,1.2,1,0.24291,0.41044,0.48582,92,1.69201,-0.9,-0.45232,0.05026,5,lapse_rate,2.0,True,0.593,0,False,right,0.0,0.0007763002067804337,1.6993911997415125,1.698614899534732,0.7660508998669684,1.2661251998506486,0.5000742999836802,
93,0.50258,0.1,1,0.25129,0.24291,0.79575,93,1.89305,-0.792,-0.39368,0.10052,5,2U1D,2.0,True,3.109,3,True,right,0.0,0.00027430010959506035,1.8989689997397363,1.8986946996301413,1.1318109999410808,1.6325004999525845,0.5006895000115037,
94,0.50258,1.2,1,0.42719,0.38531,0.67848,94,2.2616,-0.46,-0.22616,0.26804,5,1U1D,1.0,False,1.99,5,False,left,0.0,0.00041610002517700195,2.2564559001475573,2.2560398001223803,1.3568688998930156,1.856235499959439,0.4993666000664234,
95,0.50258,0.1,1,0.25966,0.29317,0.59472,95,2.23647,0.166,0.08376,0.58634,5,2D1U,1.0,True,1.151,2,False,left,0.0,0.0007394999265670776,2.2411545999348164,2.2404151000082493,1.4242608998902142,1.9246396999806166,0.5003788000904024,
96,0.50258,1.2,1,0.26804,0.20103,0.55283,96,2.11082,0.166,0.08376,0.58634,5,2D1U,1.0,True,1.248,2,False,left,0.0,0.0007829996757209301,2.123852699995041,2.12306970031932,1.3908660998567939,1.8900744998827577,0.4992084000259638,
97,0.50258,0.1,1,0.25966,0.25129,0.82087,97,1.98517,-0.698,-0.3518,0.15077,5,1D1U,2.0,True,0.417,6,True,right,0.0,0.0006006998009979725,1.9983303002081811,1.9977296004071832,1.2153902002610266,1.7154212999157608,0.5000310996547341,
98,0.50258,1.2,1,0.30155,0.34343,0.8125,98,2.20297,-0.514,-0.25966,0.24291,5,1U1D,1.0,False,1.252,5,False,left,0.0,0.00026330025866627693,2.1982933999970555,2.1980300997383893,1.339635600335896,1.8396773003041744,0.5000416999682784,
99,0.50258,0.1,1,0.42719,0.22616,0.58634,99,1.87629,-0.738,-0.36856,0.13402,5,2U1D,2.0,True,0.304,3,False,right,0.0,0.00028040027245879173,1.8827986000105739,1.882518199738115,1.1319197998382151,1.632491100113839,0.5005713002756238,
100,0.50258,1.2,1,0.41881,0.3518,0.72874,100,2.94845,0.9,0.45232,0.94652,5,lapse_rate,2.0,False,0.748,0,False,right,0.0,0.0007319003343582153,2.9495307998731732,2.948798899538815,2.074894499965012,2.5747451996430755,0.4998506996780634,
101,0.50258,1.2,1,0.22616,0.40206,0.54446,101,1.80928,-0.738,-0.36856,0.13402,5,2U1D,2.0,True,2.041,3,False,right,0.0,0.0003554001450538635,1.806144599802792,1.8057891996577382,0.8899189997464418,1.3899189000949264,0.4999999003484845,
102,0.50258,0.1,1,0.32667,0.24291,0.87113,102,2.49612,0.112,0.05863,0.55283,5,2D1U,1.0,True,0.825,2,False,left,0.0,0.0007666000165045261,2.5065704002045095,2.505803800188005,1.7311301003210247,2.2314686002209783,0.5003384998999536,
103,0.50258,1.2,1,0.3183,0.38531,0.40206,103,2.55477,0.9,0.45232,0.94652,5,lapse_rate,1.0,True,0.32,0,False,left,0.0,0.0004023001529276371,2.5660263001918793,2.5656240000389516,1.6492041000165045,2.149492900352925,0.5002888003364205,
104,0.50258,1.2,1,0.30992,0.30992,0.72874,104,2.06894,-0.568,-0.28479,0.21778,5,1U1D,2.0,True,0.22,5,False,right,0.0,0.0007103001698851585,2.0745518999174237,2.0738415997475386,1.2406612001359463,1.74133410025388,0.5006729001179338,
105,0.50258,0.1,1,0.36856,0.22616,0.60309,105,1.87629,-0.644,-0.3183,0.1759,5,1D1U,2.0,True,0.135,6,False,right,0.0,0.0005602999590337276,1.872839500196278,1.8722792002372444,1.1317406999878585,1.6313440003432333,0.4996033003553748,
106,0.50258,0.1,1,0.43557,0.20103,0.47745,106,2.56315,0.9,0.45232,0.94652,5,lapse_rate,1.0,True,1.013,0,False,left,0.0,0.0005467003211379051,2.565588000230491,2.5650412999093533,1.8411000999622047,2.341300900094211,0.5002008001320064,
107,0.50258,1.2,1,0.26804,0.27642,0.56121,107,1.85116,-0.514,-0.25966,0.24291,5,1U1D,2.0,True,0.818,6,True,right,0.0,0.0006205998361110687,1.8655497999861836,1.8649292001500726,1.0572761995717883,1.557537299580872,0.5002611000090837,
108,0.50258,0.1,1,0.23454,0.22616,0.71198,108,1.87629,-0.59,-0.29317,0.20103,5,1D1U,2.0,True,0.724,6,False,right,0.0,0.0002767997793853283,1.8811613996513188,1.8808845998719335,1.1320743998512626,1.631434400100261,0.4993600002489984,
109,0.50258,1.2,1,0.25129,0.22616,0.76224,109,1.90142,-0.684,-0.34343,0.15915,5,2U1D,2.0,True,0.684,3,False,right,0.0,0.0002933000214397907,1.9078459003940225,1.9075526003725827,1.1574666001833975,1.657950600143522,0.5004839999601245,
110,0.50258,0.1,1,0.36856,0.36018,0.61147,110,2.39562,0.112,0.05863,0.55283,5,2D1U,1.0,True,4.004,2,False,left,0.0,0.000730899628251791,2.397986799944192,2.3972559003159404,1.5139192999340594,2.014409299939871,0.5004900000058115,
111,0.50258,1.2,1,0.22616,0.24291,0.43557,111,1.93493,0.058,0.02513,0.52771,5,2D1U,1.0,True,1.275,2,False,left,0.0,0.0006912997923791409,1.948338100221008,1.947646800428629,1.173399600200355,1.673438400030136,0.500038799829781,
112,0.50258,0.1,1,0.36018,0.21778,0.50258,112,1.81766,-0.536,-0.26804,0.23454,5,1D1U,2.0,True,0.114,6,False,right,0.0,0.0007509998977184296,1.806487400084734,1.8057364001870155,1.0814783000387251,1.5816653999499977,0.5001870999112725,
113,0.50258,1.2,1,0.36856,0.30155,0.83763,113,2.27836,-0.46,-0.22616,0.26804,5,1U1D,2.0,True,0.755,6,False,right,0.0,0.0005634999834001064,2.2653167000971735,2.2647532001137733,1.457327099982649,1.957678200211376,0.5003511002287269,
114,0.50258,0.1,1,0.3183,0.20103,0.58634,114,1.7674,-0.684,-0.34343,0.15915,5,2U1D,2.0,True,0.506,3,False,right,0.0,0.0002934001386165619,1.7643094998784363,1.7640160997398198,1.047077499795705,1.547289100009948,0.5002116002142429,
115,0.50258,0.1,1,0.22616,0.20941,0.65335,115,1.64176,-0.9,-0.45232,0.05026,5,lapse_rate,2.0,True,0.496,0,False,right,0.0,0.0015412000939249992,1.6471802997402847,1.6456390996463597,0.9226346998475492,1.4222797001712024,0.4996450003236532,
116,0.50258,1.2,1,0.26804,0.39368,0.87951,116,2.30347,-0.482,-0.24291,0.25966,5,1D1U,2.0,True,0.526,6,False,right,0.0,0.0006188000552356243,2.2987832999788225,2.298164499923587,1.3909156997688115,1.890816899947822,0.49990120017901063,
117,0.50258,0.1,1,0.27642,0.34343,0.43557,117,1.60826,-0.9,-0.45232,0.05026,5,lapse_rate,2.0,True,0.551,0,False,right,0.0,0.0006555002182722092,1.6240936000831425,1.6234380998648703,0.7486449000425637,1.2481424999423325,0.49949759989976883,
118,0.50258,0.1,1,0.34343,0.21778,0.54446,118,2.13596,0.058,0.02513,0.52771,5,2D1U,2.0,False,0.77,2,False,right,0.0,0.0005626003257930279,2.149262700229883,2.14870009990409,1.3993914001621306,1.8990568998269737,0.4996654996648431,
119,0.50258,1.2,1,0.27642,0.38531,0.53608,119,1.88467,-0.63,-0.3183,0.18428,5,2U1D,2.0,True,1.154,3,False,right,0.0,0.0011946000158786774,1.8805550001561642,1.8793604001402855,0.9888025000691414,1.4886010000482202,0.49979849997907877,
120,0.50258,0.1,2,0.37693,0.23454,0.44394,120,1.85116,-0.406,-0.20103,0.29317,5,1U1D,2.0,False,1.401,6,False,right,0.0,0.0002615000121295452,1.8658280996605754,1.8655665996484458,0.36591749964281917,0.8658651998266578,0.4999477001838386,
121,0.50258,1.2,2,0.3183,0.37693,0.42719,121,1.80928,-0.63,-0.3183,0.18428,5,2U1D,1.0,True,0.945,3,False,left,0.0,0.0002864999696612358,1.8235193998552859,1.8232328998856246,0.3065777998417616,0.8067513997666538,0.5001735999248922,
122,0.50258,0.1,2,0.32667,0.30155,0.46069,122,1.87628,-0.428,-0.21778,0.28479,5,1D1U,1.0,True,0.754,6,False,left,0.0,0.0008237999863922596,1.8629613001830876,1.8621375001966953,0.3214777000248432,0.8213674002327025,0.4998897002078593,
123,0.50258,1.2,2,0.33505,0.37693,0.61984,123,2.10244,-0.46,-0.22616,0.26804,5,1U1D,2.0,False,1.475,7,True,right,0.0,0.0010953997261822224,2.097525400109589,2.096430000383407,0.3230122998356819,0.8227404002100229,0.499728100374341,
124,0.50258,0.1,2,0.41044,0.24291,0.51095,124,2.21971,0.112,0.05863,0.55283,5,2D1U,2.0,True,0.109,3,True,right,0.0,0.0007310002110898495,2.214344300329685,2.2136133001185954,0.3980308002792299,0.8971307999454439,0.499099999666214,
125,0.50258,0.1,2,0.28479,0.22616,0.77062,125,2.73067,0.9,0.45232,0.94652,5,lapse_rate,2.0,True,0.243,0,False,right,0.0,0.000657899770885706,2.7382205999456346,2.737562700174749,0.2714366000145674,0.7715389998629689,0.5001023998484015,
126,0.50258,0.1,2,0.28479,0.36018,0.41044,126,2.50451,0.9,0.45232,0.94652,5,lapse_rate,2.0,True,0.266,0,False,right,0.0,0.0007147002033889294,2.5160195003263652,2.5153048001229763,0.2738566999323666,0.7742137000896037,0.500357000157237,
127,0.50258,1.2,2,0.36856,0.21778,0.72874,127,2.06057,-0.514,-0.25966,0.24291,5,1U1D,1.0,True,0.614,7,False,left,0.0,0.0002546999603509903,2.066285100299865,2.066030400339514,0.35736320028081536,0.8578635999001563,0.5005003996193409,
128,0.50258,0.1,2,0.24291,0.21778,0.61147,128,1.78415,-0.576,-0.28479,0.20941,5,2U1D,1.0,True,1.637,3,False,left,0.0,0.0005522998981177807,1.7818783996626735,1.7813260997645557,0.23189259972423315,0.7320942999795079,0.5002017002552748,
129,0.50258,1.2,2,0.26804,0.42719,0.83763,129,2.34536,-0.374,-0.18428,0.30992,5,1D1U,2.0,False,2.728,6,False,right,0.0,0.0006730998866260052,2.3482518000528216,2.3475787001661956,0.25637019984424114,0.7565243998542428,0.5001542000100017,
130,0.50258,0.1,2,0.3183,0.36018,0.46069,130,2.19458,0.112,0.05863,0.55283,5,2D1U,2.0,True,0.192,3,True,right,0.0,0.0005504000000655651,2.20847380021587,2.2079234002158046,0.3082940001040697,0.8088540001772344,0.5005600000731647,
131,0.50258,1.2,2,0.25129,0.3518,0.6701,131,1.98518,-0.576,-0.28479,0.20941,5,2U1D,1.0,True,0.568,3,False,left,0.0,0.00029579969123005867,1.9814897999167442,1.9811940002255142,0.2400734000839293,0.7402508999221027,0.5001774998381734,
132,0.50258,0.1,2,0.41044,0.25129,0.846,132,2.27835,-0.46,-0.22616,0.26804,5,1U1D,1.0,True,0.752,8,True,left,0.0,0.0003992002457380295,2.2806120002642274,2.2802128000184894,0.39769549993798137,0.897393099963665,0.49969760002568364,
133,0.50258,0.1,2,0.3518,0.33505,0.59472,133,2.73067,0.9,0.45232,0.94652,5,lapse_rate,2.0,True,0.166,0,False,right,0.0,0.000367799773812294,2.7400941997766495,2.739726400002837,0.34003529977053404,0.8398233996704221,0.49978809989988804,
134,0.50258,1.2,2,0.44394,0.38531,0.80412,134,2.42074,-0.428,-0.21778,0.28479,5,1D1U,2.0,False,0.392,7,True,right,0.0,0.0005908999592065811,2.431420899927616,2.4308299999684095,0.43161039985716343,0.9314488000236452,0.49983840016648173,
135,0.50258,0.1,2,0.30992,0.22616,0.6701,135,2.23647,0.058,0.02513,0.52771,5,2D1U,2.0,True,0.271,4,True,right,0.0,0.0003781002014875412,2.248207500204444,2.2478294000029564,0.2984664002433419,0.79816950019449,0.49970309995114803,
136,0.50258,1.2,2,0.34343,0.44394,0.6701,136,2.25322,-0.406,-0.20103,0.29317,5,1U1D,2.0,False,0.434,8,False,right,0.0,0.0003613000735640526,2.2655643997713923,2.2652030996978283,0.3324907999485731,0.8323830999433994,0.4998922999948263,
137,0.50258,0.1,2,0.42719,0.30992,0.41044,137,1.89304,-0.522,-0.25966,0.24291,5,2U1D,2.0,False,0.325,3,False,right,0.0,0.0007102000527083874,1.9077860000543296,1.9070758000016212,0.41570840030908585,0.915340100415051,0.49963170010596514,
138,0.50258,1.2,2,0.36856,0.42719,0.45232,138,2.27836,0.058,0.02513,0.52771,5,2D1U,2.0,True,1.519,4,True,right,0.0,0.0002629002556204796,2.2648921003565192,2.2646292001008987,0.3568140002898872,0.8563873004168272,0.49957330012694,
139,0.50258,0.1,2,0.25129,0.29317,0.82925,139,2.13595,-0.482,-0.24291,0.25966,5,1D1U,2.0,False,0.485,7,False,right,0.0,0.00036530010402202606,2.148352200165391,2.147986900061369,0.23997100023552775,0.7398328999988735,0.4998618997633457,
140,0,0,0,0,0,0,0,0,0,0,0,0,0,0,0,0,0,0,0,0,0,0,0,0,0,0,0
141,0.50258,1.2,2,0.23454,0.30155,0.52771,141,1.80092,-0.536,-0.26804,0.23454,5,1D1U,2.0,False,0.474,7,False,right,0.0,0.00028009992092847824,1.7990719000808895,1.798791800159961,0.22427100036293268,0.7241732003167272,0.4999021999537945,
142,0.50258,0.1,2,0.26804,0.37693,0.64497,142,2.00193,-0.576,-0.28479,0.20941,5,2U1D,2.0,False,0.395,4,True,right,0.0,0.0007315999828279018,1.9983443999662995,1.9976127999834716,0.2567524998448789,0.7564137997105718,0.49966129986569285,
143,0.50258,1.2,2,0.33505,0.43557,0.89626,143,2.67204,0.004,0.0,0.50258,5,2D1U,2.0,False,0.58,4,False,right,0.0,0.00027379998937249184,2.6822382998652756,2.681964499875903,0.3239405998028815,0.8239764999598265,0.500035900156945,
144,0.50258,0.1,2,0.29317,0.26804,0.50258,144,1.83441,-0.46,-0.22616,0.26804,5,1U1D,1.0,True,0.39,9,True,left,0.0,0.0005024001002311707,1.8325387998484075,1.8320363997481763,0.2823699996806681,0.7822277997620404,0.49985780008137226,
145,0.50258,1.2,2,0.39368,0.23454,0.77899,145,2.20296,-0.406,-0.20103,0.29317,5,1U1D,2.0,False,0.67,10,True,right,0.0,0.00026140036061406136,2.1982975001446903,2.198036099784076,0.3819034001789987,0.8819796000607312,0.5000761998817325,
146,0.50258,0.1,2,0.43557,0.34343,0.77899,146,2.32861,-0.46,-0.22616,0.26804,5,1U1D,2.0,False,0.531,11,True,right,0.0,0.00026830006390810013,2.33112240023911,2.330854100175202,0.42311260011047125,0.9222224000841379,0.49910979997366667,
147,0.50258,1.2,2,0.29317,0.20941,0.46069,147,1.70876,-0.514,-0.25966,0.24291,5,1U1D,2.0,False,0.574,11,False,right,0.0,0.00040160026401281357,1.7223482001572847,1.721946599893272,0.2812835001386702,0.7805296001024544,0.4992460999637842,
148,0.50258,0.1,2,0.25966,0.40206,0.44394,148,2.13595,0.058,0.02513,0.52771,5,2D1U,2.0,True,0.553,5,True,right,0.0,0.0007862001657485962,2.1492480002343655,2.148461800068617,0.24860880011692643,0.7485660002566874,0.49995720013976097,
149,0.50258,1.2,2,0.41881,0.23454,0.89626,149,2.25322,-0.59,-0.29317,0.20103,5,1D1U,2.0,False,2.185,7,False,right,0.0,0.0006772000342607498,2.2647331999614835,2.2640559999272227,0.4056899999268353,0.9061103998683393,0.500420399941504,
150,0.50258,0.1,1,0.44394,0.27642,0.57796,150,1.98518,-0.63,-0.3183,0.18428,5,2U1D,2.0,True,1.001,4,False,right,0.0,0.000449600163847208,1.98979019979015,1.9893405996263027,1.1908362000249326,1.6901554996147752,0.49931929958984256,
151,0.50258,1.2,1,0.40206,0.22616,0.82925,151,2.17783,-0.568,-0.28479,0.21778,5,1U1D,1.0,False,2.93,11,False,left,0.0,0.00026610027998685837,2.173344699665904,2.173078599385917,1.4314162996597588,1.930902199819684,0.4994859001599252,
152,0.50258,0.1,1,0.40206,0.36856,0.64497,152,2.09407,-0.644,-0.3183,0.1759,5,1D1U,2.0,True,2.309,7,False,right,0.0,0.0007210997864603996,2.115789500065148,2.1150684002786875,1.2074168999679387,1.7066711001098156,0.49925420014187694,
153,0.50258,1.2,1,0.43557,0.26804,0.77062,153,2.16109,-0.63,-0.3183,0.18428,5,2U1D,1.0,False,24.704,4,False,left,0.0,0.00027400022372603416,2.156813200097531,2.156539199873805,1.373890900053084,1.874044599942863,0.5001536998897791,
154,0.50258,0.1,1,0.32667,0.3183,0.54446,154,2.21972,0.058,0.02513,0.52771,5,2D1U,1.0,True,0.256,5,True,left,0.0,0.0007234998047351837,2.214441600255668,2.213718100450933,1.3812526003457606,1.8817354002967477,0.5004827999509871,
155,0.50258,1.2,1,0.25129,0.25129,0.79575,155,2.30349,0.004,0.0,0.50258,5,2D1U,1.0,False,0.363,6,True,left,0.0,0.0007106000557541847,2.3077778997831047,2.3070672997273505,1.5318967998027802,2.032254199963063,0.5003574001602829,
156,0.50258,0.1,1,0.25966,0.20941,0.64497,156,1.80927,-0.622,-0.30992,0.19265,5,1U1D,2.0,True,1.153,11,False,right,0.0,0.0005453000776469707,1.8317815996706486,1.8312362995930016,1.0822532996535301,1.582331100013107,0.5000778003595769,
157,0.50258,1.2,1,0.21778,0.39368,0.53608,157,1.85115,-0.59,-0.29317,0.20103,5,1D1U,2.0,True,1.22,8,True,right,0.0,0.0005988003686070442,1.8572737001813948,1.8566748998127878,0.9403578001074493,1.4401740999892354,0.4998162998817861,
158,0.50258,0.1,1,0.43557,0.41044,0.50258,158,2.01032,-0.684,-0.34343,0.15915,5,2U1D,2.0,True,0.565,4,False,right,0.0,0.00074009969830513,2.0072661000303924,2.0065260003320873,1.0826840000227094,1.5832600998692214,0.5005760998465121,
159,0.50258,1.2,1,0.38531,0.44394,0.77062,159,2.63016,0.058,0.02513,0.52771,5,2D1U,1.0,True,1.902,7,True,left,0.0,0.0007298998534679413,2.6404491998255253,2.6397192999720573,1.6655605998821557,2.165645800065249,0.5000852001830935,
160,0.50258,0.1,1,0.37693,0.39368,0.6701,160,2.16107,-0.568,-0.28479,0.21778,5,1U1D,2.0,True,1.412,12,True,right,0.0,0.000404400285333395,2.165564199909568,2.1651597996242344,1.248567100148648,1.74827879993245,0.49971169978380203,
161,0.50258,1.2,1,0.34343,0.3518,0.42719,161,1.85954,-0.536,-0.26804,0.23454,5,1D1U,2.0,True,0.382,8,False,right,0.0,0.00026800017803907394,1.8577115000225604,1.8574434998445213,0.9906871998682618,1.4911787998862565,0.5004916000179946,
162,0.50258,0.1,1,0.43557,0.44394,0.51095,162,2.42075,0.058,0.02513,0.52771,5,2D1U,1.0,True,0.111,7,True,left,0.0,0.0008772001601755619,2.4231111998669803,2.4222339997068048,1.4567928998731077,1.9560944996774197,0.499301599804312,
163,0.50258,1.2,1,0.27642,0.36018,0.76224,163,2.404,0.004,0.0,0.50258,5,2D1U,1.0,False,0.506,8,True,left,0.0,0.0004320000298321247,2.4154994999989867,2.4150674999691546,1.5238067000173032,2.0236309999600053,0.49982429994270205,
164,0.50258,0.1,1,0.44394,0.44394,0.69523,164,2.3286,-0.514,-0.25966,0.24291,5,1U1D,2.0,True,0.801,12,False,right,0.0,0.000580300111323595,2.3384936000220478,2.337913299910724,1.3634755997918546,1.8639950999058783,0.5005195001140237,
165,0.50258,1.2,1,0.28479,0.38531,0.51933,165,1.85116,-0.684,-0.34343,0.15915,5,2U1D,2.0,True,0.299,4,False,right,0.0,0.0004002000205218792,1.8647596999071538,1.864359499886632,0.9477662998251617,1.4483822998590767,0.500616000033915,
166,0.50258,0.1,1,0.38531,0.28479,0.44394,166,1.8009,-0.63,-0.3183,0.18428,5,2U1D,2.0,True,0.109,5,True,right,0.0,0.0003066002391278744,1.8065015999600291,1.8061949997209013,0.9978296998888254,1.497740900143981,0.49991120025515556,
167,0.50258,1.2,1,0.40206,0.3518,0.73711,167,2.26159,-0.46,-0.22616,0.26804,5,1U1D,2.0,True,0.24,12,False,right,0.0,0.00027529988437891006,2.2566872001625597,2.256411900278181,1.3898536004126072,1.8901479002088308,0.5002942997962236,
168,0.50258,0.1,1,0.29317,0.34343,0.846,168,2.51289,0.058,0.02513,0.52771,5,2D1U,1.0,True,0.649,9,True,left,0.0,0.0006842999719083309,2.523459400050342,2.5227751000784338,1.6487638000398874,2.149019999895245,0.5002561998553574,
169,0.50258,1.2,1,0.26804,0.30155,0.88788,169,2.21971,-0.482,-0.24291,0.25966,5,1D1U,2.0,True,0.108,8,False,right,0.0,0.0002574003301560879,2.221671700011939,2.2214142996817827,1.3966300999745727,1.896924499887973,0.5002943999134004,
170,0.50258,0.1,1,0.3518,0.23454,0.77062,170,2.04382,-0.63,-0.3183,0.18428,5,2U1D,2.0,True,0.301,5,True,right,0.0,0.000264700036495924,2.0486929998733103,2.0484282998368144,1.2905938997864723,1.7904616999439895,0.4998678001575172,
171,0.50258,1.2,1,0.25129,0.32667,0.74549,171,2.03544,-0.576,-0.28479,0.20941,5,2U1D,2.0,True,0.111,5,False,right,0.0,0.0002664998173713684,2.038717200048268,2.0384507002308965,1.188546400051564,1.688570300117135,0.5000239000655711,
172,0.50258,0.1,1,0.30992,0.42719,0.50258,172,2.02706,-0.428,-0.21778,0.28479,5,1D1U,2.0,True,0.646,8,False,right,0.0,0.0006522000767290592,2.0242698998190463,2.023617699742317,1.0826856000348926,1.5822854000143707,0.4995997999794781,
173,0.50258,1.2,1,0.30992,0.25129,0.6366,173,2.2281,0.058,0.02513,0.52771,5,2D1U,1.0,True,1.265,9,True,left,0.0,0.0007235999219119549,2.2238770998083055,2.2231534998863935,1.4572772001847625,1.9569422001950443,0.4996650000102818,
174,0.50258,0.1,1,0.30992,0.42719,0.56959,174,2.10245,-0.406,-0.20103,0.29317,5,1U1D,2.0,True,0.448,12,False,right,0.0,0.0002597002312541008,2.1080481000244617,2.1077883997932076,1.1576682003214955,1.6583619001321495,0.5006936998106539,
175,0.50258,1.2,1,0.3518,0.43557,0.72036,175,2.21972,-0.576,-0.28479,0.20941,5,2U1D,2.0,True,0.24,5,False,right,0.0,0.0007009999826550484,2.214805900119245,2.21410490013659,1.2651134999468923,1.7651595999486744,0.5000461000017822,
176,0.50258,0.1,1,0.41881,0.30992,0.52771,176,2.2616,0.004,0.0,0.50258,5,2D1U,1.0,False,0.391,10,True,left,0.0,0.000565200112760067,2.25800079992041,2.25743559980765,1.43250390002504,1.932309899944812,0.49980599991977215,
177,0.50258,1.2,1,0.44394,0.36018,0.67848,177,2.2951,-0.374,-0.18428,0.30992,5,1D1U,2.0,True,0.285,8,False,right,0.0,0.0007503996603190899,2.306454800069332,2.305704400409013,1.414355400018394,1.9148431001231074,0.5004877001047134,
178,0.50258,0.1,1,0.39368,0.43557,0.47745,178,2.13595,-0.352,-0.1759,0.32667,5,1U1D,2.0,True,0.591,12,False,right,0.0,0.00027590012177824974,2.141455799806863,2.141179899685085,1.1827285001054406,1.6827715998515487,0.500043099746108,
179,0.50258,1.2,1,0.25966,0.43557,0.58634,179,2.13595,-0.298,-0.15077,0.3518,5,1U1D,2.0,True,0.422,12,False,right,0.0,0.00026800017803907394,2.1473313001915812,2.147063300013542,1.1807392998598516,1.680608400143683,0.49986910028383136,
180,0.50258,0.1,2,0.23454,0.42719,0.78737,180,2.19459,-0.522,-0.25966,0.24291,5,2U1D,2.0,False,0.669,5,False,right,0.0,0.0007576998323202133,2.197829899843782,2.197072200011462,0.22238799976184964,0.7228917996399105,0.5005037998780608,
181,0.50258,1.2,2,0.38531,0.24291,0.71198,181,2.37049,0.058,0.02513,0.52771,5,2D1U,2.0,True,2.936,11,True,right,0.0,0.0007526003755629063,2.372934900224209,2.372182299848646,0.37334669986739755,0.8730693999677896,0.4997227001003921,
182,0.50258,0.1,2,0.30992,0.33505,0.51933,182,2.19459,0.058,0.02513,0.52771,5,2D1U,2.0,True,0.362,11,True,right,0.0,0.0002707000821828842,2.20658400002867,2.206313299946487,0.2979198000393808,0.7975302999839187,0.4996104999445379,
183,0.50258,1.2,2,0.22616,0.22616,0.72874,183,2.06057,-0.244,-0.12564,0.37693,5,1U1D,2.0,False,0.499,12,False,right,0.0,0.0007187998853623867,2.0640499000437558,2.0633311001583934,0.2142175999470055,0.7138869003392756,0.4996693003922701,
184,0.50258,0.1,2,0.28479,0.38531,0.68685,184,2.06894,-0.576,-0.28479,0.20941,5,2U1D,2.0,False,0.451,6,True,right,0.0,0.000745799858123064,2.0729088000953197,2.0721630002371967,0.27288509998470545,0.7730270000174642,0.5001419000327587,
185,0.50258,1.2,2,0.37693,0.45232,0.61147,185,2.28673,-0.32,-0.15915,0.34343,5,1D1U,1.0,True,0.498,8,False,left,0.0,0.0004914999008178711,2.299568200018257,2.299076700117439,0.36633329978212714,0.8664640998467803,0.5001308000646532,
186,0.50258,0.1,2,0.3183,0.33505,0.65335,186,1.99356,-0.63,-0.3183,0.18428,5,2U1D,1.0,True,0.549,6,False,left,0.0,0.0004894998855888844,2.0059410999529064,2.0054516000673175,0.30574640026316047,0.8056118004024029,0.4998654001392424,
187,0.50258,1.2,2,0.40206,0.3518,0.87113,187,2.63015,0.004,0.0,0.50258,5,2D1U,2.0,False,0.378,12,True,right,0.0,0.00028400029987096786,2.632159000262618,2.631874999962747,0.39011700032278895,0.8903858000412583,0.5002687997184694,
188,0.50258,0.1,2,0.36018,0.34343,0.82087,188,2.37886,-0.298,-0.15077,0.3518,5,1U1D,2.0,False,1.438,13,True,right,0.0,0.0005832002498209476,2.3650591000914574,2.3644758998416364,0.34903910011053085,0.8488480998203158,0.499808999709785,
189,0.50258,1.2,2,0.45232,0.21778,0.47745,189,1.9768,-0.352,-0.1759,0.32667,5,1U1D,2.0,False,1.548,13,False,right,0.0,0.0006842999719083309,1.9818988000042737,1.9812145000323653,0.4403386004269123,0.9403688004240394,0.5000301999971271,
190,0.50258,0.1,2,0.39368,0.3183,0.56959,190,2.15271,-0.266,-0.13402,0.36856,5,1D1U,2.0,False,1.142,8,False,right,0.0,0.00046980008482933044,2.173668900039047,2.1731990999542177,0.3820805000141263,0.882175900042057,0.5000954000279307,
191,0.50258,1.2,2,0.27642,0.32667,0.68685,191,2.08569,-0.406,-0.20103,0.29317,5,1U1D,1.0,True,0.871,13,False,left,0.0,0.000721300020813942,2.090157000347972,2.089435700327158,0.26499530021101236,0.7644722000695765,0.49947689985856414,
192,0.50258,0.1,2,0.28479,0.37693,0.56959,192,1.91817,-0.63,-0.3183,0.18428,5,2U1D,1.0,True,0.475,6,False,left,0.0,0.000430399551987648,1.922936400398612,1.9225060008466244,0.2730635004118085,0.7731076003983617,0.5000440999865532,
193,0.50258,1.2,2,0.38531,0.43557,0.64497,193,2.31186,-0.32,-0.15915,0.34343,5,1D1U,1.0,True,0.424,9,True,left,0.0,0.0002807001583278179,2.3229515999555588,2.322670899797231,0.3724732999689877,0.8722017998807132,0.4997284999117255,
194,0.50258,0.1,2,0.37693,0.41881,0.60309,194,2.42912,0.058,0.02513,0.52771,5,2D1U,2.0,True,0.115,13,True,right,0.0,0.00033799977973103523,2.4303135997615755,2.4299755999818444,0.36361269978806376,0.8646386000327766,0.5010259002447128,
195,0.50258,1.2,2,0.20103,0.36018,0.70361,195,2.29511,0.058,0.02513,0.52771,5,2D1U,2.0,True,0.283,13,True,right,0.0,0.0007286998443305492,2.3063978999853134,2.305669200140983,0.18992030015215278,0.690586700104177,0.5006663999520242,
196,0.50258,0.1,2,0.22616,0.22616,0.61147,196,2.06895,0.004,0.0,0.50258,5,2D1U,2.0,False,0.382,14,True,right,0.0,0.0003085997886955738,2.0747528998181224,2.074444300029427,0.21523639978840947,0.7152247000485659,0.4999883002601564,
197,0.50258,1.2,2,0.37693,0.34343,0.87113,197,2.62178,0.058,0.02513,0.52771,5,2D1U,1.0,False,0.582,15,True,left,0.0,0.0005679996684193611,2.6317833000794053,2.631215300410986,0.36500569991767406,0.8643815000541508,0.49937580013647676,
198,0.50258,0.1,2,0.29317,0.26804,0.70361,198,1.97681,-0.576,-0.28479,0.20941,5,2U1D,1.0,True,2.045,7,True,left,0.0,0.0007348000071942806,1.9743910999968648,1.9736562999896705,0.2825732002966106,0.7819357002153993,0.49936249991878867,
199,0.50258,1.2,2,0.43557,0.41881,0.80412,199,2.48775,-0.352,-0.1759,0.32667,5,1U1D,1.0,True,0.276,14,True,left,0.0,0.000744200311601162,2.4981684000231326,2.4974241997115314,0.4239517003297806,0.9225206999108195,0.49856899958103895,
200,0.50258,0.1,2,0.41044,0.23454,0.61147,200,2.12759,-0.266,-0.13402,0.36856,5,1D1U,1.0,True,0.424,10,True,left,0.0,0.0004039001651108265,2.140721300151199,2.1403173999860883,0.398683900013566,0.8987858002074063,0.5001019001938403,
201,0.50258,1.2,2,0.22616,0.32667,0.846,201,2.11082,-0.576,-0.28479,0.20941,5,2U1D,1.0,True,0.893,7,True,left,0.0,0.0007142997346818447,2.123219800181687,2.122505500447005,0.21441130014136434,0.7141279000788927,0.49971659993752837,
202,0.50258,0.1,2,0.34343,0.43557,0.74549,202,2.37887,-0.298,-0.15077,0.3518,5,1U1D,2.0,False,0.286,14,False,right,0.0,0.000712099950760603,2.3814314999617636,2.380719400011003,0.3314120997674763,0.8316476996988058,0.5002355999313295,
203,0.50258,1.2,2,0.26804,0.39368,0.57796,203,2.29509,0.112,0.05863,0.55283,5,2D1U,2.0,True,0.249,15,False,right,0.0,0.0007340000011026859,2.297039999626577,2.296305999625474,0.2556761996820569,0.755710699595511,0.5000344999134541,
204,0.50258,0.1,2,0.3518,0.39368,0.51933,204,2.32022,0.112,0.05863,0.55283,5,2D1U,2.0,True,0.458,15,False,right,0.0,0.0007472997531294823,2.3140463000163436,2.313299000263214,0.33928069984540343,0.8389888997189701,0.4997081998735666,
205,0.50258,1.2,2,0.24291,0.33505,0.86276,205,2.33698,-0.212,-0.10889,0.39368,5,1D1U,2.0,False,0.413,10,False,right,0.0,0.0002756998874247074,2.356455700006336,2.3561800001189113,0.23181130038574338,0.7312674000859261,0.4994560997001827,
206,0.50258,0.1,2,0.32667,0.36018,0.62822,206,2.14432,-0.352,-0.1759,0.32667,5,1U1D,1.0,True,0.367,15,True,left,0.0,0.00035849958658218384,2.147127399686724,2.1467689001001418,0.313983999658376,0.8137865997850895,0.4998026001267135,
207,0.50258,1.2,2,0.3518,0.23454,0.79575,207,2.25323,-0.266,-0.13402,0.36856,5,1D1U,1.0,True,0.596,11,True,left,0.0,0.00027369987219572067,2.264897999819368,2.2646242999471724,0.34001879999414086,0.8401022995822132,0.5000834995880723,
208,0.50258,0.1,2,0.41044,0.3518,0.69523,208,2.20296,-0.522,-0.25966,0.24291,5,2U1D,1.0,True,0.446,7,False,left,0.0,0.00025659985840320587,2.215105500072241,2.2148489002138376,0.3988318000920117,0.8987393002025783,0.4999075001105666,
209,0.50258,1.2,2,0.3518,0.38531,0.82087,209,2.58827,0.058,0.02513,0.52771,5,2D1U,1.0,False,0.455,16,True,left,0.0,0.0006034998223185539,2.599133299663663,2.5985297998413444,0.3403441999107599,0.8407630999572575,0.5004189000464976,
210,0.50258,0.1,1,0.41044,0.40206,0.8125,210,2.47938,-0.298,-0.15077,0.3518,5,1U1D,1.0,False,1.009,16,True,left,0.0,0.0002926001325249672,2.473128099925816,2.472835499793291,1.5563546000048518,2.056206800043583,0.4998522000387311,
211,0.50258,1.2,1,0.40206,0.40206,0.66173,211,2.21134,-0.522,-0.25966,0.24291,5,2U1D,2.0,True,0.659,7,False,right,0.0,0.000520200002938509,2.2328265998512506,2.232306399848312,1.2911526001989841,1.7916910001076758,0.5005383999086916,
212,0.50258,0.1,1,0.30155,0.26804,0.85438,212,2.25322,-0.352,-0.1759,0.32667,5,1U1D,1.0,False,0.432,17,True,left,0.0,0.0007381998002529144,2.2734014000743628,2.27266320027411,1.4651029999367893,1.965464800130576,0.5003618001937866,
213,0.50258,1.2,1,0.29317,0.3518,0.87951,213,2.57989,0.112,0.05863,0.55283,5,2D1U,1.0,True,0.672,17,True,left,0.0,0.0007198997773230076,2.5891573997214437,2.5884374999441206,1.705976499710232,2.2059410996735096,0.4999645999632776,
214,0.50258,0.1,1,0.38531,0.25966,0.48582,214,2.02705,-0.212,-0.10889,0.39368,5,1D1U,2.0,True,0.555,12,True,right,0.0,0.0005708001554012299,2.0312664001248777,2.0306955999694765,1.2480437001213431,1.7479571998119354,0.4999134996905923,
215,0.50258,1.2,1,0.30992,0.29317,0.72874,215,2.25322,-0.158,-0.07539,0.41881,5,1D1U,1.0,False,0.544,12,False,left,0.0,0.0006015002727508545,2.2649524002335966,2.2643508999608457,1.440348899923265,1.9401620998978615,0.4998131999745965,
216,0.50258,0.1,1,0.36018,0.21778,0.82925,216,2.46262,0.112,0.05863,0.55283,5,2D1U,1.0,True,1.151,17,True,left,0.0,0.0007189000025391579,2.4585572998039424,2.4578383998014033,1.7245502998121083,2.2247329000383615,0.5001826002262533,
217,0.50258,1.2,1,0.38531,0.45232,0.41881,217,2.05219,-0.406,-0.20103,0.29317,5,1U1D,2.0,True,1.954,17,False,right,0.0,0.0007147998549044132,2.056819699704647,2.0561048998497427,1.0823046998120844,1.5830373000353575,0.500732600223273,
218,0.50258,0.1,1,0.38531,0.34343,0.6701,218,2.22809,-0.352,-0.1759,0.32667,5,1U1D,1.0,False,0.453,18,True,left,0.0,0.0007098997011780739,2.240993699990213,2.240283800289035,1.366226699668914,1.866007599979639,0.499780900310725,
219,0.50258,1.2,1,0.42719,0.41044,0.56121,219,2.2951,-0.212,-0.10889,0.39368,5,1D1U,2.0,True,0.417,13,True,right,0.0,0.0007882001809775829,2.316328200045973,2.3155399998649955,1.3664711001329124,1.8660476002842188,0.4995765001513064,
220,0.50258,0.1,1,0.39368,0.33505,0.45232,220,1.95167,-0.468,-0.23454,0.26804,5,2U1D,2.0,True,0.623,7,False,right,0.0,0.0002522999420762062,1.9648772003129125,1.9646249003708363,1.0992739000357687,1.5987921003252268,0.49951820028945804,
221,0.50258,1.2,1,0.27642,0.30992,0.51933,221,1.90142,-0.406,-0.20103,0.29317,5,1U1D,2.0,True,0.744,19,True,right,0.0,0.0006833998486399651,1.897218800149858,1.896535400301218,1.0725786001421511,1.5724031999707222,0.4998245998285711,
222,0.50258,0.1,1,0.42719,0.41881,0.50258,222,2.17783,-0.352,-0.1759,0.32667,5,1U1D,2.0,True,0.318,20,True,right,0.0,0.00028740009292960167,2.1728806998580694,2.17259329976514,1.2400271999649704,1.7398615996353328,0.4998343996703625,
223,0.50258,1.2,1,0.37693,0.43557,0.76224,223,2.60503,0.058,0.02513,0.52771,5,2D1U,2.0,False,2.226,18,True,right,0.0,0.0007770000956952572,2.5984936002641916,2.5977166001684964,1.648831400088966,2.148970799986273,0.5001393998973072,
224,0.50258,0.1,1,0.40206,0.43557,0.79575,224,2.55477,-0.158,-0.07539,0.41881,5,1D1U,1.0,False,2.382,14,True,left,0.0,0.0006789998151361942,2.5651139998808503,2.564435000065714,1.5980026996694505,2.0981878000311553,0.5001851003617048,
225,0.50258,1.2,1,0.27642,0.3518,0.40206,225,1.8009,-0.468,-0.23454,0.26804,5,2U1D,2.0,True,0.36,7,False,right,0.0,0.00029349979013204575,1.8066476001404226,1.8063541003502905,0.9318973999470472,1.4318376001901925,0.4999402002431452,
226,0.50258,0.1,1,0.45232,0.30155,0.89626,226,2.44588,-0.414,-0.20941,0.29317,5,2U1D,2.0,True,0.676,7,False,right,0.0,0.0005994001403450966,2.4394696997478604,2.4388702996075153,1.6226586000993848,2.1232960000634193,0.5006373999640346,
227,0.50258,1.2,1,0.38531,0.39368,0.76224,227,2.39561,-0.298,-0.15077,0.3518,5,1U1D,1.0,False,0.19,20,False,left,0.0,0.0007611000910401344,2.3982633999548852,2.397502299863845,1.4812884996645153,1.9815861997194588,0.5002977000549436,
228,0.50258,0.1,1,0.3518,0.32667,0.82087,228,2.55475,0.112,0.05863,0.55283,5,2D1U,1.0,True,0.465,19,True,left,0.0,0.0006391000933945179,2.5733041004277766,2.572665000334382,1.7068007001653314,2.206545200198889,0.4997445000335574,
229,0.50258,1.2,1,0.32667,0.34343,0.846,229,2.41236,-0.212,-0.10889,0.39368,5,1D1U,2.0,True,0.205,15,True,right,0.0,0.0002838997170329094,2.430244099814445,2.429960200097412,1.5470565999858081,2.0466307997703552,0.4995741997845471,
230,0.50258,0.1,1,0.37693,0.23454,0.47745,230,1.88467,-0.414,-0.20941,0.29317,5,2U1D,2.0,True,1.084,7,False,right,0.0,0.0002659996971487999,1.8730139001272619,1.872747900430113,1.1319912001490593,1.631156399846077,0.49916519969701767,
231,0.50258,1.2,1,0.41881,0.36018,0.76224,231,2.36211,-0.36,-0.1759,0.3183,5,2U1D,1.0,False,0.737,7,False,left,0.0,0.0006417999975383282,2.365146600175649,2.3645048001781106,1.4817449999973178,1.9818938001990318,0.500148800201714,
232,0.50258,0.1,1,0.41881,0.32667,0.86276,232,2.52963,-0.158,-0.07539,0.41881,5,1D1U,1.0,False,1.969,16,True,left,0.0,0.0002847001887857914,2.5313553996384144,2.5310706994496286,1.6813786998391151,2.1812814995646477,0.49990279972553253,
233,0.50258,1.2,1,0.30992,0.30155,0.64497,233,2.31185,0.112,0.05863,0.55283,5,2D1U,1.0,True,0.931,19,True,left,0.0,0.0007100999355316162,2.3234407999552786,2.322730700019747,1.4900691001676023,1.9903019000776112,0.5002327999100089,
234,0.50258,0.1,1,0.22616,0.28479,0.72874,234,2.26998,0.058,0.02513,0.52771,5,2D1U,1.0,True,1.804,20,True,left,0.0,0.00027830014005303383,2.274582900106907,2.274304599966854,1.4658022001385689,1.965267799794674,0.49946559965610504,
235,0.50258,1.2,1,0.32667,0.25129,0.76224,235,2.16945,-0.352,-0.1759,0.32667,5,1U1D,2.0,True,1.279,21,True,right,0.0,0.0008454001508653164,2.1655099000781775,2.164664499927312,1.3985798000358045,1.8986786003224552,0.5000988002866507,
236,0.50258,0.1,1,0.21778,0.36856,0.80412,236,2.42075,0.058,0.02513,0.52771,5,2D1U,2.0,False,0.759,20,True,right,0.0,0.00027110008522868156,2.408021700102836,2.407750600017607,1.5332328998483717,2.0330996001139283,0.4998667002655566,
237,0.50258,1.2,1,0.36018,0.36856,0.88788,237,2.67203,0.112,0.05863,0.55283,5,2D1U,1.0,True,0.922,21,True,left,0.0,0.0007443004287779331,2.6805573999881744,2.6798130995593965,1.7808196996338665,2.280492600053549,0.49967290041968226,
238,0.50258,0.1,1,0.24291,0.3518,0.80412,238,2.25321,-0.298,-0.15077,0.3518,5,1U1D,2.0,True,1.045,22,True,right,0.0,0.0002731001004576683,2.2562396000139415,2.255966499913484,1.3816881999373436,1.8810743996873498,0.4993861997500062,
239,0.50258,1.2,1,0.3518,0.30992,0.48582,239,2.0438,-0.212,-0.10889,0.39368,5,1D1U,2.0,True,0.677,17,True,right,0.0,0.0007375003769993782,2.040453199762851,2.0397156993858516,1.2149338000454009,1.7152929999865592,0.5003591999411583,
240,0.50258,0.1,2,0.25129,0.3183,0.61984,240,1.98518,-0.414,-0.20941,0.29317,5,2U1D,1.0,True,0.592,8,True,left,0.0,0.0007422999478876591,1.9897763999179006,1.989034099970013,0.23998029995709658,0.7396518997848034,0.4996715998277068,
241,0.50258,1.2,2,0.36856,0.28479,0.57796,241,2.1527,-0.158,-0.07539,0.41881,5,1D1U,2.0,False,0.52,18,True,right,0.0,0.0002872999757528305,2.1570267998613417,2.156739499885589,0.3567206999287009,0.8564594001509249,0.499738700222224,
242,0.50258,0.1,2,0.34343,0.26804,0.82087,242,2.3286,-0.212,-0.10889,0.39368,5,1D1U,2.0,False,0.849,19,True,right,0.0,0.000318900216370821,2.3315275995992124,2.3312086993828416,0.33112739957869053,0.8316049999557436,0.500477600377053,
243,0.50258,1.2,2,0.41044,0.40206,0.72036,243,2.41237,-0.244,-0.12564,0.37693,5,1U1D,1.0,True,0.43,22,False,left,0.0,0.00028820009902119637,2.431478099897504,2.4311898997984827,0.39848140021786094,0.8980974000878632,0.49961599987000227,
244,0.50258,0.1,2,0.38531,0.42719,0.85438,244,2.72229,0.112,0.05863,0.55283,5,2D1U,1.0,False,1.638,21,True,left,0.0,0.0003055003471672535,2.732086199801415,2.731780699454248,0.37421669997274876,0.8742736000567675,0.5000569000840187,
245,0.50258,1.2,2,0.25966,0.25966,0.44394,245,1.75901,-0.414,-0.20941,0.29317,5,2U1D,1.0,True,0.796,8,True,left,0.0,0.0002715000882744789,1.748488700017333,1.7482171999290586,0.24892030004411936,0.74856310011819,0.4996428000740707,
246,0.50258,0.1,2,0.44394,0.38531,0.53608,246,2.18621,-0.36,-0.1759,0.3183,5,2U1D,2.0,False,0.94,9,True,right,0.0,0.0007668999023735523,2.1974582001566887,2.196691300254315,0.43058629985898733,0.9309191000647843,0.500332800205797,
247,0.50258,1.2,2,0.42719,0.36018,0.4942,247,2.37049,0.166,0.08376,0.58634,5,2D1U,2.0,True,0.309,21,False,right,0.0,0.0003100000321865082,2.3824918000027537,2.3821817999705672,0.415338400285691,0.9152889000251889,0.4999504997394979,
248,0.50258,0.1,2,0.30992,0.43557,0.51933,248,2.16946,-0.19,-0.09214,0.40206,5,1U1D,1.0,True,0.401,22,False,left,0.0,0.0004389001987874508,2.1729596997611225,2.172520799562335,0.29764539981260896,0.7983351997099817,0.5006897998973727,
249,0.50258,1.2,2,0.32667,0.21778,0.40206,249,1.88466,-0.136,-0.06701,0.43557,5,1U1D,1.0,True,0.898,22,False,left,0.0,0.0007298998534679413,1.8909377004019916,1.8902078005485237,0.31619100039824843,0.8162189000286162,0.5000278996303678,
250,0.50258,0.1,2,0.33505,0.3518,0.62822,250,2.18621,-0.266,-0.13402,0.36856,5,1D1U,2.0,False,0.379,19,False,right,0.0,0.0007823999039828777,2.1890778997913003,2.1882954998873174,0.32194390008226037,0.8220771001651883,0.5001332000829279,
251,0.50258,1.2,2,0.21778,0.44394,0.46069,251,2.08568,-0.082,-0.04188,0.46069,5,1U1D,2.0,False,0.731,22,False,right,0.0,0.0006735003553330898,2.081901099998504,2.081227599643171,0.2069238000549376,0.7067317999899387,0.49980799993500113,
252,0.50258,0.1,2,0.3183,0.25129,0.80412,252,2.46263,0.166,0.08376,0.58634,5,2D1U,2.0,True,0.35,21,False,right,0.0,0.0007202001288533211,2.4659603000618517,2.4652400999329984,0.30777590023353696,0.8072679000906646,0.49949199985712767,
253,0.50258,1.2,2,0.29317,0.26804,0.44394,253,1.8009,-0.414,-0.20941,0.29317,5,2U1D,1.0,True,0.489,10,True,left,0.0,0.0006743003614246845,1.7986376001499593,1.7979632997885346,0.2819996001198888,0.7822024002671242,0.5002028001472354,
254,0.50258,0.1,2,0.40206,0.41044,0.79575,254,2.45426,-0.32,-0.15915,0.34343,5,1D1U,1.0,True,0.904,19,False,left,0.0,0.0007470003329217434,2.4654300999827683,2.4646830996498466,0.390871400013566,0.89079499989748,0.499923599883914,
255,0.50258,1.2,2,0.34343,0.25966,0.54446,255,2.0857,-0.136,-0.06701,0.43557,5,1U1D,2.0,False,0.457,23,True,right,0.0,0.0004766997881233692,2.0896994001232088,2.0892227003350854,0.3309013000689447,0.8308988003991544,0.49999750033020973,
256,0.50258,0.1,2,0.36018,0.24291,0.71198,256,2.37048,0.112,0.05863,0.55283,5,2D1U,2.0,True,0.364,22,True,right,0.0,0.00027249986305832863,2.374662199988961,2.374389700125903,0.35008480027318,0.8492531999945641,0.49916839972138405,
257,0.50258,1.2,2,0.30155,0.41881,0.51095,257,2.02706,-0.414,-0.20941,0.29317,5,2U1D,1.0,True,0.514,10,True,left,0.0,0.0002709999680519104,2.0309717999771237,2.030700800009072,0.2892188001424074,0.7896878002211452,0.5004690000787377,
258,0.50258,0.1,2,0.44394,0.3183,0.80412,258,2.38724,-0.36,-0.1759,0.3183,5,2U1D,2.0,False,0.472,11,True,right,0.0,0.0007324996404349804,2.398181099910289,2.397448600269854,0.43110920023173094,0.9316024999134243,0.5004932996816933,
259,0.50258,1.2,2,0.3183,0.3183,0.66173,259,2.20297,-0.19,-0.09214,0.40206,5,1U1D,2.0,False,0.752,23,False,right,0.0,0.0002872999757528305,2.2148426002822816,2.214555300306529,0.3065118999220431,0.8066489999182522,0.5001370999962091,
260,0.50258,0.1,2,0.30992,0.29317,0.55283,260,2.02706,-0.266,-0.13402,0.36856,5,1D1U,2.0,False,0.714,20,True,right,0.0,0.00027240021154284477,2.038763700053096,2.038491299841553,0.2975476998835802,0.7976808999665082,0.5001332000829279,
261,0.50258,1.2,2,0.29317,0.20941,0.51095,261,1.80928,-0.414,-0.20941,0.29317,5,2U1D,2.0,False,0.321,12,True,right,0.0,0.0002732998691499233,1.8239587997086346,1.8236854998394847,0.28214559983462095,0.7822452001273632,0.5000996002927423,
262,0.50258,0.1,2,0.30155,0.25129,0.54446,262,1.97681,-0.244,-0.12564,0.37693,5,1U1D,2.0,False,0.298,23,False,right,0.0,0.0007707998156547546,1.9820743002928793,1.9813035004772246,0.29048500023782253,0.7899057003669441,0.49942070012912154,
263,0.50258,1.2,2,0.34343,0.25966,0.85438,263,2.51288,0.112,0.05863,0.55283,5,2D1U,2.0,True,0.295,22,True,right,0.0,0.0007202997803688049,2.523866199888289,2.52314590010792,0.3321398999541998,0.8330564997158945,0.5009165997616947,
264,0.50258,0.1,2,0.20941,0.36856,0.40206,264,1.82604,-0.32,-0.15915,0.34343,5,1D1U,2.0,False,0.192,21,True,right,0.0,0.00026530027389526367,1.8413432999514043,1.841077999677509,0.1989265000447631,0.6991114001721144,0.5001849001273513,
265,0.50258,1.2,2,0.20941,0.23454,0.48582,265,1.74227,-0.374,-0.18428,0.30992,5,1D1U,1.0,True,0.577,21,False,left,0.0,0.00026830006390810013,1.7565548000857234,1.7562865000218153,0.19749160017818213,0.6982087003998458,0.5007171002216637,
266,0.50258,0.1,2,0.44394,0.24291,0.41881,266,1.87628,-0.468,-0.23454,0.26804,5,2U1D,2.0,False,2.15,12,False,right,0.0,0.0005140001885592937,1.8738381001167,1.8733240999281406,0.4318192000500858,0.9323360999114811,0.5005168998613954,
267,0.50258,1.2,2,0.39368,0.23454,0.58634,267,1.96005,-0.522,-0.25966,0.24291,5,2U1D,1.0,True,0.349,12,False,left,0.0,0.0007751001976430416,1.956692900042981,1.9559177998453379,0.38144190004095435,0.8819548999890685,0.5005129999481142,
268,0.50258,0.1,2,0.24291,0.41044,0.61984,268,2.12757,-0.298,-0.15077,0.3518,5,1U1D,1.0,True,0.963,23,False,left,0.0,0.0008185999467968941,2.132745500188321,2.131926900241524,0.2321914997883141,0.7316503999754786,0.49945890018716455,
269,0.50258,1.2,2,0.20103,0.20103,0.46069,269,1.89304,0.058,0.02513,0.52771,5,2D1U,2.0,True,0.471,22,False,right,0.0,0.0007453002035617828,1.9060327000916004,1.9052873998880386,0.18937800033017993,0.6893119001761079,0.49993389984592795,
270,0.50258,0.1,1,0.37693,0.38531,0.55283,270,2.16108,-0.32,-0.15915,0.34343,5,1D1U,2.0,True,0.409,22,True,right,0.0,0.0002808002755045891,2.1731128999963403,2.1728320997208357,1.2579640001058578,1.75715500023216,0.49919100012630224,
271,0.50258,1.2,1,0.3518,0.38531,0.62822,271,2.39562,0.058,0.02513,0.52771,5,2D1U,1.0,True,0.449,22,False,left,0.0,0.00039499998092651367,2.4149431996047497,2.414548199623823,1.490527699701488,1.9906965997070074,0.5001689000055194,
272,0.50258,0.1,1,0.20941,0.3183,0.46069,272,1.99356,0.004,0.0,0.50258,5,2D1U,1.0,False,2.802,22,False,left,0.0,0.0007421998307108879,2.007723200134933,2.006981000304222,1.1573666003532708,1.6574166999198496,0.5000500995665789,
273,0.50258,1.2,1,0.39368,0.27642,0.66173,273,2.07732,-0.522,-0.25966,0.24291,5,2U1D,2.0,True,0.46,12,False,right,0.0,0.0010726000182330608,2.064875400159508,2.063802800141275,1.2810428002849221,1.7814289000816643,0.5003860997967422,
274,0.50258,0.1,1,0.29317,0.22616,0.82925,274,2.21972,-0.266,-0.13402,0.36856,5,1D1U,2.0,True,2.292,22,False,right,0.0,0.0007520997896790504,2.216022999957204,2.215270900167525,1.4739616997539997,1.9746404998004436,0.5006788000464439,
275,0.50258,1.2,1,0.41044,0.39368,0.43557,275,2.1192,-0.244,-0.12564,0.37693,5,1U1D,2.0,True,0.79,24,True,right,0.0,0.00027740001678466797,2.1236048000864685,2.123327400069684,1.2072230000048876,1.7071071001701057,0.4998841001652181,
276,0.50258,0.1,1,0.36856,0.22616,0.70361,276,2.32862,0.058,0.02513,0.52771,5,2D1U,2.0,False,0.216,23,True,right,0.0,0.0007585999555885792,2.3381494996137917,2.337390899658203,1.5882761999964714,2.0880974996834993,0.49982129968702793,
277,0.50258,1.2,1,0.40206,0.42719,0.73711,277,2.62177,0.112,0.05863,0.55283,5,2D1U,1.0,True,1.109,23,False,left,0.0,0.000394399743527174,2.6230573998764157,2.6226630001328886,1.6731505999341607,2.173278500325978,0.5001279003918171,
278,0.50258,0.1,1,0.20103,0.30992,0.71198,278,2.11919,-0.212,-0.10889,0.39368,5,1D1U,2.0,True,0.11,22,False,right,0.0,0.00029059965163469315,2.123368499800563,2.123077900148928,1.2902033999562263,1.7905508996918797,0.5003474997356534,
279,0.50258,1.2,1,0.27642,0.3518,0.77062,279,2.30348,-0.19,-0.09214,0.40206,5,1U1D,1.0,False,0.431,24,False,left,0.0,0.000694700051099062,2.3155808998271823,2.3148861997760832,1.4319819998927414,1.9320904999040067,0.5001085000112653,
280,0.50258,0.1,1,0.39368,0.25129,0.50258,280,1.91817,-0.468,-0.23454,0.26804,5,2U1D,2.0,True,0.505,13,True,right,0.0,0.0007489998824894428,1.9147874996997416,1.9140384998172522,1.147760999854654,1.6477891998365521,0.5000281999818981,
281,0.50258,1.2,1,0.36018,0.27642,0.86276,281,2.55477,0.112,0.05863,0.55283,5,2D1U,1.0,True,2.125,23,False,left,0.0,0.0002850000746548176,2.5558486999943852,2.5555636999197304,1.755955200176686,2.255907699931413,0.4999524997547269,
282,0.50258,0.1,1,0.42719,0.3183,0.86276,282,2.52964,-0.158,-0.07539,0.41881,5,1D1U,1.0,False,0.684,22,False,left,0.0,0.00031720008701086044,2.5401181001216173,2.5398009000346065,1.6903467997908592,2.1901153000071645,0.49976850021630526,
283,0.50258,1.2,1,0.30155,0.25966,0.73711,283,2.17783,-0.244,-0.12564,0.37693,5,1U1D,1.0,False,1.814,25,True,left,0.0,0.0002827998250722885,2.1739459997043014,2.173663199879229,1.3991589997895062,1.8983880998566747,0.4992291000671685,
284,0.50258,0.1,1,0.39368,0.21778,0.62822,284,2.0103,-0.468,-0.23454,0.26804,5,2U1D,2.0,True,2.277,13,True,right,0.0,0.00048190029338002205,2.0230755996890366,2.0225936993956566,1.273369399830699,1.772985799703747,0.49961639987304807,
285,0.50258,1.2,1,0.36856,0.3518,0.41044,285,1.92655,-0.414,-0.20941,0.29317,5,2U1D,2.0,True,1.327,13,False,right,0.0,0.00029380014166235924,1.9240434002131224,1.92374960007146,1.0567622003145516,1.556874900124967,0.5001126998104155,
286,0.50258,0.1,1,0.44394,0.36018,0.88788,286,2.54638,-0.298,-0.15077,0.3518,5,1U1D,2.0,True,0.792,25,False,right,0.0,0.0004231003113090992,2.548139499966055,2.547716399654746,1.6644259002059698,2.1643934999592602,0.4999675997532904,
287,0.50258,1.2,1,0.27642,0.32667,0.51933,287,2.01868,-0.212,-0.10889,0.39368,5,1D1U,1.0,False,0.716,23,True,left,0.0,0.0008114003576338291,2.024376700166613,2.023565299808979,1.174028200097382,1.6740091000683606,0.4999808999709785,
288,0.50258,0.1,1,0.30992,0.20941,0.846,288,2.16108,-0.414,-0.20941,0.29317,5,2U1D,2.0,True,0.606,13,False,right,0.0,0.0005689002573490143,2.1652568001300097,2.1646878998726606,1.432384999934584,1.9324495000764728,0.5000645001418889,
289,0.50258,1.2,1,0.23454,0.3518,0.46907,289,2.0857,0.058,0.02513,0.52771,5,2D1U,1.0,True,0.113,24,True,left,0.0,0.0006160996854305267,2.0833705998957157,2.082754500210285,1.2155385999940336,1.7159150000661612,0.5003764000721276,
290,0.50258,0.1,1,0.22616,0.3518,0.50258,290,2.11083,0.058,0.02513,0.52771,5,2D1U,1.0,True,0.17,24,True,left,0.0,0.00027560023590922356,2.1143864998593926,2.1141108996234834,1.2394217001274228,1.7393034999258816,0.4998817997984588,
291,0.50258,1.2,1,0.40206,0.36018,0.72874,291,2.31186,-0.36,-0.1759,0.3183,5,2U1D,2.0,True,0.202,13,False,right,0.0,0.0006316001527011395,2.3226707000285387,2.3220390998758376,1.4311672998592257,1.9312693001702428,0.500102000311017,
292,0.50258,0.1,1,0.29317,0.25966,0.86276,292,2.28673,-0.266,-0.13402,0.36856,5,1D1U,2.0,True,2.073,23,False,right,0.0,0.0007193000055849552,2.282775899861008,2.282056599855423,1.5076050995849073,2.0076444996520877,0.5000394000671804,
293,0.50258,1.2,1,0.30155,0.29317,0.86276,293,2.35374,-0.212,-0.10889,0.39368,5,1D1U,2.0,True,0.235,24,True,right,0.0,0.00043899985030293465,2.3570828000083566,2.3566438001580536,1.5403192997910082,2.040080899838358,0.49976160004734993,
294,0.50258,0.1,1,0.39368,0.37693,0.846,294,2.62177,0.004,0.0,0.50258,5,2D1U,2.0,False,1.817,24,False,right,0.0,0.0005005002021789551,2.6320604998618364,2.6315599996596575,1.7238027998246253,2.2239753999747336,0.5001726001501083,
295,0.50258,1.2,1,0.28479,0.39368,0.53608,295,2.09406,-0.244,-0.12564,0.37693,5,1U1D,2.0,True,0.315,26,True,right,0.0,0.00028590019792318344,2.1160640004090965,2.1157781002111733,1.1823284002020955,1.6821326999925077,0.4998042997904122,
296,0.50258,0.1,1,0.36018,0.32667,0.72036,296,2.22809,-0.36,-0.1759,0.3183,5,2U1D,2.0,True,0.519,13,False,right,0.0,0.0002949000336229801,2.2319167000241578,2.231621799990535,1.3815645999275148,1.8817870998755097,0.500222499947995,
297,0.50258,1.2,1,0.30992,0.30155,0.6701,297,2.20296,-0.158,-0.07539,0.41881,5,1D1U,2.0,True,0.321,24,False,right,0.0,0.0006067999638617039,2.2075255000963807,2.206918700132519,1.3829326000995934,1.8826298001222312,0.49969720002263784,
298,0.50258,0.1,1,0.41881,0.21778,0.87951,298,2.46262,-0.104,-0.05026,0.44394,5,1D1U,2.0,True,0.452,24,False,right,0.0,0.0007377997972071171,2.456061199773103,2.455323399975896,1.7231999998912215,2.2235928997397423,0.5003928998485208,
299,0.50258,1.2,1,0.30155,0.36018,0.87113,299,2.51289,-0.05,-0.02513,0.47745,5,1D1U,2.0,True,0.336,24,False,right,0.0,0.00029930006712675095,2.5156739000231028,2.515374599955976,1.6323689999990165,2.131941800005734,0.49957280000671744,
300,0.50258,0.1,2,0.36856,0.21778,0.72036,300,2.21134,-0.19,-0.09214,0.40206,5,1U1D,2.0,False,0.488,26,False,right,0.0,0.0002477997913956642,2.213453899603337,2.2132060998119414,0.35517509980127215,0.8550587999634445,0.4998837001621723,
301,0.50258,1.2,2,0.41881,0.22616,0.88788,301,2.53801,0.004,0.0,0.50258,5,1D1U,2.0,False,1.344,24,False,right,0.0,0.0007939999923110008,2.5499079995788634,2.5491139995865524,0.407887099776417,0.9075735998339951,0.4996865000575781,
302,0.50258,0.1,2,0.24291,0.38531,0.74549,302,2.404,0.058,0.02513,0.52771,5,1D1U,2.0,True,0.17,25,True,right,0.0,0.0007363003678619862,2.398203399963677,2.397467099595815,0.23044839967042208,0.7308355998247862,0.5003872001543641,
303,0.50258,1.2,2,0.36856,0.3518,0.56959,303,2.13596,-0.306,-0.15077,0.34343,5,2U1D,1.0,True,0.443,13,False,left,0.0,0.0003188997507095337,2.1479197000153363,2.1476008002646267,0.35585020016878843,0.8558775000274181,0.5000272998586297,
304,0.50258,0.1,2,0.3518,0.28479,0.59472,304,2.07732,-0.306,-0.15077,0.34343,5,2U1D,2.0,False,0.641,13,False,right,0.0,0.0007569002918899059,2.0649394998326898,2.0641825995408,0.33987569995224476,0.8407525001093745,0.5008768001571298,
305,0.50258,1.2,2,0.40206,0.39368,0.76224,305,2.56314,0.004,0.0,0.50258,5,1D1U,2.0,False,0.609,26,True,right,0.0,0.0007810997776687145,2.5632809000089765,2.5624998002313077,0.39641370018944144,0.8966055000200868,0.5001917998306453,
306,0.50258,0.1,2,0.36856,0.36018,0.57796,306,2.33699,0.058,0.02513,0.52771,5,1D1U,2.0,True,0.539,27,True,right,0.0,0.00030610011890530586,2.3405165998265147,2.3402104997076094,0.35718159982934594,0.8565370999276638,0.49935550009831786,
307,0.50258,1.2,2,0.30992,0.33505,0.46069,307,1.92654,-0.36,-0.1759,0.3183,5,2U1D,1.0,True,0.524,14,True,left,0.0,0.0002977997064590454,1.9399270000867546,1.9396292003802955,0.2990632001310587,0.7982168002054095,0.49915360007435083,
308,0.50258,0.1,2,0.42719,0.36856,0.41044,308,2.02707,-0.36,-0.1759,0.3183,5,2U1D,1.0,True,0.267,14,True,left,0.0,0.0005419999361038208,2.0316194999031723,2.0310774999670684,0.41501739993691444,0.9154838998802006,0.5004664999432862,
