,standardDur,audNoise,order,preDur,postDur,isiDur,trial_num,totalDur,delta_dur_percents,deltaDurS,testDurS,intensities,current_stair,responses,is_correct,response_rts,stair_num_reversal,stair_is_reversal,response_keys,conflictDur,recordedOnsetAudioTest,recordedOffsetAudioTest,recordedDurAudioTest,recordedOnsetVisualStandard,recordedOffsetVisualStandard,recordedDurVisualStandard,modalityPostCueTest
0,0.50108,1.2,2,0.30065,0.36746,0.84348,0,2.06278,-0.9,-0.45097,0.05011,5,lapse_rate,1,TRUE,2.084,0,FALSE,left,0,0.0002823,2.0580566,2.0577743,0.2913948,0.7908517,0.4994569,
1,0.50108,1.2,2,0.35075,0.28394,0.76832,1,2.00431,-0.8,-0.40086,0.10022,5,1U1D,2,FALSE,1.901,0,FALSE,right,0,0.0006951,1.9990375,1.9983424,0.3406785,0.8407362,0.5000577,
2,0.50108,0.1,2,0.21713,0.28394,0.75997,2,2.66406,0.8,0.40086,0.90194,5,1D1U,2,TRUE,0.57,0,FALSE,right,0,0.0002872,2.6647532,2.664466,0.2067669,0.7068972,0.5001303,
3,0.50108,0.1,2,0.36746,0.20043,0.89359,3,2.91461,0.9,0.45097,0.95205,5,lapse_rate,2,TRUE,1.801,0,FALSE,right,0,0.0003982,2.9329787,2.9325805,0.3575218,0.8576704,0.5001486,
4,0.50108,1.2,2,0.3257,0.36746,0.55954,4,1.854,-0.8,-0.40086,0.10022,5,2U1D,1,TRUE,1.773,0,FALSE,left,0,0.0002974,1.8566077,1.8563103,0.3151819,0.8158275,0.5006456,
5,0.50108,0.1,2,0.3257,0.23384,0.74326,5,2.70582,0.8,0.40086,0.90194,5,2D1U,2,TRUE,0.338,0,FALSE,right,0,0.0002539,2.6983262,2.6980723,0.314987,0.8151673,0.5001803,
6,0.50108,1.2,2,0.28394,0.40086,0.75997,6,2.74757,0.6,0.30065,0.80172,5,1D1U,2,TRUE,0.41,0,FALSE,right,0,0.000323,2.7408835,2.7405605,0.274515,0.7743838,0.4998688,
7,0.50108,0.1,2,0.33405,0.41756,0.73491,7,2.03771,-0.9,-0.45097,0.05011,5,1U1D,1,TRUE,1.547,0,FALSE,left,0,0.0005811,2.0414221,2.040841,0.3239634,0.8241052,0.5001418,
8,0.50108,1.2,2,0.35075,0.28394,0.45097,8,2.48868,0.8,0.40086,0.90194,5,2D1U,2,TRUE,0.923,0,FALSE,right,0,0.0003108,2.4823043,2.4819935,0.340354,0.8402192,0.4998652,
9,0.50108,0.1,2,0.309,0.20043,0.50943,9,1.62016,-0.8,-0.40086,0.10022,5,2U1D,2,FALSE,0.692,0,FALSE,right,0,0.0007583,1.6402261,1.6394678,0.2982316,0.7985701,0.5003385,
10,0.50108,0.1,2,0.40086,0.37581,0.76832,10,2.09618,-0.9,-0.45097,0.05011,5,lapse_rate,1,TRUE,1.896,0,FALSE,left,0,0.0002799,2.1069783,2.1066984,0.3901737,0.8900096,0.4998359,
11,0.50108,1.2,2,0.36746,0.25054,0.55118,11,2.47198,0.6,0.30065,0.80172,5,2D1U,2,TRUE,0.373,0,FALSE,right,0,0.0007047,2.4731316,2.4724269,0.3570411,0.8565251,0.499484,
12,0.50108,0.1,2,0.25889,0.43427,0.51778,12,1.76213,-0.9,-0.45097,0.05011,5,2U1D,2,FALSE,0.448,0,FALSE,right,0,0.0007462,1.7581569,1.7574107,0.2505001,0.7501878,0.4996877,
13,0.50108,1.2,2,0.29229,0.40086,0.84348,13,2.73922,0.4,0.20043,0.70151,5,1D1U,2,TRUE,0.917,0,FALSE,right,0,0.00027,2.7506452,2.7503752,0.2831915,0.7836461,0.5004546,
14,0.50108,1.2,2,0.31735,0.33405,0.80172,14,2.90625,0.9,0.45097,0.95205,5,lapse_rate,2,TRUE,0.682,0,FALSE,right,0,0.0007543,2.8994655,2.8987112,0.3071796,0.807889,0.5007094,
15,0.50108,0.1,2,0.24219,0.43427,0.65975,15,1.94586,-0.78,-0.39251,0.10857,5,1U1D,1,TRUE,1.006,1,TRUE,left,0,0.0007145,1.9409739,1.9402594,0.2325232,0.7323393,0.4998161,
16,0.50108,1.2,2,0.21713,0.40086,0.53448,16,1.82058,-0.66,-0.33405,0.16703,5,1U1D,2,FALSE,0.988,1,FALSE,right,0,0.0007348,1.8337219,1.8329871,0.2083754,0.7079578,0.4995824,
17,0.50108,0.1,2,0.21713,0.26724,0.60964,17,2.39681,0.6,0.30065,0.80172,5,2D1U,2,TRUE,0.24,0,FALSE,right,0,0.0007322,2.416063,2.4153308,0.2073728,0.7079817,0.5006089,
18,0.50108,0.1,2,0.42592,0.41756,0.61799,18,2.01266,-0.9,-0.45097,0.05011,5,lapse_rate,2,FALSE,0.849,0,FALSE,right,0,0.0007114,2.0161395,2.0154281,0.4154144,0.915417,0.5000026,
19,0.50108,1.2,2,0.3424,0.24219,0.54283,19,2.22979,0.2,0.10022,0.60129,5,1D1U,2,TRUE,0.884,0,FALSE,right,0,0.000763,2.233451,2.232688,0.3329216,0.8326782,0.4997566,
20,0.50108,0.1,2,0.40086,0.22548,0.44262,20,1.62015,-0.9,-0.45097,0.05011,5,2U1D,1,TRUE,1.747,0,FALSE,left,0,0.0004453,1.6416227,1.6411774,0.3916897,0.8921833,0.5004936,
21,0.50108,0.1,2,0.37581,0.35911,0.85183,21,3.03988,0.9,0.45097,0.95205,5,lapse_rate,2,TRUE,0.454,0,FALSE,right,0,0.0003412,3.0499302,3.049589,0.3661009,0.8661426,0.5000417,
22,0.50108,1.2,2,0.43427,0.37581,0.76832,22,2.2131,-0.732,-0.36746,0.13362,5,1U1D,1,TRUE,1.71,2,TRUE,left,0,0.0002846,2.2150546,2.21477,0.4239143,0.9236023,0.499688,
23,0.50108,0.1,2,0.20043,0.28394,0.47602,23,1.96255,0,0,0.50108,5,1D1U,2,FALSE,2.178,0,FALSE,right,0,0.0007348,1.9578869,1.9571521,0.1914958,0.6911437,0.4996479,
24,0.50108,1.2,2,0.3257,0.40921,0.73491,24,2.67241,0.4,0.20043,0.70151,5,2D1U,2,TRUE,2.339,0,FALSE,right,0,0.0002666,2.6829345,2.6826679,0.3164801,0.8167034,0.5002233,
25,0.50108,0.1,2,0.20878,0.31735,0.62635,25,1.70367,-0.9,-0.45097,0.05011,5,2U1D,1,TRUE,1.599,0,FALSE,left,0,0.0007113,1.7087808,1.7080695,0.1995198,0.699668,0.5001482,
26,0.50108,1.2,2,0.24219,0.29229,0.89359,26,2.48869,0.12,0.05846,0.55954,5,1D1U,2,TRUE,0.938,1,TRUE,right,0,0.0006098,2.4908952,2.4902854,0.2322114,0.7323906,0.5001792,
27,0.50108,0.1,2,0.43427,0.36746,0.71821,27,2.18805,-0.66,-0.33405,0.16703,5,1U1D,2,FALSE,0.734,3,TRUE,right,0,0.0002853,2.1910075,2.1907222,0.4245946,0.9247266,0.500132,
28,0.50108,1.2,2,0.35911,0.33405,0.69316,28,2.58891,0.4,0.20043,0.70151,5,2D1U,2,TRUE,0.788,0,FALSE,right,0,0.0002756,2.5992285,2.5989529,0.3492803,0.8489977,0.4997174,
29,0.50108,0.1,2,0.36746,0.36746,0.56789,29,1.854,-0.9,-0.45097,0.05011,5,lapse_rate,1,TRUE,2.441,0,FALSE,left,0,0.0004817,1.8662683,1.8657866,0.3579179,0.8574764,0.4995585,
30,0.50108,0.1,1,0.42592,0.29229,0.81007,30,2.13793,-0.78,-0.39251,0.10857,5,2U1D,1,FALSE,2.567,1,TRUE,left,0,0.0004257,2.1380964,2.1376707,1.3299681,1.8296148,0.4996467,
31,0.50108,1.2,1,0.20878,0.41756,0.65975,31,1.86233,-0.852,-0.42592,0.07516,5,2U1D,1,FALSE,1.13,2,TRUE,left,0,0.0003089,1.865346,1.8650371,0.9323733,1.4323806,0.5000073,
32,0.50108,1.2,1,0.42592,0.42592,0.78502,32,2.18805,-0.9,-0.45097,0.05011,5,lapse_rate,2,TRUE,1.376,0,FALSE,right,0,0.0002842,2.190529,2.1902448,1.2489445,1.7486633,0.4997188,
33,0.50108,0.1,1,0.38416,0.39251,0.55118,33,2.35506,0.048,0.02505,0.52613,5,1D1U,1,TRUE,0.417,2,TRUE,left,0,0.0003051,2.3580543,2.357749199,1.4494016,1.9495328,0.5001312,
34,0.50108,1.2,1,0.37581,0.23384,0.55954,34,1.80389,-0.732,-0.36746,0.13362,5,1U1D,1,FALSE,0.757,4,TRUE,left,0,0.0003124,1.8079705,1.8076581,1.0578601,1.5577396,0.4998795,
35,0.50108,0.1,1,0.31735,0.309,0.52613,35,2.25485,0.2,0.10022,0.60129,5,2D1U,1,TRUE,0.112,0,FALSE,left,0,0.0007578,2.257427,2.2566692,1.4328333,1.9332075,0.5003742,
36,0.50108,1.2,1,0.3424,0.40086,0.64305,36,1.98761,-0.804,-0.40086,0.10022,5,1U1D,2,TRUE,0.935,4,FALSE,right,0,0.0002947,1.990221,1.9899263,1.0741654,1.5745291,0.5003637,
37,0.50108,1.2,1,0.35911,0.42592,0.6514,37,2.88956,0.9,0.45097,0.95205,5,lapse_rate,1,TRUE,0.24,0,FALSE,left,0,0.0007446,2.8916749,2.8909303,1.9503907,2.4506428,0.5002521,
38,0.50108,0.1,1,0.26724,0.25889,0.86853,38,2.38011,-0.024,-0.00835,0.48437,5,1D1U,1,FALSE,0.545,2,FALSE,left,0,0.0007408,2.3907433,2.3900025,1.6071535,2.1077295,0.500576,
39,0.50108,1.2,1,0.25889,0.20043,0.46767,39,2.02936,0.2,0.10022,0.60129,5,2D1U,1,TRUE,1.743,0,FALSE,left,0,0.0007487,2.0419806,2.0412319,1.3165249,1.8171903,0.5006654,
40,0.50108,0.1,1,0.28394,0.309,0.59294,40,1.73707,-0.9,-0.45097,0.05011,5,2U1D,2,TRUE,0.185,2,FALSE,right,0,0.0006782,1.7411315,1.7404533,0.9166286,1.4162166,0.499588,
41,0.50108,1.2,1,0.25054,0.36746,0.53448,41,2.15464,0,0,0.50108,5,2D1U,1,FALSE,1.318,0,FALSE,left,0,0.0002918,2.1661311,2.1658393,1.274364,1.7744386,0.5000746,
42,0.50108,0.1,1,0.42592,0.3257,0.81007,42,2.19639,-0.732,-0.36746,0.13362,5,1U1D,1,FALSE,2.353,5,TRUE,left,0,0.0007062,2.2080198,2.2073136,1.3582482,1.8578627,0.4996145,
43,0.50108,1.2,1,0.30065,0.30065,0.48437,43,1.63686,-0.9,-0.45097,0.05011,5,2U1D,2,TRUE,1.415,2,FALSE,right,0,0.0003074,1.6403817,1.6400743,0.8234832,1.3237323,0.5002491,
44,0.50108,1.2,1,0.40086,0.25054,0.52613,44,2.63066,0.9,0.45097,0.95205,5,lapse_rate,2,FALSE,1.83,0,FALSE,right,0,0.0007104,2.6313478,2.6306374,1.8646245,2.3648257,0.5002012,
45,0.50108,0.1,1,0.37581,0.42592,0.45932,45,2.2131,-0.096,-0.05011,0.45097,5,1D1U,2,TRUE,1.011,3,TRUE,right,0,0.0003167,2.215415,2.2150983,1.2734181,1.7735396,0.5001215,
46,0.50108,1.2,1,0.3424,0.35075,0.48437,46,1.77882,-0.804,-0.40086,0.10022,5,1U1D,2,TRUE,1.338,6,TRUE,right,0,0.0006824,1.7826235,1.7819411,0.9158514,1.41562,0.4997686,
47,0.50108,1.2,1,0.26724,0.36746,0.45932,47,1.64521,-0.9,-0.45097,0.05011,5,lapse_rate,1,FALSE,2.073,0,FALSE,left,0,0.0007174,1.6414723,1.640754899,0.7667863,1.2660813,0.499295,
48,0.50108,0.1,1,0.41756,0.20043,0.86018,48,2.06276,-0.828,-0.41756,0.08351,5,2U1D,2,TRUE,1.431,3,TRUE,right,0,0.0003387,2.0651389,2.0648002,1.3481828,1.8486948,0.500512,
49,0.50108,1.2,1,0.44262,0.36746,0.79337,49,2.66407,0.12,0.05846,0.55954,5,2D1U,1,TRUE,1.167,1,TRUE,left,0,0.0007684,2.6562184,2.65545,1.7812255,2.2814148,0.5001893,
50,0.50108,0.1,1,0.42592,0.22548,0.62635,50,2.2632,-0.024,-0.00835,0.48437,5,1D1U,1,FALSE,1.462,4,TRUE,left,0,0.0006678,2.2646361,2.2639683,1.5230499,2.0235987,0.5005488,
51,0.50108,1.2,1,0.41756,0.20043,0.71821,51,1.92079,-0.828,-0.41756,0.08351,5,2U1D,2,TRUE,0.646,3,TRUE,right,0,0.0007553,1.9247003,1.923945,1.2080686,1.7080158,0.4999472,
52,0.50108,0.1,1,0.39251,0.20043,0.50943,52,1.73707,-0.732,-0.36746,0.13362,5,1U1D,1,FALSE,0.726,7,TRUE,left,0,0.0002753,1.7575728,1.7572975,1.0240647,1.5246046,0.5005399,
53,0.50108,1.2,1,0.37581,0.35075,0.53448,53,2.32166,0.12,0.05846,0.55954,5,2D1U,2,FALSE,1.146,1,TRUE,right,0,0.0005581,2.3325717,2.3320136,1.4578062,1.9582385,0.5004323,
54,0.50108,1.2,1,0.35911,0.44262,0.78502,54,2.13794,-0.9,-0.45097,0.05011,5,lapse_rate,2,TRUE,0.708,0,FALSE,right,0,0.0006133,2.148436,2.1478227,1.1823953,1.6819876,0.4995923,
55,0.50108,0.1,1,0.28394,0.38416,0.86853,55,2.48868,-0.096,-0.05011,0.45097,5,1D1U,1,FALSE,1.576,5,TRUE,left,0,0.0003901,2.4989307,2.4985406,1.5901787,2.0906744,0.5004957,
56,0.50108,1.2,1,0.26724,0.31735,0.41756,56,1.60345,-0.804,-0.40086,0.10022,5,1U1D,1,FALSE,2.618,8,TRUE,left,0,0.0007257,1.6065042,1.6057785,0.7741601,1.2733888,0.4992287,
57,0.50108,0.1,1,0.40921,0.30065,0.88524,57,3.04823,0.9,0.45097,0.95205,5,lapse_rate,2,FALSE,0.658,0,FALSE,right,0,0.0002899,3.0569243,3.0566344,2.2317591,2.7318956,0.5001365,
58,0.50108,0.1,1,0.35911,0.42592,0.51778,58,2.42188,0.24,0.11692,0.61799,5,2D1U,1,TRUE,1.814,1,FALSE,left,0,0.000279,2.4159978,2.4157188,1.4830519,1.9828699,0.499818,
59,0.50108,1.2,1,0.43427,0.36746,0.62635,59,2.05443,-0.756,-0.37581,0.12527,5,2U1D,2,TRUE,0.516,3,FALSE,right,0,0.0007517,2.0575006,2.0567489,1.1738361,1.6740653,0.5002292,
60,0.50108,0.1,2,0.38416,0.29229,0.81843,60,2.41352,-0.168,-0.08351,0.41756,5,1D1U,2,FALSE,1.801,5,FALSE,right,0,0.0004335,2.4079909,2.4075574,0.3749233,0.8745983,0.499675,
61,0.50108,0.1,2,0.23384,0.31735,0.75162,61,2.75594,0.9,0.45097,0.95205,5,lapse_rate,2,TRUE,0.182,0,FALSE,right,0,0.0003012,2.756908,2.7566068,0.2234741,0.723458,0.4999839,
62,0.50108,1.2,2,0.24219,0.38416,0.52613,62,2.03772,-0.24,-0.11692,0.38416,5,1D1U,1,TRUE,2.94,5,FALSE,left,0,0.0002759,2.0492745,2.0489986,0.232763,0.7325595,0.4997965,
63,0.50108,0.1,2,0.33405,0.41756,0.61799,63,2.48867,0.24,0.11692,0.61799,5,2D1U,2,TRUE,0.962,1,FALSE,right,0,0.0003109,2.4893488,2.4890379,0.3228079,0.8226931,0.4998852,
64,0.50108,1.2,2,0.33405,0.20043,0.48437,64,1.57839,-0.876,-0.43427,0.05846,5,1U1D,2,FALSE,2.152,8,FALSE,right,0,0.0002915,1.5912952,1.5910037,0.3243456,0.8243162,0.4999706,
65,0.50108,0.1,2,0.21713,0.309,0.61799,65,1.77047,-0.756,-0.37581,0.12527,5,2U1D,1,TRUE,0.996,3,FALSE,left,0,0.0002969,1.7826081,1.7823112,0.20731,0.7076799,0.5003699,
66,0.50108,1.2,2,0.25889,0.20878,0.86018,66,1.87904,-0.9,-0.45097,0.05011,5,1U1D,2,FALSE,1.048,8,FALSE,right,0,0.0002874,1.8751168,1.8748294,0.2488735,0.7488191,0.4999456,
67,0.50108,0.1,2,0.36746,0.22548,0.59294,67,1.73707,-0.9,-0.45097,0.05011,5,lapse_rate,1,TRUE,0.534,0,FALSE,left,0,0.0002783,1.7327822,1.7325039,0.3570797,0.8570582,0.4999785,
68,0.50108,0.1,2,0.22548,0.309,0.6681,68,1.86233,-0.684,-0.3424,0.15867,5,2U1D,2,FALSE,0.789,3,FALSE,right,0,0.0007137,1.8659596,1.8652459,0.2153332,0.7152704,0.4999372,
69,0.50108,1.2,2,0.24219,0.41756,0.81007,69,2.55549,0.168,0.08351,0.58459,5,2D1U,2,TRUE,0.172,2,TRUE,right,0,0.00066,2.5579653,2.5573053,0.2331865,0.7333375,0.500151,
70,0.50108,0.1,2,0.30065,0.27559,0.55954,70,2.05442,-0.168,-0.08351,0.41756,5,1D1U,2,FALSE,0.504,6,TRUE,right,0,0.0002663,2.0652138,2.0649475,0.2904679,0.7902902,0.4998223,
71,0.50108,1.2,2,0.26724,0.43427,0.84348,71,2.43023,-0.24,-0.11692,0.38416,5,1D1U,2,FALSE,0.53,7,TRUE,right,0,0.0002829,2.4321212,2.4318383,0.2568036,0.7568854,0.5000818,
72,0.50108,0.1,2,0.33405,0.40921,0.41756,72,1.71201,-0.9,-0.45097,0.05011,5,1U1D,1,TRUE,22.074,8,FALSE,left,0,0.000287,1.7153753,1.7150883,0.3240885,0.8238729,0.4997844,
73,0.50108,0.1,2,0.24219,0.20878,0.73491,73,2.63901,0.9,0.45097,0.95205,5,lapse_rate,2,TRUE,0.421,0,FALSE,right,0,0.0002625,2.6489345,2.648672,0.2320161,0.7321692,0.5001531,
74,0.50108,1.2,2,0.45097,0.28394,0.50108,74,1.86234,-0.756,-0.37581,0.12527,5,2U1D,1,TRUE,2.834,4,TRUE,left,0,0.0006781,1.8567689,1.8560908,0.4404295,0.9401183,0.4996888,
75,0.50108,0.1,2,0.22548,0.39251,0.54283,75,2.24649,0.168,0.08351,0.58459,5,2D1U,2,TRUE,0.465,2,TRUE,right,0,0.0006855,2.2400875,2.239402,0.2157523,0.715654,0.4999017,
76,0.50108,1.2,2,0.41756,0.37581,0.64305,76,2.06277,-0.756,-0.37581,0.12527,5,2U1D,2,FALSE,1.562,4,TRUE,right,0,0.0002885,2.0657949,2.0655064,0.4071238,0.9074112,0.5002874,
77,0.50108,0.1,2,0.22548,0.40921,0.80172,77,2.48867,0.096,0.05011,0.55118,5,2D1U,2,TRUE,0.396,2,FALSE,right,0,0.0007497,2.4905722,2.4898225,0.2158815,0.7165949,0.5007134,
78,0.50108,1.2,2,0.30065,0.22548,0.45932,78,1.82893,-0.312,-0.15867,0.3424,5,1D1U,2,FALSE,0.753,7,FALSE,right,0,0.0002872,1.8320686,1.831781399,0.2905447,0.7897955,0.4992508,
79,0.50108,1.2,2,0.40921,0.20878,0.71821,79,1.88739,-0.9,-0.45097,0.05011,5,lapse_rate,1,TRUE,0.97,0,FALSE,left,0,0.000272,1.8902905,1.8900185,0.3979929,0.8981913,0.5001984,
80,0.50108,0.1,2,0.3257,0.31735,0.78502,80,2.01266,-0.828,-0.41756,0.08351,5,1U1D,1,TRUE,1.213,9,TRUE,left,0,0.0004077,2.024776,2.0243683,0.3162464,0.816484,0.5002376,
81,0.50108,1.2,2,0.41756,0.35911,0.79337,81,2.6223,0.096,0.05011,0.55118,5,2D1U,2,TRUE,0.374,2,FALSE,right,0,0.0002996,2.6327609,2.6324613,0.4080778,0.9076295,0.4995517,
82,0.50108,0.1,2,0.33405,0.40086,0.85183,82,2.39682,-0.384,-0.19208,0.309,5,1D1U,2,FALSE,0.547,7,FALSE,right,0,0.000775,2.3995391,2.3987641,0.3239948,0.824371,0.5003762,
83,0.50108,1.2,2,0.44262,0.25889,0.64305,83,1.92915,-0.828,-0.41756,0.08351,5,2U1D,1,TRUE,1.888,4,FALSE,left,0,0.0006897,1.9395691,1.9388794,0.4309999,0.9314216,0.5004217,
84,0.50108,1.2,2,0.25889,0.30065,0.82678,84,1.93751,-0.9,-0.45097,0.05011,5,lapse_rate,1,TRUE,4.137,0,FALSE,left,0,0.0007682,1.9496828,1.9489146,0.2494224,0.7494738,0.5000514,
85,0.50108,0.1,2,0.39251,0.21713,0.67645,85,1.91244,-0.756,-0.37581,0.12527,5,1U1D,1,TRUE,0.745,9,FALSE,left,0,0.0006628,1.9157364,1.9150736,0.3830538,0.8825423,0.4994885,
86,0.50108,1.2,2,0.23384,0.22548,0.6347,86,1.67861,-0.828,-0.41756,0.08351,5,2U1D,2,FALSE,1.748,4,FALSE,right,0,0.0007871,1.6901886,1.6894015,0.2234462,0.7231902,0.499744,
87,0.50108,0.1,2,0.42592,0.29229,0.75997,87,2.25485,-0.456,-0.22548,0.27559,5,1D1U,2,FALSE,0.893,7,FALSE,right,0,0.0002574,2.2740744,2.273817,0.4156508,0.9155729,0.4999221,
88,0.50108,1.2,2,0.37581,0.40086,0.73491,88,2.52209,0.024,0.00835,0.50943,5,2D1U,2,TRUE,0.815,2,FALSE,right,0,0.0006027,2.5156577,2.515055,0.3655848,0.8652451,0.4996603,
89,0.50108,0.1,2,0.29229,0.40086,0.87688,89,2.12122,-0.9,-0.45097,0.05011,5,lapse_rate,2,FALSE,0.719,0,FALSE,right,0,0.0002888,2.1234681,2.1231793,0.28185,0.7819264,0.5000764,
90,0.50108,0.1,1,0.31735,0.37581,0.89359,90,2.2465,-0.684,-0.3424,0.15867,5,1U1D,2,TRUE,2.792,9,FALSE,right,0,0.0006391,2.2330652,2.2324261,1.3581133,1.8576426,0.4995293,
91,0.50108,1.2,1,0.35911,0.25054,0.82678,91,1.98762,-0.9,-0.45097,0.05011,5,2U1D,1,FALSE,0.916,4,FALSE,left,0,0.0007737,1.981946,1.9811723,1.2236551,1.7238125,0.5001574,
92,0.50108,0.1,1,0.20043,0.30065,0.6514,92,2.16299,0.024,0.00835,0.50943,5,2D1U,1,TRUE,2.074,2,FALSE,left,0,0.0007274,2.1577082,2.1569808,1.3489119,1.8489835,0.5000716,
93,0.50108,1.2,1,0.35075,0.25889,0.73491,93,2.07947,-0.528,-0.26724,0.23384,5,1D1U,1,FALSE,1.378,7,FALSE,left,0,0.0005315,2.0904678,2.0899363,1.3073805,1.8074508,0.5000703,
94,0.50108,0.1,1,0.38416,0.20878,0.51778,94,1.80388,-0.612,-0.309,0.19208,5,1U1D,2,TRUE,0.72,9,FALSE,right,0,0.0007181,1.8075438,1.8068257,1.0827536,1.5825672,0.4998136,
95,0.50108,1.2,1,0.33405,0.3257,0.79337,95,2.90625,0.9,0.45097,0.95205,5,lapse_rate,1,TRUE,0.173,0,FALSE,left,0,0.0003171,2.899723,2.8994059,2.0658749,2.566252,0.5003771,
96,0.50108,1.2,1,0.21713,0.309,0.83513,96,2.33836,-0.048,-0.02505,0.47602,5,2D1U,1,FALSE,0.831,2,FALSE,left,0,0.0007193,2.3660117,2.3652924,1.5156708,2.015838,0.5001672,
97,0.50108,1.2,1,0.24219,0.22548,0.43427,97,1.45313,-0.9,-0.45097,0.05011,5,lapse_rate,1,FALSE,1.559,0,FALSE,left,0,0.0007134,1.4576073,1.4568939,0.7156411,1.215488,0.4998469,
98,0.50108,0.1,1,0.40086,0.43427,0.58459,98,2.15464,-0.54,-0.26724,0.23384,5,1U1D,1,FALSE,3.486,9,FALSE,left,0,0.0002754,2.1737044,2.173429,1.2074987,1.7071969,0.4996982,
99,0.50108,1.2,1,0.309,0.33405,0.90194,99,2.09618,-0.9,-0.45097,0.05011,5,2U1D,2,TRUE,0.406,4,FALSE,right,0,0.0010764,2.0977489,2.0966725,1.2477327,1.7475401,0.4998074,
100,0.50108,0.1,1,0.309,0.23384,0.86018,100,2.10453,-0.6,-0.30065,0.20043,5,1D1U,2,TRUE,1.466,7,FALSE,right,0,0.0006314,2.0985302,2.097898799,1.3569493,1.8571361,0.5001868,
101,0.50108,1.2,1,0.21713,0.36746,0.70986,101,2.02937,-0.528,-0.26724,0.23384,5,1D1U,2,TRUE,1.373,8,TRUE,right,0,0.0002792,2.022834,2.0225548,1.1478554,1.647951,0.5000956,
102,0.50108,1.2,1,0.35075,0.26724,0.75162,102,2.82274,0.9,0.45097,0.95205,5,lapse_rate,1,TRUE,0.782,0,FALSE,left,0,0.0002687,2.831702,2.8314333,2.0399555,2.5403588,0.5004033,
103,0.50108,0.1,1,0.33405,0.3424,0.40921,103,1.77882,-0.612,-0.309,0.19208,5,1U1D,1,FALSE,0.757,10,TRUE,left,0,0.0007271,1.7905559,1.7898288,0.9236733,1.423829,0.5001557,
104,0.50108,1.2,1,0.25889,0.44262,0.55118,104,2.19639,-0.12,-0.05846,0.44262,5,2D1U,1,FALSE,2.529,3,TRUE,left,0,0.0003602,2.1996356,2.1992754,1.2412993,1.7413638,0.5000645,
105,0.50108,0.1,1,0.24219,0.22548,0.47602,105,1.49488,-0.9,-0.45097,0.05011,5,2U1D,2,TRUE,0.711,4,FALSE,right,0,0.0002932,1.4989043,1.4986111,0.7570737,1.2569542,0.4998805,
106,0.50108,1.2,1,0.38416,0.21713,0.65975,106,2.03771,-0.456,-0.22548,0.27559,5,1D1U,2,TRUE,0.464,8,FALSE,right,0,0.000653,2.0583893,2.0577363,1.3081002,1.8085196,0.5004194,
107,0.50108,0.1,1,0.28394,0.36746,0.49273,107,2.04607,-0.192,-0.09186,0.40086,5,2D1U,1,FALSE,1.191,3,FALSE,left,0,0.0002788,2.0480692,2.0477904,1.1649526,1.6647603,0.4998077,
108,0.50108,0.1,1,0.42592,0.43427,0.42592,108,2.73924,0.9,0.45097,0.95205,5,lapse_rate,1,TRUE,0.345,0,FALSE,left,0,0.0002545,2.7497343,2.7494798,1.7908298,2.2906312,0.4998014,
109,0.50108,1.2,1,0.3424,0.25889,0.86853,109,2.05441,-0.828,-0.41756,0.08351,5,2U1D,1,FALSE,0.743,5,TRUE,left,0,0.0002536,2.0577886,2.057535,1.2832251,1.7833112,0.5000861,
110,0.50108,0.1,1,0.21713,0.37581,0.83513,110,2.08782,-0.684,-0.3424,0.15867,5,1U1D,1,FALSE,3.733,10,FALSE,left,0,0.0003526,2.0721064,2.0717538,1.1972162,1.6974346,0.5002184,
111,0.50108,1.2,1,0.37581,0.38416,0.41756,111,1.98761,-0.384,-0.19208,0.309,5,1D1U,1,FALSE,4.317,8,FALSE,left,0,0.0002834,1.9910702,1.9907868,1.0906983,1.5914083,0.50071,
112,0.50108,0.1,1,0.43427,0.25889,0.82678,112,2.07113,-0.9,-0.45097,0.05011,5,lapse_rate,2,TRUE,0.577,0,FALSE,right,0,0.0007324,2.0739814,2.073249,1.2990306,1.7986099,0.4995793,
113,0.50108,0.1,1,0.309,0.42592,0.77667,113,2.38013,-0.264,-0.13362,0.36746,5,2D1U,1,FALSE,1.571,3,FALSE,left,0,0.0002977,2.4082549,2.4079572,1.4414727,1.9410303,0.4995576,
114,0.50108,1.2,1,0.26724,0.39251,0.47602,114,1.68696,-0.9,-0.45097,0.05011,5,2U1D,2,TRUE,0.827,6,TRUE,right,0,0.0007294,1.6903728,1.6896434,0.7817866,1.2822163,0.5004297,
115,0.50108,0.1,1,0.20878,0.35075,0.6347,115,1.82058,-0.756,-0.37581,0.12527,5,1U1D,2,TRUE,0.431,10,FALSE,right,0,0.0002851,1.8411449,1.8408598,0.9579075,1.4580602,0.5001527,
116,0.50108,1.2,1,0.25889,0.20043,0.43427,116,2.34672,0.9,0.45097,0.95205,5,lapse_rate,2,FALSE,3.586,0,FALSE,right,0,0.0007652,2.365668,2.3649028,1.6322718,2.1323381,0.5000663,
117,0.50108,1.2,1,0.21713,0.38416,0.81843,117,2.19639,-0.456,-0.22548,0.27559,5,1D1U,2,TRUE,2.828,9,TRUE,right,0,0.000753,2.1979627,2.1972097,1.2978755,1.7984149,0.5005394,
118,0.50108,0.1,1,0.44262,0.31735,0.42592,118,1.73708,-0.9,-0.45097,0.05011,5,2U1D,2,TRUE,1.192,6,TRUE,right,0,0.0003019,1.7487823,1.748480401,0.9068856,1.4071477,0.5002621,
119,0.50108,1.2,1,0.33405,0.23384,0.44262,119,1.67026,-0.684,-0.3424,0.15867,5,1U1D,2,TRUE,0.896,11,TRUE,right,0,0.0003941,1.6739825,1.6735884,0.9236562,1.4235845,0.4999283,
120,0.50108,0.1,2,0.20043,0.3424,0.62635,120,2.00431,-0.336,-0.16703,0.33405,5,2D1U,2,FALSE,0.66,3,FALSE,right,0,0.000568,2.0073676,2.0067996,0.1907986,0.6908282,0.5000296,
121,0.50108,1.2,2,0.35075,0.27559,0.70151,121,2.12122,-0.408,-0.20043,0.29229,5,2D1U,2,FALSE,3.571,3,FALSE,right,0,0.0008036,2.1318577,2.1310541,0.3406798,0.8406887,0.5000089,
122,0.50108,0.1,2,0.43427,0.26724,0.75997,122,2.04607,-0.828,-0.41756,0.08351,5,2U1D,1,TRUE,1.392,7,TRUE,left,0,0.0003736,2.0492983,2.0489247,0.4241007,0.9243196,0.5002189,
123,0.50108,0.1,2,0.21713,0.21713,0.6514,123,2.53879,0.9,0.45097,0.95205,5,lapse_rate,2,TRUE,0.11,0,FALSE,right,0,0.0004755,2.5570944,2.5566189,0.2065432,0.7074801,0.5009369,
124,0.50108,1.2,2,0.22548,0.26724,0.86018,124,2.16298,-0.384,-0.19208,0.309,5,1D1U,2,FALSE,0.835,10,TRUE,right,0,0.0002571,2.175312,2.1750549,0.2170891,0.7176258,0.5005367,
125,0.50108,0.1,2,0.25889,0.26724,0.56789,125,1.78718,-0.612,-0.309,0.19208,5,1U1D,1,TRUE,1.208,11,FALSE,left,0,0.0007724,1.7738644,1.773092,0.2490207,0.749232,0.5002113,
126,0.50108,0.1,2,0.45097,0.3257,0.50108,126,1.82894,-0.9,-0.45097,0.05011,5,lapse_rate,1,TRUE,0.564,0,FALSE,left,0,0.0003375,1.8325232,1.8321857,0.4406065,0.9410247,0.5004182,
127,0.50108,1.2,2,0.41756,0.31735,0.6848,127,2.17968,-0.48,-0.24219,0.25889,5,2D1U,2,FALSE,0.813,3,FALSE,right,0,0.0002862,2.1827305,2.182444301,0.4077503,0.9083033,0.500553,
128,0.50108,0.1,2,0.33405,0.39251,0.56789,128,2.07112,-0.456,-0.22548,0.27559,5,1D1U,2,FALSE,0.644,11,TRUE,right,0,0.0002817,2.0741979,2.0739162,0.3238835,0.8244162,0.5005327,
129,0.50108,1.2,2,0.25889,0.30065,0.72656,129,1.87069,-0.828,-0.41756,0.08351,5,2U1D,1,TRUE,0.448,7,TRUE,left,0,0.0003,1.8833908,1.8830908,0.2501067,0.7497793,0.4996726,
130,0.50108,0.1,2,0.40921,0.33405,0.50943,130,1.98761,-0.54,-0.26724,0.23384,5,1U1D,1,TRUE,1.027,11,FALSE,left,0,0.0002835,1.9819418,1.9816583,0.3988856,0.8982207,0.4993351,
131,0.50108,1.2,2,0.3257,0.21713,0.84348,131,2.15463,-0.468,-0.23384,0.26724,5,1U1D,2,FALSE,0.571,11,FALSE,right,0,0.0008065,2.1578026,2.156996101,0.3162005,0.8165922,0.5003917,
132,0.50108,0.1,2,0.38416,0.28394,0.77667,132,2.07112,-0.756,-0.37581,0.12527,5,2U1D,1,TRUE,0.534,7,FALSE,left,0,0.0006508,2.0741024,2.0734516,0.3740986,0.8741408,0.5000422,
133,0.50108,1.2,2,0.21713,0.28394,0.6514,133,1.88739,-0.528,-0.26724,0.23384,5,1D1U,1,TRUE,0.479,11,FALSE,left,0,0.0002806,1.8816279,1.8813473,0.2072359,0.7065803,0.4993444,
134,0.50108,0.1,2,0.25889,0.25889,0.65975,134,1.90409,-0.552,-0.27559,0.22548,5,2D1U,2,FALSE,0.407,3,FALSE,right,0,0.0003008,1.8991507,1.8988499,0.249405,0.7492295,0.4998245,
135,0.50108,1.2,2,0.23384,0.25054,0.49273,135,2.43024,0.9,0.45097,0.95205,5,lapse_rate,2,TRUE,0.368,0,FALSE,right,0,0.0005611,2.4407809,2.4402198,0.2241752,0.7241449,0.4999697,
137,0.50108,1.2,2,0.309,0.20043,0.40921,137,1.54499,-0.756,-0.37581,0.12527,5,2U1D,2,FALSE,0.596,7,FALSE,right,0,0.0002631,1.549557,1.5492939,0.2994264,0.7998077,0.5003813,
138,0.50108,0.1,2,0.23384,0.27559,0.45097,138,1.69532,-0.54,-0.26724,0.23384,5,1U1D,2,FALSE,0.388,12,TRUE,right,0,0.00059,1.698302,1.697712,0.2230653,0.7236946,0.5006293,
139,0.50108,1.2,2,0.31735,0.36746,0.67645,139,2.05442,-0.624,-0.309,0.19208,5,2D1U,2,FALSE,0.456,3,FALSE,right,0,0.0003226,2.0645166,2.064194,0.3062951,0.8061212,0.4998261,
140,0.50108,0.1,2,0.44262,0.42592,0.71821,140,2.36342,-0.456,-0.22548,0.27559,5,1D1U,2,FALSE,1.924,12,TRUE,right,0,0.0006009,2.3659987,2.3653978,0.432639,0.9322582,0.4996192,
141,0.50108,1.2,2,0.25889,0.42592,0.89359,141,2.16299,-0.828,-0.41756,0.08351,5,2U1D,1,TRUE,0.461,8,TRUE,left,0,0.0006867,2.1663655,2.1656788,0.2502132,0.7496228,0.4994096,
142,0.50108,0.1,2,0.29229,0.40921,0.77667,142,2.21309,-0.528,-0.26724,0.23384,5,1D1U,2,FALSE,1.258,13,TRUE,right,0,0.0004956,2.2237378,2.2232422,0.2822453,0.782013,0.4997677,
143,0.50108,1.2,2,0.41756,0.26724,0.73491,143,2.11287,-0.612,-0.309,0.19208,5,1U1D,2,FALSE,0.602,12,FALSE,right,0,0.000719,2.1242813,2.1235623,0.4070721,0.9077366,0.5006645,
144,0.50108,0.1,2,0.35911,0.20043,0.6347,144,1.84564,-0.696,-0.35075,0.15032,5,2D1U,1,TRUE,0.63,3,FALSE,left,0,0.0004156,1.8476791,1.8472635,0.3480563,0.8478776,0.4998213,
145,0.50108,1.2,2,0.20043,0.22548,0.50943,145,1.51993,-0.828,-0.41756,0.08351,5,2U1D,2,FALSE,0.588,8,TRUE,right,0,0.0002879,1.5317719,1.531484,0.1906346,0.6902609,0.4996263,
146,0.50108,0.1,2,0.20043,0.22548,0.62635,146,1.71201,-0.684,-0.3424,0.15867,5,1U1D,2,FALSE,0.464,12,FALSE,right,0,0.0007892,1.7064444,1.7056552,0.1907662,0.6901069,0.4993407,
147,0.50108,1.2,2,0.31735,0.35075,0.71821,147,1.9375,-0.9,-0.45097,0.05011,5,2U1D,2,FALSE,0.781,8,FALSE,right,0,0.0002847,1.9485856,1.9483009,0.3068515,0.8064181,0.4995666,
148,0.50108,0.1,2,0.25889,0.309,0.47602,148,1.69531,-0.696,-0.35075,0.15032,5,2D1U,2,FALSE,0.351,3,FALSE,right,0,0.0002619,1.7070914,1.7068295,0.2482315,0.7488477,0.5006162,
149,0.50108,1.2,2,0.309,0.29229,0.6848,149,1.90409,-0.768,-0.38416,0.11692,5,2D1U,2,FALSE,0.62,3,FALSE,right,0,0.0003419,1.8994064,1.8990645,0.2991056,0.799269,0.5001634,
150,0.50108,0.1,1,0.39251,0.40921,0.85183,150,2.35506,-0.6,-0.30065,0.20043,5,1D1U,1,FALSE,1.672,13,FALSE,left,0,0.0007086,2.3568627,2.3561541,1.4321196,1.9317857,0.4996661,
151,0.50108,1.2,1,0.40921,0.44262,0.79337,151,2.19639,-0.9,-0.45097,0.05011,5,2U1D,2,TRUE,0.213,8,FALSE,right,0,0.000301,2.1987656,2.1984646,1.2405263,1.7402754,0.4997491,
152,0.50108,0.1,1,0.24219,0.29229,0.70986,152,1.82893,-0.84,-0.41756,0.08351,5,2D1U,2,TRUE,0.55,3,FALSE,right,0,0.0002736,1.8245973,1.8243237,1.0246485,1.5245015,0.499853,
153,0.50108,1.2,1,0.44262,0.27559,0.41756,153,1.80388,-0.672,-0.33405,0.16703,5,1D1U,2,TRUE,0.584,13,FALSE,right,0,0.0007487,1.8151265,1.8143778,1.0150787,1.5150489,0.4999702,
154,0.50108,0.1,1,0.3257,0.29229,0.6514,154,1.9709,-0.6,-0.30065,0.20043,5,1D1U,2,TRUE,0.925,14,TRUE,right,0,0.0002749,1.9657405,1.9654656,1.166218,1.6657019,0.4994839,
155,0.50108,1.2,1,0.43427,0.39251,0.77667,155,2.2298,-0.756,-0.37581,0.12527,5,1U1D,2,TRUE,0.446,12,FALSE,right,0,0.000307,2.2325144,2.2322074,1.3241194,1.8248981,0.5007787,
156,0.50108,0.1,1,0.39251,0.35075,0.56789,156,1.86234,-0.9,-0.45097,0.05011,5,2U1D,2,TRUE,0.342,8,FALSE,right,0,0.0006963,1.85749,1.8567937,0.9993227,1.4991753,0.4998526,
157,0.50108,1.2,1,0.40921,0.35911,0.62635,157,2.12959,-0.528,-0.26724,0.23384,5,1D1U,1,FALSE,0.331,14,FALSE,left,0,0.0002614,2.1404931,2.1402317,1.257262,1.7572413,0.4999793,
158,0.50108,0.1,1,0.42592,0.20878,0.6514,158,1.98761,-0.6,-0.30065,0.20043,5,1D1U,1,FALSE,0.727,15,TRUE,left,0,0.0003115,1.9901632,1.9898517,1.26521,1.7646695,0.4994595,
159,0.50108,1.2,1,0.35075,0.37581,0.64305,159,1.9542,-0.84,-0.41756,0.08351,5,2D1U,2,TRUE,1.187,3,FALSE,right,0,0.0006479,1.9666129,1.965965,1.0665575,1.5665288,0.4999713,
160,0.50108,0.1,1,0.39251,0.26724,0.87688,160,2.19638,-0.684,-0.3424,0.15867,5,1U1D,2,TRUE,2.194,13,TRUE,right,0,0.0002745,2.2072857,2.2070112,1.4156076,1.9159889,0.5003813,
161,0.50108,1.2,1,0.40921,0.42592,0.79337,161,2.32166,-0.612,-0.309,0.19208,5,1U1D,1,FALSE,0.509,13,FALSE,left,0,0.0007638,2.3084588,2.307695,1.3831587,1.8833024,0.5001437,
162,0.50108,0.1,1,0.3257,0.21713,0.81007,162,2.02101,-0.672,-0.33405,0.16703,5,1D1U,2,TRUE,0.815,15,FALSE,right,0,0.0007772,2.0329659,2.0321887,1.2915559,1.7913687,0.4998128,
163,0.50108,1.2,1,0.26724,0.35075,0.62635,163,1.86234,-0.768,-0.38416,0.11692,5,2D1U,2,TRUE,0.52,4,TRUE,right,0,0.0007879,1.8571422,1.8563543,0.9985797,1.498769,0.5001893,
164,0.50108,0.1,1,0.27559,0.41756,0.43427,164,1.71201,-0.828,-0.41756,0.08351,5,2U1D,1,FALSE,0.526,9,TRUE,left,0,0.0002959,1.7072064,1.7069105,0.7820035,1.2826219,0.5006184,
165,0.50108,1.2,1,0.25054,0.37581,0.81843,165,2.10453,-0.684,-0.3424,0.15867,5,1U1D,1,FALSE,0.733,14,TRUE,left,0,0.000736,2.0910835,2.0903475,1.2154286,1.7153629,0.4999343,
166,0.50108,0.1,1,0.28394,0.40086,0.6848,166,1.92079,-0.9,-0.45097,0.05011,5,2U1D,2,TRUE,1.18,10,TRUE,right,0,0.0007254,1.9247112,1.9239858,1.0079834,1.5084142,0.5004308,
167,0.50108,1.2,1,0.36746,0.35075,0.43427,167,1.70367,-0.9,-0.45097,0.05011,5,2U1D,2,TRUE,1.463,10,TRUE,right,0,0.0003041,1.7069135,1.7066094,0.8399628,1.3399071,0.4999443,
168,0.50108,0.1,1,0.33405,0.309,0.71821,168,2.06277,-0.6,-0.30065,0.20043,5,1D1U,1,FALSE,0.913,16,TRUE,left,0,0.000273,2.057779,2.057506,1.2412677,1.741187,0.4999193,
169,0.50108,1.2,1,0.45097,0.42592,0.90194,169,2.40518,-0.756,-0.37581,0.12527,5,1U1D,2,TRUE,1.711,14,FALSE,right,0,0.001191,2.415315,2.414124,1.465406,1.9655928,0.5001868,
170,0.50108,0.1,1,0.39251,0.31735,0.6347,170,1.96256,-0.768,-0.38416,0.11692,5,2D1U,2,TRUE,1.491,4,TRUE,right,0,0.0002761,1.9581772,1.9579011,1.1329898,1.6329316,0.4999418,
171,0.50108,1.2,1,0.23384,0.44262,0.74326,171,2.00431,-0.828,-0.41756,0.08351,5,2U1D,1,FALSE,0.737,11,TRUE,left,0,0.0002638,1.998737,1.9984732,1.048581,1.5486702,0.5000892,
172,0.50108,0.1,1,0.41756,0.24219,0.82678,172,2.03772,-0.9,-0.45097,0.05011,5,2U1D,2,TRUE,1.679,12,TRUE,right,0,0.000272,2.0489527,2.0486807,1.2825203,1.7826185,0.5000982,
173,0.50108,1.2,1,0.44262,0.40921,0.44262,173,1.9542,-0.684,-0.3424,0.15867,5,1U1D,1,FALSE,1.446,15,TRUE,left,0,0.0002715,1.9577846,1.9575131,1.0327099,1.5329606,0.5002507,
174,0.50108,0.1,1,0.31735,0.26724,0.59294,174,1.84564,-0.672,-0.33405,0.16703,5,1D1U,1,FALSE,1.845,17,TRUE,left,0,0.0002668,1.8582449,1.8579781,1.0663741,1.5661702,0.4997961,
175,0.50108,1.2,1,0.3257,0.20043,0.55954,175,1.73707,-0.696,-0.35075,0.15032,5,2D1U,2,TRUE,1.19,4,FALSE,right,0,0.0007055,1.7491558,1.7484503,1.0244851,1.5241713,0.4996862,
176,0.50108,0.1,1,0.30065,0.40086,0.60964,176,1.9375,-0.756,-0.37581,0.12527,5,1U1D,2,TRUE,0.929,16,TRUE,right,0,0.0003082,1.9498786,1.9495704,1.0247915,1.5249747,0.5001832,
177,0.50108,1.2,1,0.39251,0.38416,0.62635,177,2.06277,-0.684,-0.3424,0.15867,5,1U1D,2,TRUE,0.107,17,TRUE,right,0,0.0003072,2.0576722,2.057365,1.1661311,1.666122,0.4999909,
178,0.50108,0.1,1,0.27559,0.38416,0.82678,178,2.11288,-0.744,-0.37581,0.12527,5,1D1U,1,FALSE,1.085,17,FALSE,left,0,0.0003268,2.1246698,2.124343,1.2168479,1.7160565,0.4992086,
179,0.50108,1.2,1,0.30065,0.31735,0.50108,179,1.77048,-0.696,-0.35075,0.15032,5,2D1U,2,TRUE,0.541,4,FALSE,right,0,0.0007101,1.7645192,1.7638091,0.9393888,1.4393908,0.500002,