,standardDur,riseDur,order,preDur,postDur,isiDur,trial_num,totalDur,delta_dur_percents,deltaDurS,testDurS,intensities,current_stair,responses,is_correct,response_rts,stair_num_reversal,stair_is_reversal,response_keys,conflictDur,recordedOnsetAudioTest,recordedOffsetAudioTest,recordedDurAudioTest,recordedOnsetVisualStandard,recordedOffsetVisualStandard,recordedDurVisualStandard,modalityPostCueTest
0,0.5003,0.0,1,0.6254,0.6087,0.0917,0,1.8761,-0.9,-0.4503,0.05,5,lapse_rate,2.0,True,0.712,0,False,right,0.0,0.6156736999982968,0.6570161000126973,0.04134240001440048,0.7654427000088617,1.2652409999864176,0.49979829997755587,
1,0.5003,0.0,2,0.6337,0.4503,0.1584,1,1.8428,-0.8,-0.4002,0.1001,5,1U1D,1.0,True,1.142,0,False,left,0.0,1.281704000022728,1.3816340999910608,0.0999300999683328,0.6230782000347972,1.1233007999835536,0.5002225999487564,
2,0.5003,0.0,2,0.4586,0.5753,0.3502,2,2.7849,0.8,0.4002,0.9005,5,2D1U,2.0,True,0.475,0,False,right,0.0,1.298380599997472,2.198442700027954,0.9000621000304818,0.44817410001996905,0.9482381999841891,0.5000640999642201,
3,0.5003,0.0,1,0.6254,0.5086,0.5337,3,3.0685,0.8,0.4002,0.9005,5,1D1U,1.0,True,1.941,0,False,left,0.0,0.6158517000149004,1.515809900010936,0.8999581999960355,2.04920409998158,2.5498860999941826,0.5006820000126027,
4,0.5003,0.0,1,0.5086,0.6254,0.4586,4,2.193,-0.8,-0.4002,0.1001,5,2U1D,2.0,True,0.474,0,False,right,0.0,0.49988260003738105,0.5999110999982804,0.10002849996089935,1.066378200019244,1.566508000018075,0.500129799998831,
5,0.5003,0.0,2,0.4336,0.4336,0.5086,5,2.0762,-0.6,-0.3002,0.2001,5,1U1D,2.0,False,1.641,0,False,right,0.0,1.4325719000189565,1.632625200028997,0.2000533000100404,0.4242023000260815,0.9241484000231139,0.49994609999703243,
6,0.5003,0.0,2,0.5337,0.5503,0.5587,6,2.193,-0.9,-0.4503,0.05,5,lapse_rate,1.0,True,0.691,0,False,left,0.0,1.5831175000057556,1.6331511999596842,0.05003369995392859,0.5246392000117339,1.0246565999696031,0.5000173999578692,
7,0.5003,0.0,1,0.6337,0.5003,0.7254,7,2.5015,-0.72,-0.3586,0.1418,5,1U1D,2.0,True,2.982,1,True,right,0.0,0.624971600016579,0.7665368000161834,0.14156519999960437,1.4916527000023052,1.9915860000182875,0.49993330001598224,
8,0.5003,0.0,2,0.592,0.4669,0.3419,8,2.0012,-0.8,-0.4002,0.1001,5,2U1D,1.0,True,1.675,0,False,left,0.0,1.423467799962964,1.5234952999744564,0.10002750001149252,0.581825899949763,1.081757799955085,0.49993190000532195,
9,0.5003,0.0,2,0.6421,0.4586,0.7505,9,3.252,0.8,0.4002,0.9005,5,2D1U,2.0,True,0.449,0,False,right,0.0,1.8823514999821782,2.7823428999981843,0.8999914000160061,0.6321264999569394,1.1319429999566637,0.49981649999972433,
10,0.5003,0.0,1,0.617,0.542,0.6337,10,3.0935,0.6,0.3002,0.8005,5,1D1U,1.0,True,2.949,0,False,left,0.0,0.6081403000280261,1.4080280999769457,0.7998877999489196,2.049969899991993,2.5497246999875642,0.4997547999955714,
11,0.5003,0.0,2,0.4753,0.4669,0.5003,11,2.8934,0.9,0.4503,0.9506,5,lapse_rate,2.0,True,0.466,0,False,right,0.0,1.4649258999852464,2.415207299985923,0.9502814000006765,0.46522499999264255,0.9649479999789037,0.49972299998626113,
12,0.5003,0.0,1,0.4086,0.4836,0.7588,12,2.8517,0.4,0.2001,0.7004,5,1D1U,2.0,False,1.624,0,False,right,0.0,0.4001449000206776,1.1000901000224985,0.6999452000018209,1.8585148999700323,2.358391700021457,0.49987680005142465,
13,0.5003,0.0,2,0.5837,0.4586,0.7921,13,3.2853,0.9,0.4503,0.9506,5,lapse_rate,1.0,False,4.416,0,False,left,0.0,1.8659025999950245,2.8161423999699764,0.9502397999749519,0.574398199969437,1.0742271000053734,0.4998289000359364,
14,0.5003,0.0,1,0.492,0.4669,0.7004,14,2.3347,-0.648,-0.3252,0.1751,5,1U1D,2.0,True,0.408,2,True,right,0.0,0.48331789998337626,0.6585526000126265,0.17523470002925023,1.3586003999807872,1.8582842000178061,0.49968380003701895,
15,0.5003,0.0,2,0.542,0.4753,0.7505,15,2.4682,-0.6,-0.3002,0.2001,5,2U1D,2.0,False,1.174,0,False,right,0.0,1.782565400004387,1.982589100021869,0.20002370001748204,0.5325668000150472,1.032805000024382,0.5002382000093348,
16,0.5003,0.0,1,0.4669,0.4586,0.6754,16,2.9017,0.6,0.3002,0.8005,5,2D1U,1.0,True,1.324,0,False,left,0.0,0.4574175999732688,1.2574082000064664,0.7999906000331976,1.9407221999717876,2.440976199985016,0.5002540000132285,
17,0.5003,0.0,2,0.517,0.6421,0.8672,17,3.4772,0.9,0.4503,0.9506,5,lapse_rate,2.0,True,0.624,0,False,right,0.0,1.8744764000293799,2.824456700007431,0.9499802999780513,0.507885700033512,1.0079222000204027,0.5000364999868907,
18,0.5003,0.0,1,0.6337,0.5503,0.3419,18,2.2347,-0.576,-0.2918,0.2085,5,1U1D,2.0,True,0.766,2,False,right,0.0,0.6242714999825694,0.832232299959287,0.20796079997671768,1.18261999997776,1.6825420999666676,0.4999220999889076,
19,0.5003,0.0,1,0.4002,0.4503,0.4753,19,1.9679,-0.72,-0.3586,0.1418,5,2U1D,2.0,True,2.408,1,True,right,0.0,0.39202320005279034,0.5338816000148654,0.14185839996207505,1.0086866000201553,1.5090931000304408,0.5004065000102855,
20,0.5003,0.0,2,0.5503,0.4253,0.0167,20,2.2514,0.52,0.2585,0.7588,5,1D1U,2.0,True,7.617,1,True,right,0.0,1.0567204999970272,1.8154338999884203,0.7587133999913931,0.5402135999756865,1.0399630999891087,0.4997495000134222,
21,0.5003,0.0,1,0.4419,0.4753,0.0917,21,2.3097,0.6,0.3002,0.8005,5,2D1U,1.0,True,4.975,0,False,left,0.0,0.4331153000239283,1.23289320000913,0.7997778999852017,1.3247960999724455,1.8247986999922432,0.5000026000197977,
22,0.5003,0.0,1,0.517,0.6254,0.3752,22,2.2681,-0.504,-0.2502,0.2502,5,1U1D,2.0,True,7.749,2,False,right,0.0,0.5071477000019513,0.7573520999867469,0.2502043999847956,1.1405416000052355,1.6405422000098042,0.5000006000045687,
23,0.5003,0.0,1,0.5253,0.6421,0.617,23,2.3347,-0.9,-0.4503,0.05,5,lapse_rate,2.0,True,0.508,0,False,right,0.0,0.5163128999993205,0.5579647000413388,0.041651800042018294,1.1912038000300527,1.691615300020203,0.5004114999901503,
24,0.5003,0.0,1,0.4836,0.5753,0.7755,24,3.0351,0.4,0.2001,0.7004,5,2D1U,2.0,False,0.75,0,False,right,0.0,0.4738279999583028,1.1740756999934092,0.7002477000351064,1.9570709999534301,2.4571190999704413,0.5000481000170112,
25,0.5003,0.0,1,0.6087,0.5086,0.2335,25,1.9929,-0.72,-0.3586,0.1418,5,2U1D,1.0,False,2.308,1,True,left,0.0,0.5993641000241041,0.740933799999766,0.14156969997566193,0.9749197000055574,1.4743805000325665,0.4994608000270091,
26,0.5003,0.0,1,0.4336,0.4336,0.1001,26,2.193,0.448,0.2251,0.7254,5,1D1U,2.0,False,1.6,2,True,right,0.0,0.42473120003705844,1.1497447000001557,0.7250134999630973,1.2499800000223331,1.749947100004647,0.4999670999823138,
27,0.5003,0.0,1,0.5003,0.4669,0.3586,27,1.8761,-0.9,-0.4503,0.05,5,lapse_rate,2.0,True,1.484,0,False,right,0.0,0.49122739996528253,0.5411864999914542,0.049959100026171654,0.8994399000075646,1.3995254999608733,0.5000855999533087,
28,0.5003,0.0,2,0.5253,0.6254,0.1334,28,2.5432,0.52,0.2585,0.7588,5,1D1U,2.0,True,0.162,3,True,right,0.0,1.1492549999966286,1.9074974000104703,0.7582424000138417,0.5158488999586552,1.0158397000050172,0.499990800046362,
29,0.5003,0.0,2,0.5753,0.517,0.8422,29,2.5182,-0.84,-0.4169,0.0834,5,2U1D,1.0,True,0.275,1,False,left,0.0,1.908217100019101,1.9914472000091337,0.08323009999003261,0.5667039999971166,1.0667162000318058,0.5000122000346892,
30,0.5003,0.0,1,0.4086,0.4419,0.6254,30,2.735,0.52,0.2585,0.7588,5,2D1U,1.0,True,0.163,1,True,left,0.0,0.3985387999564409,1.1568301999941468,0.7582914000377059,1.7901441999711096,2.289967499964405,0.4998232999932952,
31,0.5003,0.0,1,0.6504,0.4253,0.075,31,1.9345,-0.432,-0.2168,0.2835,5,1U1D,1.0,False,3.424,2,False,left,0.0,0.6411118999822065,0.9241716000251472,0.2830597000429407,0.9994831000221893,1.4996191000100225,0.5001359999878332,
32,0.5003,0.0,1,0.4836,0.4419,0.517,32,1.9928,-0.9,-0.4503,0.05,5,lapse_rate,2.0,True,0.291,0,False,right,0.0,0.4734118999913335,0.5232229999965057,0.04981110000517219,1.039588299987372,1.5397687000222504,0.5001804000348784,
33,0.5003,0.0,1,0.4503,0.617,0.4169,33,2.0679,-0.84,-0.4169,0.0834,5,2U1D,2.0,True,1.691,1,False,right,0.0,0.44051390001550317,0.5238421999965794,0.08332829998107627,0.9494048000196926,1.4488160000182688,0.4994111999985762,
34,0.5003,0.0,1,0.5587,0.617,0.6254,34,3.0602,0.52,0.2585,0.7588,5,2D1U,1.0,True,0.891,1,True,left,0.0,0.5499987999792211,1.3084619999863207,0.7584632000070997,1.9334422000101767,2.433301399985794,0.49985919997561723,
35,0.5003,0.0,1,0.5253,0.5587,0.8088,35,3.1185,0.448,0.2251,0.7254,5,1D1U,1.0,True,3.1,4,True,left,0.0,0.5157162000541575,1.2409258999978192,0.7252096999436617,2.0490606000530533,2.5490236000041477,0.4999629999510944,
36,0.5003,0.0,1,0.6254,0.5003,0.2251,36,2.1013,-0.504,-0.2502,0.2502,5,1U1D,1.0,False,1.567,3,True,left,0.0,0.6154088000184856,0.8649816000252031,0.24957280000671744,1.098404299991671,1.5987506000092253,0.5003463000175543,
37,0.5003,0.0,2,0.5587,0.5753,0.0083,37,1.6926,-0.9,-0.4503,0.05,5,lapse_rate,2.0,False,4.466,0,False,right,0.0,1.0572843999834731,1.1068949999753386,0.049610599991865456,0.5488455999875441,1.0488879999611527,0.5000423999736086,
38,0.5003,0.0,1,0.4586,0.5003,0.2335,38,2.4181,0.448,0.2251,0.7254,5,2D1U,1.0,True,0.574,2,True,left,0.0,0.4501684000133537,1.1752589999814518,0.7250905999680981,1.4084670000011101,1.908569399965927,0.5001023999648169,
39,0.5003,0.0,1,0.542,0.5837,0.2335,39,2.5516,0.376,0.1918,0.6921,5,1D1U,1.0,True,0.742,4,False,left,0.0,0.5325360000133514,1.2241427999688312,0.6916067999554798,1.4575116999913007,1.9574456000118516,0.49993390002055094,
40,0.5003,0.0,2,0.5003,0.4586,0.592,40,2.2597,-0.576,-0.2918,0.2085,5,1U1D,1.0,True,2.883,3,False,left,0.0,1.5821224999963306,1.7903382999938913,0.20821579999756068,0.49061530001927167,0.9902153000002727,0.499599999981001,
41,0.5003,0.0,1,0.6421,0.5837,0.3419,41,2.1847,-0.768,-0.3836,0.1167,5,2U1D,2.0,True,0.425,2,True,right,0.0,0.633508900005836,0.7502879000385292,0.11677900003269315,1.0920163000118919,1.5919557000161149,0.499939400004223,
42,0.5003,0.0,2,0.5003,0.6337,0.1918,42,2.4765,0.304,0.1501,0.6504,5,1D1U,2.0,True,4.274,4,False,right,0.0,1.1816150000086054,1.83153530000709,0.6499202999984846,0.48967340000672266,0.9898572000092827,0.50018380000256,
43,0.5003,0.0,1,0.5587,0.617,0.6337,43,3.0351,0.448,0.2251,0.7254,5,2D1U,1.0,True,0.375,2,True,left,0.0,0.549085600010585,1.2740112000028603,0.7249255999922752,1.9073783000349067,2.4073983000125736,0.5000199999776669,
44,0.5003,0.0,1,0.4419,0.6337,0.6587,44,3.1852,0.9,0.4503,0.9506,5,lapse_rate,1.0,True,2.858,0,False,left,0.0,0.4322062999708578,1.3820749999722466,0.9498687000013888,2.040573099977337,2.5406145000015385,0.5000414000242017,
45,0.5003,0.0,1,0.5837,0.4169,0.6754,45,2.4265,-0.504,-0.2502,0.2502,5,1U1D,1.0,False,4.591,4,True,left,0.0,0.5750608000089414,0.8248472000123002,0.24978640000335872,1.4997895999695174,2.0001768000074662,0.5003872000379488,
46,0.5003,0.0,2,0.5337,0.4336,0.6421,46,2.2264,-0.768,-0.3836,0.1167,5,2U1D,1.0,True,1.966,2,True,left,0.0,1.6663120000157505,1.7827031000051647,0.11639109998941422,0.5244934000074863,1.0245609999983571,0.5000675999908708,
47,0.5003,0.0,2,0.4253,0.6421,0.8839,47,3.0686,0.232,0.1167,0.617,5,1D1U,2.0,True,3.892,4,False,right,0.0,1.8001424000249244,2.4169410000322387,0.6167986000073142,0.41691070003435016,0.916930700012017,0.5000199999776669,
48,0.5003,0.0,2,0.6004,0.4169,0.1584,48,1.8261,-0.696,-0.3502,0.1501,5,2U1D,2.0,False,1.058,2,False,right,0.0,1.2490492000360973,1.3992136000306346,0.15016439999453723,0.5904987000394613,1.090678200009279,0.5001794999698177,
49,0.5003,0.0,1,0.5253,0.4419,0.0917,49,2.2513,0.376,0.1918,0.6921,5,2D1U,1.0,True,0.234,2,False,left,0.0,0.5156424999586307,1.2073722999775782,0.6917298000189476,1.2990800999687053,1.7990820999839343,0.500002000015229,
50,0.5003,0.0,1,0.5587,0.592,0.1751,50,2.0346,-0.576,-0.2918,0.2085,5,1U1D,2.0,True,2.651,5,True,right,0.0,0.5497587000136264,0.7579378000227734,0.20817910000914708,0.9330348999937996,1.4331896000076085,0.5001547000138089,
51,0.5003,0.0,2,0.5086,0.6087,0.6087,51,3.1769,0.9,0.4503,0.9506,5,lapse_rate,2.0,True,0.159,0,False,right,0.0,1.6083039999939501,2.558280700002797,0.9499767000088468,0.4997160999919288,0.9995765999774449,0.49986049998551607,
52,0.5003,0.0,2,0.5587,0.4086,0.3502,52,2.068,-0.504,-0.2502,0.2502,5,1U1D,1.0,True,0.341,6,True,left,0.0,1.3985244000214152,1.6485535000101663,0.2500290999887511,0.5485725000035018,1.0483437000075355,0.49977120000403374,
53,0.5003,0.0,1,0.5253,0.517,0.3002,53,1.9595,-0.768,-0.3836,0.1167,5,2U1D,2.0,True,0.359,3,True,right,0.0,0.5169666000292636,0.6337463000090793,0.11677969997981563,0.9336718000122346,1.4336292000371031,0.49995740002486855,
54,0.5003,0.0,1,0.4419,0.5086,0.05,54,2.0845,0.16,0.0834,0.5837,5,1D1U,1.0,True,0.907,4,False,left,0.0,0.43186140002217144,1.0152468999731354,0.583385499950964,1.0651867000269704,1.5652070000069216,0.5000202999799512,
55,0.5003,0.0,2,0.5753,0.617,0.7421,55,3.1268,0.376,0.1918,0.6921,5,2D1U,2.0,True,0.483,2,False,right,0.0,1.807460300042294,2.499134200043045,0.691673900000751,0.5657962000113912,1.0662558000185527,0.5004596000071615,
56,0.5003,0.0,1,0.5503,0.5753,0.05,56,1.7259,-0.9,-0.4503,0.05,5,lapse_rate,2.0,True,0.983,0,False,right,0.0,0.5420611999579705,0.5920876999734901,0.05002650001551956,0.6504345999564976,1.1506110999616794,0.5001765000051819,
57,0.5003,0.0,1,0.6004,0.5503,0.0584,57,1.8261,-0.768,-0.3836,0.1167,5,2U1D,1.0,False,4.008,3,True,left,0.0,0.5906898999819532,0.7074631999712437,0.11677329998929054,0.774039999989327,1.274169999989681,0.5001300000003539,
58,0.5003,0.0,1,0.6337,0.4253,0.4753,58,2.685,0.304,0.1501,0.6504,5,2D1U,1.0,True,1.958,2,False,left,0.0,0.6247305999859236,1.2744845999986865,0.6497540000127628,1.758070099982433,2.2578934999764897,0.49982339999405667,
59,0.5003,0.0,2,0.6421,0.5837,0.2585,59,2.5266,0.088,0.0417,0.542,5,1D1U,2.0,True,0.164,4,False,right,0.0,1.390634199953638,1.932056299992837,0.541422100039199,0.6321968999691308,1.1321188999572769,0.4999219999881461,
60,0.5003,0.0,1,0.5086,0.5753,0.0334,60,2.5682,0.9,0.4503,0.9506,5,lapse_rate,1.0,True,0.649,0,False,left,0.0,0.5000491000246257,1.4502360000042245,0.9501868999795988,1.4836548000457697,1.9835986000252888,0.4999437999795191,
61,0.5003,0.0,1,0.6337,0.4086,0.4669,61,2.293,-0.432,-0.2168,0.2835,5,1U1D,2.0,True,3.175,6,False,right,0.0,0.6242404999793507,0.9071187999797985,0.2828783000004478,1.3740048999898136,1.8739583999849856,0.499953499995172,
62,0.5003,0.0,1,0.6087,0.4836,0.2335,62,2.143,-0.36,-0.1834,0.3169,5,1U1D,1.0,False,3.366,6,False,left,0.0,0.5997299000155181,0.9163341000094078,0.3166041999938898,1.1495961000327952,1.6496731000370346,0.5000770000042394,
63,0.5003,0.0,2,0.6004,0.6254,0.0584,63,2.2931,0.016,0.0083,0.5086,5,1D1U,2.0,True,0.767,4,False,right,0.0,1.1499285000027157,1.6582081000087783,0.5082796000060625,0.5915955000091344,1.0916021000011824,0.500006599992048,
64,0.5003,0.0,2,0.4086,0.5837,0.0417,64,2.1847,0.304,0.1501,0.6504,5,2D1U,2.0,True,7.133,2,False,right,0.0,0.9416301000164822,1.591635899967514,0.6500057999510318,0.3998860999708995,0.8999583999975584,0.5000723000266589,
65,0.5003,0.0,1,0.542,0.6087,0.3502,65,2.9518,0.9,0.4503,0.9506,5,lapse_rate,2.0,False,0.933,0,False,right,0.0,0.5325436000130139,1.4822718999930657,0.9497282999800518,1.8407790000201203,2.340554099995643,0.4997750999755226,
66,0.5003,0.0,2,0.492,0.567,0.7588,66,2.4015,-0.84,-0.4169,0.0834,5,2U1D,1.0,True,0.958,3,False,left,0.0,1.7412846999941394,1.8249112000339665,0.08362650003982708,0.4831644000369124,0.9833158000255935,0.5001513999886811,
67,0.5003,0.0,1,0.492,0.567,0.4336,67,2.0763,-0.84,-0.4169,0.0834,5,2U1D,2.0,True,4.292,3,False,right,0.0,0.48301100003300235,0.5664028000319377,0.08339179999893531,1.007735599996522,1.5080833000247367,0.5003477000282146,
68,0.5003,0.0,1,0.5587,0.5837,0.3419,68,2.4599,-0.056,-0.025,0.4753,5,1D1U,1.0,False,1.325,4,False,left,0.0,0.5487099000019953,1.0238648000522517,0.4751549000502564,1.36561380000785,1.8654244000208564,0.4998106000130065,
69,0.5003,0.0,1,0.4253,0.567,0.6587,69,2.4348,-0.432,-0.2168,0.2835,5,1U1D,1.0,False,1.708,7,True,left,0.0,0.4165146000450477,0.6995817000279203,0.2830670999828726,1.3582400000304915,1.8580879000364803,0.4998479000059888,
70,0.5003,0.0,2,0.5503,0.4669,0.8589,70,2.9934,0.232,0.1167,0.617,5,2D1U,1.0,False,6.007,2,False,left,0.0,1.8996541999513283,2.516225499974098,0.6165713000227697,0.5408034999854863,1.041048699989915,0.5002452000044286,
71,0.5003,0.0,2,0.592,0.5587,0.025,71,2.3264,0.304,0.1501,0.6504,5,2D1U,2.0,True,0.358,3,True,right,0.0,1.1077179999556392,1.758042499946896,0.6503244999912567,0.5827678999630734,1.0826745999511331,0.4999066999880597,
72,0.5003,0.0,1,0.5837,0.5086,0.2418,72,2.4848,0.304,0.1501,0.6504,5,2D1U,2.0,False,0.983,3,True,right,0.0,0.5747204000363126,1.2247145000146702,0.6499940999783576,1.474731200025417,1.9746568000409752,0.4999256000155583,
73,0.5003,0.0,2,0.5003,0.5837,0.8338,73,3.1102,0.376,0.1918,0.6921,5,2D1U,2.0,True,1.366,3,False,right,0.0,1.8253286000108346,2.518425800022669,0.6930972000118345,0.4917060000007041,0.9921379000297748,0.5004319000290707,
74,0.5003,0.0,2,0.492,0.6337,0.3419,74,2.2181,-0.504,-0.2502,0.2502,5,1U1D,1.0,True,0.625,7,False,left,0.0,1.3250080000143498,1.574526500015054,0.24951850000070408,0.4830237000132911,0.9833134000073187,0.5002896999940276,
75,0.5003,0.0,1,0.5753,0.5337,0.4336,75,2.4765,-0.128,-0.0667,0.4336,5,1D1U,1.0,False,0.883,5,True,left,0.0,0.5665275999926962,1.0000044000335038,0.4334768000408076,1.4334945000009611,1.933059900009539,0.49956540000857785,
76,0.5003,0.0,2,0.617,0.5337,0.1334,76,1.9011,-0.768,-0.3836,0.1167,5,2U1D,2.0,False,0.182,4,True,right,0.0,1.240222199994605,1.3566322000115179,0.11641000001691282,0.6066557000158355,1.1066892000380903,0.5000335000222549,
77,0.5003,0.0,2,0.4336,0.5086,0.7338,77,2.8684,0.376,0.1918,0.6921,5,2D1U,2.0,True,0.407,3,False,right,0.0,1.6575042000040412,2.3486446000169963,0.6911404000129551,0.4240420000278391,0.92404880002141,0.5000067999935709,
78,0.5003,0.0,1,0.592,0.5003,0.1501,78,2.0262,-0.432,-0.2168,0.2835,5,1U1D,2.0,True,2.866,8,True,right,0.0,0.5819921999936923,0.8658049999503419,0.28381279995664954,1.0153818999533542,1.5153762999689206,0.4999944000155665,
79,0.5003,0.0,1,0.4336,0.5003,0.1501,79,1.9012,-0.36,-0.1834,0.3169,5,1U1D,2.0,True,4.7,8,False,right,0.0,0.4250822000321932,0.7416685000061989,0.31658629997400567,0.8917471000459045,1.3916827000211924,0.4999355999752879,
80,0.5003,0.0,1,0.6254,0.492,0.3836,80,2.0847,-0.84,-0.4169,0.0834,5,2U1D,2.0,True,1.441,5,True,right,0.0,0.6168569000437856,0.7001644000411034,0.08330749999731779,1.0840559000498615,1.5834900000481866,0.4994340999983251,
81,0.5003,0.0,1,0.617,0.4002,0.5587,81,2.4764,-0.2,-0.1001,0.4002,5,1D1U,2.0,True,4.274,5,False,right,0.0,0.6076360999722965,1.012016599997878,0.40438050002558157,1.5745241999975406,2.0743530999752693,0.4998288999777287,
82,0.5003,0.0,2,0.517,0.4669,0.3586,82,2.4932,0.304,0.1501,0.6504,5,2D1U,2.0,True,3.2,4,True,right,0.0,1.365889300010167,2.015771600010339,0.6498823000001721,0.5073292000452057,1.007280300022103,0.49995109997689724,
83,0.5003,0.0,2,0.4503,0.5753,0.025,83,1.9845,-0.128,-0.0667,0.4336,5,1D1U,2.0,False,6.648,6,True,right,0.0,0.9656226000515744,1.39892480004346,0.4333021999918856,0.44054080004571006,0.9406712000491098,0.5001304000033997,
84,0.5003,0.0,2,0.492,0.4253,0.1418,84,1.918,-0.288,-0.1418,0.3586,5,1U1D,2.0,False,2.467,8,False,right,0.0,1.123319200007245,1.481655800016597,0.35833660000935197,0.4817009000107646,0.9814105000114068,0.49970960000064224,
85,0.5003,0.0,1,0.617,0.5503,0.567,85,2.318,-0.84,-0.4169,0.0834,5,2U1D,2.0,True,1.766,5,True,right,0.0,0.6082104000379331,0.6916327000362799,0.08342229999834672,1.25818960001925,1.7581337000010535,0.49994409998180345,
86,0.5003,0.0,1,0.4169,0.4586,0.8839,86,2.9101,0.304,0.1501,0.6504,5,2D1U,1.0,True,0.8,4,True,left,0.0,0.40795690001687035,1.057651499984786,0.6496945999679156,1.9494917999836616,2.4495355000253767,0.5000437000417151,
87,0.5003,0.0,2,0.6004,0.592,0.7004,87,3.0101,0.232,0.1167,0.617,5,2D1U,2.0,True,0.266,4,False,right,0.0,1.7907373000052758,2.4077525000320747,0.617015200026799,0.5906837000511587,1.0908895000466146,0.5002057999954559,
88,0.5003,0.0,1,0.517,0.4253,0.1501,88,2.2097,0.232,0.1167,0.617,5,2D1U,2.0,False,0.44,4,False,right,0.0,0.5085172000108287,1.125433899986092,0.6169166999752633,1.2750619999715127,1.775114299962297,0.5000522999907844,
89,0.5003,0.0,2,0.4503,0.6004,0.05,89,1.9179,-0.36,-0.1834,0.3169,5,1U1D,1.0,True,0.583,9,True,left,0.0,0.9914155000005849,1.3080231999629177,0.31660769996233284,0.4413032999727875,0.9413903999957256,0.5000871000229381,
90,0.5003,0.0,1,0.6337,0.5337,0.0917,90,2.1596,-0.2,-0.1001,0.4002,5,1D1U,2.0,True,1.649,7,True,right,0.0,0.6251696000108495,1.0250678000156768,0.39989820000482723,1.1251466000103392,1.6250725000281818,0.49992590001784265,
91,0.5003,0.0,1,0.4086,0.4336,0.542,91,2.0012,-0.768,-0.3836,0.1167,5,2U1D,2.0,True,0.991,6,True,right,0.0,0.399983000010252,0.516654999984894,0.11667199997464195,1.058287299994845,1.558508999994956,0.500221700000111,
92,0.5003,0.0,1,0.6421,0.5503,0.2918,92,2.3431,-0.288,-0.1418,0.3586,5,1U1D,2.0,True,1.316,10,True,right,0.0,0.6334314999985509,0.9915009000105783,0.3580694000120275,1.2833080000127666,1.7834568999824114,0.5001488999696448,
93,0.5003,0.0,2,0.5253,0.5337,0.5587,93,2.5099,-0.216,-0.1084,0.3919,5,1U1D,2.0,False,3.075,10,False,right,0.0,1.5745417000143789,1.9664169999887235,0.39187529997434467,0.5162467999616638,1.016285199963022,0.5000384000013582,
94,0.5003,0.0,1,0.4836,0.5837,0.8338,94,2.835,-0.128,-0.0667,0.4336,5,1D1U,2.0,True,2.391,8,True,right,0.0,0.47426450002240017,0.9076310000382364,0.4333665000158362,1.740935800014995,2.2411065000342205,0.5001707000192255,
95,0.5003,0.0,1,0.4836,0.5753,0.4669,95,2.1428,-0.768,-0.3836,0.1167,5,2U1D,2.0,True,3.016,6,True,right,0.0,0.4749953999998979,0.5916716000065207,0.11667620000662282,1.0579283999977633,1.558275900024455,0.5003475000266917,
96,0.5003,0.0,1,0.4669,0.5337,0.1334,96,2.2847,0.304,0.1501,0.6504,5,2D1U,2.0,False,2.866,5,True,right,0.0,0.4583868999616243,1.1083166999742389,0.6499298000126146,1.2419765999657102,1.7418164999689907,0.4998399000032805,
97,0.5003,0.0,2,0.617,0.4753,0.7421,97,3.0268,0.376,0.1918,0.6921,5,2D1U,2.0,True,1.824,5,False,right,0.0,1.8489051000215113,2.5408452000119723,0.691940099990461,0.6073062000214122,1.1073902000207454,0.5000839999993332,
98,0.5003,0.0,1,0.4669,0.4669,0.492,98,2.4014,-0.056,-0.025,0.4753,5,1D1U,2.0,True,2.499,8,False,right,0.0,0.45703429996501654,0.9320187999983318,0.47498450003331527,1.4239262999617495,1.9237392999930307,0.49981300003128126,
99,0.5003,0.0,2,0.4753,0.4586,0.6421,99,2.5849,0.016,0.0083,0.5086,5,1D1U,2.0,True,2.908,8,False,right,0.0,1.6073214000207372,2.1157365000108257,0.5084150999900885,0.46526189998257905,0.9654096000012942,0.5001477000187151,
100,0.5003,0.0,2,0.4669,0.592,0.2918,100,2.0011,-0.696,-0.3502,0.1501,5,2U1D,1.0,True,0.164,6,False,left,0.0,1.249974700040184,1.3998696000198834,0.1498948999796994,0.45829480001702905,0.9580340000102296,0.4997391999932006,
101,0.5003,0.0,1,0.4419,0.4086,0.5086,101,2.218,-0.288,-0.1418,0.3586,5,1U1D,1.0,False,1.442,11,True,left,0.0,0.43252119998214766,0.7909885999979451,0.35846740001579747,1.3075233999988995,1.807541099959053,0.5000176999601535,
102,0.5003,0.0,2,0.4419,0.567,0.2752,102,2.2597,-0.056,-0.025,0.4753,5,1D1U,2.0,False,0.366,8,False,right,0.0,1.207488399988506,1.6824536999920383,0.4749653000035323,0.4327924999524839,0.932214499975089,0.49942200002260506,
103,0.5003,0.0,1,0.517,0.4002,0.3335,103,2.1846,-0.128,-0.0667,0.4336,5,1D1U,1.0,False,0.933,9,True,left,0.0,0.5073519999859855,0.9410265000187792,0.43367450003279373,1.2742127000237815,1.7741355000180192,0.4999227999942377,
104,0.5003,0.0,1,0.4586,0.4086,0.3335,104,2.0179,-0.36,-0.1834,0.3169,5,1U1D,2.0,True,1.725,11,False,right,0.0,0.4496862000087276,0.7663828000077046,0.31669659999897704,1.0996452000108548,1.5999666000134312,0.5003214000025764,
105,0.5003,0.0,1,0.4336,0.4002,0.2668,105,1.751,-0.696,-0.3502,0.1501,5,2U1D,2.0,True,0.534,6,False,right,0.0,0.42436319997068495,0.5744238999905065,0.15006070001982152,0.8493997000041418,1.3494965999852866,0.5000968999811448,
106,0.5003,0.0,2,0.4753,0.5587,0.3502,106,2.5766,0.376,0.1918,0.6921,5,2D1U,2.0,True,0.916,5,False,right,0.0,1.3160504000261426,2.0077582000521943,0.6917078000260517,0.46610070002498105,0.9660550000262447,0.4999543000012636,
107,0.5003,0.0,1,0.6254,0.4836,0.4253,107,2.2264,-0.624,-0.3085,0.1918,5,2U1D,2.0,True,0.558,6,False,right,0.0,0.6163863000110723,0.8080543000251055,0.19166800001403317,1.2330642000306398,1.732951599988155,0.4998873999575153,
108,0.5003,0.0,1,0.4586,0.4419,0.6837,108,2.4847,-0.2,-0.1001,0.4002,5,1D1U,2.0,True,0.8,9,False,right,0.0,0.4496046000276692,0.849585100018885,0.39998049999121577,1.5328347000177018,2.0328376999823377,0.5000029999646358,
109,0.5003,0.0,1,0.6421,0.6004,0.8172,109,3.2104,0.304,0.1501,0.6504,5,2D1U,1.0,True,2.141,6,True,left,0.0,0.6335731000290252,1.2833134999964386,0.6497403999674134,2.108313900011126,2.608707800041884,0.5003939000307582,
110,0.5003,0.0,2,0.5337,0.4586,0.5837,110,2.4349,-0.288,-0.1418,0.3586,5,1U1D,1.0,True,0.858,12,True,left,0.0,1.6077703000046313,1.9660150000127032,0.35824470000807196,0.5244158999994397,1.0243949000141583,0.4999790000147186,
111,0.5003,0.0,2,0.6087,0.4253,0.6837,111,2.6099,-0.216,-0.1084,0.3919,5,1U1D,1.0,True,3.658,12,False,left,0.0,1.7829790000105277,2.1746736000059173,0.3916945999953896,0.6000818000175059,1.0998330999864265,0.49975129996892065,
112,0.5003,0.0,2,0.5003,0.4586,0.0,112,1.8845,-0.144,-0.075,0.4253,5,1U1D,2.0,False,1.266,12,False,right,0.0,0.9917452000081539,1.416731000004802,0.424985799996648,0.49160439998377115,0.9917452000081539,0.5001408000243828,
113,0.5003,0.0,2,0.4586,0.5253,0.3919,113,2.268,-0.216,-0.1084,0.3919,5,1U1D,2.0,False,1.566,13,True,right,0.0,1.3405994000495411,1.731933500035666,0.3913340999861248,0.4485558000160381,0.9483092000009492,0.4997533999849111,
114,0.5003,0.0,2,0.5253,0.5837,0.3335,114,2.3764,-0.128,-0.0667,0.4336,5,1D1U,2.0,False,1.024,10,True,right,0.0,1.348780700005591,1.7824124000035226,0.4336316999979317,0.5153993999701925,1.015321800019592,0.4999224000493996,
115,0.5003,0.0,2,0.5753,0.4169,0.4753,115,2.6182,0.304,0.1501,0.6504,5,2D1U,2.0,True,0.433,6,True,right,0.0,1.5404087000060827,2.1904986999579705,0.6500899999518879,0.565389099996537,1.0655239999759942,0.5001348999794573,
116,0.5003,0.0,2,0.4336,0.6004,0.1084,116,1.8345,-0.624,-0.3085,0.1918,5,2U1D,1.0,True,0.608,6,False,left,0.0,1.0334983000066131,1.2250749000231735,0.1915766000165604,0.4251166000030935,0.9247711999923922,0.49965459998929873,
117,0.5003,0.0,2,0.4419,0.567,0.6004,117,2.7266,0.232,0.1167,0.617,5,2D1U,2.0,True,0.174,6,False,right,0.0,1.532860899984371,2.1496784000191838,0.6168175000348128,0.43293190002441406,0.9331278000026941,0.5001958999782801,
118,0.5003,0.0,1,0.4503,0.4336,0.7838,118,2.3931,-0.552,-0.2752,0.2251,5,2U1D,2.0,True,0.741,6,False,right,0.0,0.4402584000490606,0.6653787000104785,0.2251202999614179,1.4484988000476733,1.9489594000042416,0.5004605999565683,
119,0.5003,0.0,1,0.6087,0.6087,0.5003,119,2.5766,-0.288,-0.1418,0.3586,5,1U1D,1.0,False,2.782,13,False,left,0.0,0.599454999959562,0.9573874999769032,0.3579325000173412,1.4659492999780923,1.966220100002829,0.5002708000247367,
120,0.5003,0.0,2,0.492,0.567,0.6504,120,2.5266,-0.36,-0.1834,0.3169,5,1U1D,1.0,True,2.3,13,False,left,0.0,1.633236899971962,1.949740199954249,0.316503299982287,0.48308259999612346,0.9832950999843888,0.5002124999882653,
121,0.5003,0.0,1,0.5253,0.542,0.7921,121,2.7599,-0.2,-0.1001,0.4002,5,1D1U,2.0,True,0.163,11,True,right,0.0,0.5137902999995276,0.9135681999614462,0.3997778999619186,1.705846400000155,2.205739099998027,0.4998926999978721,
122,0.5003,0.0,2,0.4586,0.5753,0.1584,122,2.1262,-0.128,-0.0667,0.4336,5,1D1U,2.0,False,1.383,12,True,right,0.0,1.1072920000297017,1.5404997000005096,0.4332076999708079,0.4489109000423923,0.9486996000050567,0.4997886999626644,
123,0.5003,0.0,1,0.4419,0.4253,0.1001,123,1.8678,-0.2,-0.1001,0.4002,5,1D1U,1.0,False,1.841,13,True,left,0.0,0.43173069995827973,0.8316641999990679,0.3999335000407882,0.9400775999529287,1.440150399983395,0.5000728000304662,
124,0.5003,0.0,1,0.6004,0.4503,0.6921,124,2.4682,-0.552,-0.2752,0.2251,5,2U1D,2.0,True,0.616,6,False,right,0.0,0.5915321999927983,0.8167216000147164,0.22518940002191812,1.5083953000139445,2.0083812000229955,0.49998590000905097,
125,0.5003,0.0,1,0.4336,0.567,0.0584,125,2.1763,0.232,0.1167,0.617,5,2D1U,1.0,True,1.258,6,False,left,0.0,0.4241477999603376,1.040874400001485,0.6167266000411473,1.0992832999909297,1.5993191999732517,0.500035899982322,
126,0.5003,0.0,1,0.567,0.5837,0.1668,126,2.1764,-0.288,-0.1418,0.3586,5,1U1D,2.0,True,1.717,14,True,right,0.0,0.5572438999661244,0.915533899969887,0.35829000000376254,1.0905722999596037,1.5906222999910824,0.5000500000314787,
127,0.5003,0.0,2,0.4669,0.5503,0.3169,127,2.2013,-0.272,-0.1334,0.3669,5,1D1U,2.0,False,4.967,13,False,right,0.0,1.2748117999872193,1.6413907999522053,0.366578999964986,0.4581227999879047,0.9582282999763265,0.5001054999884218,
128,0.5003,0.0,2,0.6004,0.5003,0.1251,128,2.118,-0.216,-0.1084,0.3919,5,1U1D,1.0,True,4.284,14,False,left,0.0,1.216609499999322,1.607772599963937,0.39116309996461496,0.5913293999619782,1.0912787999841385,0.49994940002216026,
129,0.5003,0.0,2,0.542,0.567,0.4503,129,2.3181,-0.48,-0.2418,0.2585,5,2U1D,1.0,True,0.292,6,False,left,0.0,1.4832006000215188,1.7418635000358336,0.2586629000143148,0.5333346999832429,1.033168800000567,0.4998341000173241,
130,0.5003,0.0,2,0.592,0.517,0.8338,130,3.0268,0.16,0.0834,0.5837,5,2D1U,2.0,True,0.161,6,False,right,0.0,1.9164234999916516,2.4994517999584787,0.583028299966827,0.5827117000008002,1.0829876000061631,0.5002759000053629,
131,0.5003,0.0,1,0.4669,0.4836,0.3085,131,2.0845,-0.344,-0.1751,0.3252,5,1D1U,2.0,True,1.316,13,False,right,0.0,0.4566542999818921,0.7819277999806218,0.3252734999987297,1.0900386999710463,1.589663999970071,0.4996252999990247,
132,0.5003,0.0,1,0.5587,0.4836,0.2418,132,2.2097,-0.144,-0.075,0.4253,5,1U1D,2.0,True,1.141,14,False,right,0.0,0.5487107999506406,0.9740613999892958,0.4253506000386551,1.2153524999739602,1.715595499961637,0.5002429999876767,
133,0.5003,0.0,1,0.4586,0.5086,0.8672,133,2.8016,-0.072,-0.0334,0.4669,5,1U1D,2.0,True,3.583,14,False,right,0.0,0.44896839995635673,0.9156437999918126,0.4666754000354558,1.7823699999717064,2.2824649999965914,0.5000950000248849,
134,0.5003,0.0,2,0.567,0.4836,0.6921,134,2.6099,-0.272,-0.1334,0.3669,5,1D1U,2.0,False,4.3,14,True,right,0.0,1.7497707000002265,2.116692800016608,0.3669221000163816,0.5581528000184335,1.0580829000100493,0.49993009999161586,
135,0.5003,0.0,1,0.5837,0.5086,0.8755,135,3.0518,0.16,0.0834,0.5837,5,2D1U,1.0,True,2.733,6,False,left,0.0,0.5751817999989726,1.1589160999865271,0.5837342999875546,2.0336159999715164,2.5333679000032134,0.499751900031697,
136,0.5003,0.0,1,0.4836,0.5337,0.1834,136,1.9595,-0.48,-0.2418,0.2585,5,2U1D,2.0,True,0.575,6,False,right,0.0,0.47441409999737516,0.7328338000224903,0.25841970002511516,0.9246623000362888,1.4251237999997102,0.5004614999634214,
137,0.5003,0.0,2,0.6004,0.4086,0.8755,137,2.6766,-0.408,-0.2001,0.2918,5,2U1D,1.0,True,3.108,6,False,left,0.0,1.9665442999685183,2.2578073000186123,0.291263000050094,0.5910949999815784,1.0910756000084803,0.4999806000269018,
138,0.5003,0.0,1,0.542,0.5753,0.2418,138,2.3597,-0.0,0.0,0.5003,5,1U1D,2.0,False,0.508,14,False,right,0.0,0.5329745000344701,1.0328918000450358,0.49991730001056567,1.282743500021752,1.7827848000451922,0.5000413000234403,
139,0.5003,0.0,2,0.5837,0.592,0.567,139,2.785,0.088,0.0417,0.542,5,2D1U,2.0,True,0.992,6,False,right,0.0,1.641315900022164,2.1835180000052787,0.5422020999831147,0.5743265000055544,1.0742709999904037,0.49994449998484924,
140,0.5003,0.0,1,0.5086,0.4836,0.6337,140,2.4514,-0.344,-0.1751,0.3252,5,1D1U,2.0,True,0.175,15,True,right,0.0,0.4994662999524735,0.8243517999653704,0.32488550001289696,1.4659589999937452,1.96588159998646,0.4999225999927148,
141,0.5003,0.0,2,0.4169,0.6337,0.6754,141,2.5181,-0.408,-0.2001,0.2918,5,2U1D,1.0,True,0.191,6,False,left,0.0,1.5826325000380166,1.8744570999988355,0.2918245999608189,0.4078043000190519,0.9075770000345074,0.4997727000154555,
142,0.5003,0.0,2,0.4419,0.4086,0.1001,142,1.9929,0.088,0.0417,0.542,5,2D1U,2.0,True,0.225,6,False,right,0.0,1.0324295000173151,1.5741003000293858,0.5416708000120707,0.4322231999831274,0.932288600015454,0.5000654000323266,
143,0.5003,0.0,2,0.517,0.517,0.5086,143,2.5515,0.016,0.0083,0.5086,5,2D1U,1.0,False,0.675,6,False,left,0.0,1.5165509000071324,2.0248961999895982,0.5083452999824658,0.5081974999629892,1.0081351000117138,0.49993760004872456,
144,0.5003,0.0,2,0.6087,0.5337,0.592,144,2.7767,0.088,0.0417,0.542,5,2D1U,2.0,True,0.161,7,True,right,0.0,1.6903612000169232,2.2319920000154525,0.5416307999985293,0.5987930000410415,1.0990171000012197,0.5002240999601781,
145,0.5003,0.0,2,0.5753,0.6421,0.5753,145,2.6599,-0.272,-0.1334,0.3669,5,1D1U,1.0,True,0.275,16,True,left,0.0,1.6403781999833882,2.0070433999644592,0.36666519998107105,0.565660799969919,1.0653560999780893,0.4996953000081703,
146,0.5003,0.0,2,0.5837,0.567,0.3502,146,2.3347,-0.336,-0.1668,0.3335,5,2U1D,1.0,True,2.775,6,False,left,0.0,1.4238926999969408,1.757321499986574,0.33342879998963326,0.5738605999504216,1.0739693999639712,0.5001088000135496,
147,0.5003,0.0,2,0.5253,0.4836,0.1334,147,2.0428,-0.2,-0.1001,0.4002,5,1D1U,1.0,True,1.159,16,False,left,0.0,1.1494049000320956,1.5494357999996282,0.4000308999675326,0.5158675999846309,1.0160249000182375,0.5001573000336066,
148,0.5003,0.0,1,0.4336,0.4253,0.8672,148,2.5599,-0.336,-0.1668,0.3335,5,2U1D,2.0,True,1.558,6,False,right,0.0,0.42326039995532483,0.7574966999818571,0.33423630002653226,1.623818299965933,2.123598199978005,0.4997799000120722,
149,0.5003,0.0,2,0.4503,0.4419,0.1834,149,2.0095,-0.128,-0.0667,0.4336,5,1D1U,1.0,True,0.658,16,False,left,0.0,1.1248992000473663,1.5584100999985822,0.43351089995121583,0.4415562000358477,0.9415189000428654,0.4999627000070177,
150,0.5003,0.0,2,0.5503,0.6087,0.5253,150,2.5515,-0.264,-0.1334,0.3669,5,2U1D,1.0,True,0.85,6,False,left,0.0,1.565918700012844,1.9326054999837652,0.36668679997092113,0.5412329999962822,1.0412707999930717,0.5000377999967895,
151,0.5003,0.0,1,0.4086,0.5503,0.3002,151,2.1263,-0.264,-0.1334,0.3669,5,2U1D,1.0,False,0.874,6,False,left,0.0,0.39914520003367215,0.7656219999771565,0.36647679994348437,1.0655705999815837,1.5659029000089504,0.5003323000273667,
152,0.5003,0.0,1,0.5587,0.5253,0.542,152,2.4598,-0.336,-0.1668,0.3335,5,2U1D,2.0,True,0.316,7,True,right,0.0,0.5500176000059582,0.883353800047189,0.33333620004123077,1.4251305000507273,1.9252554000122473,0.50012489996152,
153,0.5003,0.0,1,0.617,0.617,0.2668,153,2.3346,-0.336,-0.1668,0.3335,5,2U1D,2.0,True,0.883,7,True,right,0.0,0.6076150999870151,0.9410436999751255,0.33342859998811036,1.2077086999779567,1.7076468999730423,0.4999381999950856,
