,standardDur,audNoise,order,preDur,postDur,isiDur,trial_num,totalDur,delta_dur_percents,deltaDurS,testDurS,intensities,current_stair,responses,is_correct,response_rts,stair_num_reversal,stair_is_reversal,response_keys,conflictDur,recordedOnsetAudioTest,recordedOffsetAudioTest,recordedDurAudioTest,recordedOnsetVisualStandard,recordedOffsetVisualStandard,recordedDurVisualStandard,modalityPostCueTest
0,0.5,1.2,2,0.21667,0.35833,0.875,0,2.0,-0.9,-0.45,0.05,5,2D1U,2.0,False,0.017,0,False,right,0.0,0.000335542019456625,999,999,999,999,0,
1,0.5,0.1,2,0.325,0.3,0.40833,1,1.58333,-0.9,-0.45,0.05,5,lapse_rate,2.0,False,0.016,0,False,right,0.0,0.0002742920187301934,999,999,999,999,0,
2,0.5,0.1,2,0.24167,0.43333,0.74167,2,2.05,-0.74,-0.36667,0.13333,5,2D1U,1.0,True,0.017,0,False,left,0.0,0.00022116705076768994,999,999,999,999,0,
3,0.5,1.2,2,0.29167,0.3,0.83333,3,1.975,-0.9,-0.45,0.05,5,1D2U,1.0,True,0.016,0,False,left,0.0,0.00021533400285989046,999,999,999,999,0,
4,0.5,0.1,2,0.30833,0.39167,0.59167,4,1.84167,-0.9,-0.45,0.05,5,1D1U,2.0,False,0.017,0,False,right,0.0,0.00018679199274629354,999,999,999,999,0,
5,0.5,1.2,2,0.26667,0.44167,0.74167,5,2.00001,-0.9,-0.45,0.05,5,1D1U,1.0,True,0.017,0,False,left,0.0,0.0002483749995008111,999,999,999,999,0,
6,0.5,0.1,2,0.4,0.41667,0.5,6,1.86667,-0.9,-0.45,0.05,5,lapse_rate,1.0,True,0.016,0,False,left,0.0,0.00028370803920552135,999,999,999,999,0,
7,0.5,0.1,2,0.33333,0.40833,0.48333,7,1.85832,-0.74,-0.36667,0.13333,5,2D1U,1.0,True,0.017,0,False,left,0.0,0.00020100001711398363,999,999,999,999,0,
8,0.5,1.2,2,0.25,0.20833,0.51667,8,1.525,-0.9,-0.45,0.05,5,1D1U,2.0,False,0.016,0,False,right,0.0,0.00020374997984617949,999,999,999,999,0,
9,0.5,0.1,2,0.28333,0.21667,0.60833,9,1.74166,-0.74,-0.36667,0.13333,5,1D1U,2.0,False,0.016,0,False,right,0.0,0.00020100001711398363,999,999,999,999,0,
10,0.5,1.2,1,0.26667,0.3,0.65,10,1.76667,-0.9,-0.45,0.05,5,1D2U,1.0,False,0.017,0,False,left,0.0,0.00018758303485810757,999,999,999,999,0,
11,0.5,0.1,1,0.34167,0.24167,0.45,11,1.62501,-0.82,-0.40833,0.09167,5,2D1U,2.0,True,0.016,1,True,right,0.0,0.0002141659497283399,999,999,999,999,0,
12,0.5,0.1,1,0.375,0.28333,0.46667,12,2.575,0.9,0.45,0.95,5,lapse_rate,1.0,True,0.017,0,False,left,0.0,0.00020312500419095159,999,999,999,999,0,
13,0.5,1.2,1,0.24167,0.25833,0.5,13,1.59167,-0.82,-0.40833,0.09167,5,1D1U,2.0,True,0.017,1,True,right,0.0,0.00018966698553413153,999,999,999,999,0,
14,0.5,0.1,1,0.43333,0.39167,0.75,14,2.125,-0.9,-0.45,0.05,5,1D2U,2.0,True,0.017,0,False,right,0.0,0.0001770000089891255,999,999,999,999,0,
15,0.5,1.2,1,0.425,0.2,0.46667,15,1.8,-0.58,-0.29167,0.20833,5,1D1U,1.0,False,0.016,0,False,left,0.0,0.00019691599300131202,999,999,999,999,0,
16,0.5,0.1,1,0.44167,0.34167,0.725,16,2.05834,-0.9,-0.45,0.05,5,1D2U,2.0,True,0.017,0,False,right,0.0,0.0002007919829338789,999,999,999,999,0,
17,0.5,0.1,1,0.33333,0.31667,0.56667,17,2.66667,0.9,0.45,0.95,5,lapse_rate,1.0,True,0.017,0,False,left,0.0,0.0001674999948590994,999,999,999,999,0,
18,0.5,1.2,1,0.41667,0.43333,0.825,18,2.24167,-0.86,-0.43333,0.06667,5,1D1U,1.0,False,0.017,2,True,left,0.0,0.00017983396537601948,999,999,999,999,0,
19,0.5,0.1,1,0.31667,0.20833,0.41667,19,1.53334,-0.82,-0.40833,0.09167,5,2D1U,1.0,False,0.017,1,True,left,0.0,0.00019579194486141205,999,999,999,999,0,
20,0.5,1.2,2,0.28333,0.35833,0.48333,20,1.91666,-0.42,-0.20833,0.29167,5,1D1U,2.0,False,0.016,0,False,right,0.0,0.0001812089467421174,999,999,999,999,0,
21,0.5,0.1,2,0.35833,0.24167,0.88333,21,2.03333,-0.9,-0.45,0.05,5,1D2U,2.0,False,0.016,0,False,right,0.0,0.0001930839498527348,999,999,999,999,0,
22,0.5,1.2,2,0.30833,0.44167,0.83333,22,2.45,-0.26,-0.13333,0.36667,5,1D1U,1.0,True,0.016,0,False,left,0.0,0.0001760409795679152,999,999,999,999,0,
23,0.5,1.2,2,0.36667,0.25833,0.84167,23,2.91667,0.9,0.45,0.95,5,lapse_rate,2.0,True,0.016,0,False,right,0.0,0.00017791602294892073,999,999,999,999,0,
24,0.5,0.1,2,0.31667,0.29167,0.54167,24,1.75834,-0.78,-0.39167,0.10833,5,2D1U,2.0,False,0.016,2,True,right,0.0,0.00017966702580451965,999,999,999,999,0,
25,0.5,1.2,2,0.4,0.28333,0.75,25,2.025,-0.82,-0.40833,0.09167,5,1D1U,1.0,True,0.017,3,True,left,0.0,0.0001765829510986805,999,999,999,999,0,
26,0.5,0.1,2,0.38333,0.21667,0.64167,26,1.80834,-0.86,-0.43333,0.06667,5,1D1U,2.0,False,0.017,4,True,right,0.0,0.0001782919862307608,999,999,999,999,0,
27,0.5,1.2,2,0.425,0.26667,0.60833,27,1.93333,-0.74,-0.36667,0.13333,5,2D1U,1.0,True,0.017,2,False,left,0.0,0.0001658749533817172,999,999,999,999,0,
28,0.5,0.1,2,0.38333,0.29167,0.65833,28,2.16666,-0.34,-0.16667,0.33333,5,1D1U,1.0,True,0.063,1,True,left,0.0,0.0001765830093063414,999,999,999,999,0,
29,0.5,0.1,2,0.36667,0.31667,0.625,29,1.85834,-0.9,-0.45,0.05,5,lapse_rate,1.0,True,0.016,0,False,left,0.0,0.00017800001660361886,999,999,999,999,0,
30,0.5,1.2,1,0.33333,0.275,0.625,30,1.78333,-0.9,-0.45,0.05,5,1D2U,1.0,False,0.017,0,False,left,0.0,0.00020150002092123032,999,999,999,999,0,
31,0.5,0.1,1,0.39167,0.24167,0.78333,31,2.00834,-0.82,-0.40833,0.09167,5,1D1U,1.0,False,0.017,5,True,left,0.0,0.00020875001791864634,999,999,999,999,0,
32,0.5,1.2,1,0.39167,0.4,0.44167,32,2.02501,-0.42,-0.20833,0.29167,5,1D1U,1.0,False,0.017,1,False,left,0.0,0.00016474997391924262,999,999,999,999,0,
33,0.5,0.1,1,0.225,0.325,0.81667,33,1.95834,-0.82,-0.40833,0.09167,5,1D2U,1.0,False,0.015,1,True,left,0.0,0.0001710419892333448,999,999,999,999,0,
34,0.5,1.2,1,0.20833,0.35833,0.44167,34,1.64166,-0.74,-0.36667,0.13333,5,2D1U,1.0,False,0.016,2,False,left,0.0,0.00016658299136906862,999,999,999,999,0,
35,0.5,0.1,1,0.28333,0.35833,0.875,35,2.96666,0.9,0.45,0.95,5,lapse_rate,1.0,True,0.016,0,False,left,0.0,0.0002199580194428563,999,999,999,999,0,
36,0.5,0.1,1,0.275,0.33333,0.725,36,1.98333,-0.7,-0.35,0.15,5,2D1U,1.0,False,0.016,2,False,left,0.0,0.00019587500719353557,999,999,999,999,0,
37,0.5,1.2,1,0.35833,0.35,0.74167,37,2.25833,-0.38,-0.19167,0.30833,5,1D1U,1.0,False,0.017,2,True,left,0.0,0.00018604198703542352,999,999,999,999,0,
38,0.5,0.1,1,0.25833,0.4,0.70833,38,1.97499,-0.78,-0.39167,0.10833,5,1D1U,1.0,False,0.016,5,False,left,0.0,0.00019104202510789037,999,999,999,999,0,
39,0.5,1.2,1,0.39167,0.35,0.61667,39,1.95001,-0.82,-0.40833,0.09167,5,1D2U,1.0,False,0.016,1,True,left,0.0,0.00020695902639999986,999,999,999,999,0,
40,0.5,1.2,2,0.43333,0.25833,0.45833,40,1.69999,-0.9,-0.45,0.05,5,lapse_rate,2.0,False,0.016,0,False,right,0.0,0.00016233400674536824,999,999,999,999,0,
41,0.5,0.1,2,0.28333,0.34167,0.55,41,1.80833,-0.74,-0.36667,0.13333,5,1D1U,2.0,False,0.016,5,False,right,0.0,0.0001640830305404961,999,999,999,999,0,
42,0.5,1.2,2,0.375,0.20833,0.89167,42,2.30833,-0.34,-0.16667,0.33333,5,1D1U,2.0,False,0.016,2,False,right,0.0,0.00017583300359547138,999,999,999,999,0,
43,0.5,0.1,2,0.28333,0.28333,0.6,43,1.79999,-0.74,-0.36667,0.13333,5,1D2U,1.0,True,0.016,1,False,left,0.0,0.00016508297994732857,999,999,999,999,0,
44,0.5,0.1,2,0.36667,0.31667,0.5,44,1.73334,-0.9,-0.45,0.05,5,lapse_rate,1.0,True,0.015,0,False,left,0.0,0.0001788330264389515,999,999,999,999,0,
45,0.5,1.2,2,0.38333,0.3,0.63333,45,1.98333,-0.66,-0.33333,0.16667,5,2D1U,2.0,False,0.016,2,False,right,0.0,0.0001860829652287066,999,999,999,999,0,
46,0.5,0.1,2,0.29167,0.45,0.66667,46,2.25834,-0.3,-0.15,0.35,5,1D1U,1.0,True,0.015,2,False,left,0.0,0.00017666700296103954,999,999,999,999,0,
47,0.5,1.2,2,0.35833,0.35,0.84167,47,2.2,-0.7,-0.35,0.15,5,1D1U,1.0,True,0.016,5,False,left,0.0,0.00017379102064296603,999,999,999,999,0,
48,0.5,0.1,2,0.4,0.25833,0.425,48,1.69166,-0.78,-0.39167,0.10833,5,1D2U,1.0,True,0.017,2,True,left,0.0,0.0001663750153966248,999,999,999,999,0,
49,0.5,1.2,2,0.20833,0.39167,0.85,49,2.9,0.9,0.45,0.95,5,lapse_rate,2.0,True,0.015,0,False,right,0.0,0.00017695798305794597,999,999,999,999,0,
50,0.5,1.2,1,0.26667,0.36667,0.81667,50,2.14168,-0.62,-0.30833,0.19167,5,2D1U,1.0,False,0.017,2,False,left,0.0,0.00022879202151671052,999,999,999,999,0,
51,0.5,0.1,1,0.275,0.3,0.61667,51,1.9,-0.58,-0.29167,0.20833,5,2D1U,1.0,False,0.017,2,False,left,0.0,0.00024758302606642246,999,999,999,999,0,
52,0.5,1.2,1,0.40833,0.45,0.71667,52,2.16667,-0.82,-0.40833,0.09167,5,1D2U,1.0,False,0.017,2,False,left,0.0,0.00018733396427705884,999,999,999,999,0,
53,0.5,0.1,1,0.35833,0.43333,0.7,53,2.12499,-0.74,-0.36667,0.13333,5,1D1U,2.0,True,0.017,6,True,right,0.0,0.0001771249808371067,999,999,999,999,0,
54,0.5,1.2,1,0.425,0.20833,0.45,54,1.91666,-0.34,-0.16667,0.33333,5,1D1U,2.0,True,0.016,3,True,right,0.0,0.00018708297284319997,999,999,999,999,0,
55,0.5,0.1,1,0.25,0.20833,0.69167,55,1.7,-0.9,-0.45,0.05,5,lapse_rate,1.0,False,0.017,0,False,left,0.0,0.00018199998885393143,999,999,999,999,0,
56,0.5,0.1,1,0.24167,0.44167,0.525,56,2.01667,-0.38,-0.19167,0.30833,5,1D1U,1.0,False,0.016,3,False,left,0.0,0.0001663750153966248,999,999,999,999,0,
57,0.5,1.2,1,0.36667,0.425,0.71667,57,2.95834,0.9,0.45,0.95,5,lapse_rate,1.0,True,0.016,0,False,left,0.0,0.00018595799338072538,999,999,999,999,0,
58,0.5,1.2,1,0.40833,0.20833,0.40833,58,1.61666,-0.82,-0.40833,0.09167,5,1D2U,1.0,False,0.016,2,False,left,0.0,0.00018979195738211274,999,999,999,999,0,
59,0.5,0.1,1,0.23333,0.44167,0.48333,59,1.76666,-0.78,-0.39167,0.10833,5,1D1U,2.0,True,0.016,6,False,right,0.0,0.00020412501180544496,999,999,999,999,0,
60,0.5,1.2,2,0.41667,0.24167,0.45833,60,1.85,-0.54,-0.26667,0.23333,5,2D1U,2.0,False,0.017,2,False,right,0.0,0.00016954104648903012,999,999,999,999,0,
61,0.5,0.1,2,0.425,0.425,0.78333,61,2.38333,-0.5,-0.25,0.25,5,2D1U,2.0,False,0.016,2,False,right,0.0,0.0001877499744296074,999,999,999,999,0,
62,0.5,1.2,2,0.38333,0.30833,0.45833,62,1.98332,-0.34,-0.16667,0.33333,5,1D1U,2.0,False,0.016,4,True,right,0.0,0.00019491597777232528,999,999,999,999,0,
63,0.5,1.2,2,0.375,0.20833,0.50833,63,2.54166,0.9,0.45,0.95,5,lapse_rate,1.0,False,0.017,0,False,left,0.0,0.00020079099340364337,999,999,999,999,0,
64,0.5,0.1,2,0.4,0.225,0.75,64,1.98333,-0.78,-0.39167,0.10833,5,1D2U,2.0,False,0.017,3,True,right,0.0,0.00018104095943272114,999,999,999,999,0,
65,0.5,1.2,2,0.425,0.35,0.525,65,1.89167,-0.82,-0.40833,0.09167,5,1D1U,1.0,True,0.016,6,False,left,0.0,0.0001984169939532876,999,999,999,999,0,
66,0.5,1.2,2,0.35833,0.425,0.575,66,1.90833,-0.9,-0.45,0.05,5,lapse_rate,2.0,False,0.016,0,False,right,0.0,0.00018474995158612728,999,999,999,999,0,
67,0.5,0.1,2,0.29167,0.28333,0.85833,67,2.04166,-0.78,-0.39167,0.10833,5,1D2U,2.0,False,0.017,3,True,right,0.0,0.0001734999823383987,999,999,999,999,0,
68,0.5,1.2,2,0.25,0.225,0.89167,68,2.21667,-0.3,-0.15,0.35,5,1D1U,1.0,True,0.017,4,False,left,0.0,0.00019500002963468432,999,999,999,999,0,
69,0.5,0.1,2,0.29167,0.31667,0.725,69,2.10001,-0.46,-0.23333,0.26667,5,2D1U,2.0,False,0.017,2,False,right,0.0,0.00017691595712676644,999,999,999,999,0,
70,0.5,1.2,1,0.39167,0.20833,0.5,70,1.66667,-0.86,-0.43333,0.06667,5,1D1U,2.0,True,0.016,6,False,right,0.0,0.0001664580195210874,999,999,999,999,0,
71,0.5,0.1,1,0.31667,0.33333,0.41667,71,1.85834,-0.42,-0.20833,0.29167,5,2D1U,1.0,False,0.017,2,False,left,0.0,0.00016612501349300146,999,999,999,999,0,
72,0.5,1.2,1,0.33333,0.26667,0.775,72,2.825,0.9,0.45,0.95,5,lapse_rate,2.0,False,0.016,0,False,right,0.0,0.00018370803445577621,999,999,999,999,0,
73,0.5,1.2,1,0.41667,0.29167,0.60833,73,1.95,-0.74,-0.36667,0.13333,5,1D2U,2.0,True,0.017,3,False,right,0.0,0.00017858302453532815,999,999,999,999,0,
74,0.5,0.1,1,0.33333,0.275,0.41667,74,1.575,-0.9,-0.45,0.05,5,1D1U,2.0,True,0.016,6,False,right,0.0,0.00017737498274073005,999,999,999,999,0,
75,0.5,1.2,1,0.36667,0.43333,0.7,75,2.33333,-0.34,-0.16667,0.33333,5,1D1U,1.0,False,0.017,5,True,left,0.0,0.00016008300008252263,999,999,999,999,0,
76,0.5,1.2,1,0.275,0.41667,0.78333,76,2.925,0.9,0.45,0.95,5,lapse_rate,2.0,False,0.016,0,False,right,0.0,0.00019220798276364803,999,999,999,999,0,
77,0.5,0.1,1,0.26667,0.34167,0.68333,77,1.84167,-0.9,-0.45,0.05,5,1D1U,1.0,False,0.016,6,False,left,0.0,0.0001741250162012875,999,999,999,999,0,
78,0.5,1.2,1,0.425,0.25833,0.75833,78,2.04999,-0.78,-0.39167,0.10833,5,1D2U,2.0,True,0.017,4,True,right,0.0,0.00016983301611617208,999,999,999,999,0,
79,0.5,0.1,1,0.425,0.21667,0.40833,79,1.9,-0.3,-0.15,0.35,5,1D1U,1.0,False,0.03,6,True,left,0.0,0.00016612501349300146,999,999,999,999,0,
80,0.5,1.2,2,0.41667,0.24167,0.71667,80,2.18334,-0.38,-0.19167,0.30833,5,2D1U,1.0,True,0.016,2,False,left,0.0,0.00018508301582187414,999,999,999,999,0,
81,0.5,0.1,2,0.3,0.3,0.55833,81,2.025,-0.26,-0.13333,0.36667,5,1D1U,1.0,True,0.016,6,False,left,0.0,0.00017129204934462905,999,999,999,999,0,
82,0.5,1.2,2,0.26667,0.225,0.63333,82,2.575,0.9,0.45,0.95,5,lapse_rate,2.0,True,0.016,0,False,right,0.0,0.00016670901095494628,999,999,999,999,0,
83,0.5,1.2,2,0.31667,0.45,0.41667,83,1.99167,-0.38,-0.19167,0.30833,5,2D1U,1.0,True,0.017,2,False,left,0.0,0.000175250053871423,999,999,999,999,0,
84,0.5,0.1,2,0.30833,0.325,0.75833,84,1.95833,-0.86,-0.43333,0.06667,5,1D1U,2.0,False,0.017,7,True,right,0.0,0.00016650004545226693,999,999,999,999,0,
85,0.5,1.2,2,0.41667,0.3,0.75,85,2.05834,-0.82,-0.40833,0.09167,5,1D2U,1.0,True,0.016,4,False,left,0.0,0.0001716670230962336,999,999,999,999,0,
86,0.5,0.1,2,0.425,0.3,0.78333,86,2.3,-0.42,-0.20833,0.29167,5,2D1U,1.0,True,0.016,3,True,left,0.0,0.00019799999427050352,999,999,999,999,0,
87,0.5,1.2,2,0.35833,0.375,0.6,87,1.88333,-0.9,-0.45,0.05,5,lapse_rate,1.0,True,0.016,0,False,left,0.0,0.0001757090212777257,999,999,999,999,0,
88,0.5,1.2,2,0.20833,0.25,0.60833,88,1.63333,-0.86,-0.43333,0.06667,5,1D2U,2.0,False,0.016,4,False,right,0.0,0.00016762502491474152,999,999,999,999,0,
89,0.5,0.1,2,0.29167,0.36667,0.53333,89,2.04167,-0.3,-0.15,0.35,5,1D1U,1.0,True,0.016,7,True,left,0.0,0.00017579097766429186,999,999,999,999,0,
90,0.5,1.2,1,0.20833,0.25833,0.45833,90,1.51666,-0.82,-0.40833,0.09167,5,1D1U,2.0,True,0.016,7,False,right,0.0,0.0002145000034943223,999,999,999,999,0,
91,0.5,0.1,1,0.39167,0.275,0.50833,91,2.625,0.9,0.45,0.95,5,lapse_rate,2.0,False,0.017,0,False,right,0.0,0.0001771249808371067,999,999,999,999,0,
92,0.5,0.1,1,0.225,0.23333,0.7,92,1.725,-0.86,-0.43333,0.06667,5,1D1U,1.0,False,0.019,8,True,left,0.0,0.0001961250090971589,999,999,999,999,0,
93,0.5,1.2,1,0.3,0.425,0.44167,93,1.95834,-0.42,-0.20833,0.29167,5,2D1U,2.0,True,0.016,3,True,right,0.0,0.000189665996003896,999,999,999,999,0,
94,0.5,0.1,1,0.34167,0.3,0.45833,94,1.66667,-0.86,-0.43333,0.06667,5,1D2U,2.0,True,0.017,4,False,right,0.0,0.00016516598407179117,999,999,999,999,0,
95,0.5,1.2,1,0.24167,0.325,0.675,95,2.075,-0.34,-0.16667,0.33333,5,1D1U,1.0,False,0.017,7,False,left,0.0,0.00017125002341344953,999,999,999,999,0,
96,0.5,0.1,1,0.39167,0.40833,0.425,96,1.775,-0.9,-0.45,0.05,5,1D2U,1.0,False,0.016,4,False,left,0.0,0.00016970798606052995,999,999,999,999,0,
97,0.5,1.2,1,0.43333,0.375,0.55833,97,1.95833,-0.82,-0.40833,0.09167,5,1D1U,1.0,False,0.017,9,True,left,0.0,0.00016150000737980008,999,999,999,999,0,
98,0.5,1.2,1,0.35833,0.30833,0.78333,98,1.99999,-0.9,-0.45,0.05,5,lapse_rate,1.0,False,0.017,0,False,left,0.0,0.00022370897931978106,999,999,999,999,0,
99,0.5,0.1,1,0.25833,0.23333,0.54167,99,1.8,-0.46,-0.23333,0.26667,5,2D1U,2.0,True,0.017,3,False,right,0.0,0.0001739590079523623,999,999,999,999,0,
100,0.5,1.2,2,0.21667,0.35,0.56667,100,1.98334,-0.3,-0.15,0.35,5,1D1U,1.0,True,0.017,8,True,left,0.0,0.00017854099860414863,999,999,999,999,0,
101,0.5,0.1,2,0.2,0.35833,0.69167,101,2.08333,-0.34,-0.16667,0.33333,5,1D1U,2.0,False,0.016,9,True,right,0.0,0.0001877499744296074,999,999,999,999,0,
102,0.5,1.2,2,0.225,0.39167,0.41667,102,1.80001,-0.46,-0.23333,0.26667,5,2D1U,1.0,True,0.016,3,False,left,0.0,0.00019266700837761164,999,999,999,999,0,
103,0.5,1.2,2,0.20833,0.25833,0.71667,103,1.73333,-0.9,-0.45,0.05,5,lapse_rate,1.0,True,0.016,0,False,left,0.0,0.00019108300330117345,999,999,999,999,0,
104,0.5,0.1,2,0.43333,0.4,0.49167,104,1.875,-0.9,-0.45,0.05,5,1D2U,2.0,False,0.016,4,False,right,0.0,0.0001973329926840961,999,999,999,999,0,
105,0.5,1.2,2,0.25,0.26667,0.81667,105,1.94167,-0.78,-0.39167,0.10833,5,1D1U,1.0,True,0.017,9,False,left,0.0,0.0001805420033633709,999,999,999,999,0,
106,0.5,0.1,2,0.4,0.225,0.43333,106,1.80833,-0.5,-0.25,0.25,5,2D1U,2.0,False,0.016,3,False,right,0.0,0.000186417018994689,999,999,999,999,0,
107,0.5,1.2,2,0.33333,0.43333,0.625,107,1.98333,-0.82,-0.40833,0.09167,5,1D1U,2.0,False,0.016,10,True,right,0.0,0.0001793749979697168,999,999,999,999,0,
108,0.5,0.1,2,0.325,0.3,0.775,108,2.25,-0.3,-0.15,0.35,5,1D1U,2.0,False,0.016,10,True,right,0.0,0.00019525003153830767,999,999,999,999,0,
109,0.5,1.2,2,0.36667,0.38333,0.65,109,1.96667,-0.86,-0.43333,0.06667,5,1D2U,1.0,True,0.017,5,True,left,0.0,0.0001705830218270421,999,999,999,999,0,
110,0.5,0.1,1,0.425,0.3,0.44167,110,1.71667,-0.9,-0.45,0.05,5,lapse_rate,1.0,False,0.017,0,False,left,0.0,0.00016250001499429345,999,999,999,999,0,
111,0.5,0.1,1,0.23333,0.41667,0.875,111,2.075,-0.9,-0.45,0.05,5,1D2U,2.0,True,0.016,6,True,right,0.0,0.00015774997882544994,999,999,999,999,0,
112,0.5,1.2,1,0.4,0.44167,0.45,112,2.05834,-0.46,-0.23333,0.26667,5,2D1U,1.0,False,0.017,4,True,left,0.0,0.00016529200365766883,999,999,999,999,0,
113,0.5,0.1,1,0.30833,0.225,0.45833,113,2.44166,0.9,0.45,0.95,5,lapse_rate,1.0,True,0.016,0,False,left,0.0,0.0003244169638492167,999,999,999,999,0,
114,0.5,0.1,1,0.43333,0.41667,0.675,114,2.39167,-0.26,-0.13333,0.36667,5,1D1U,1.0,False,0.017,10,False,left,0.0,0.0002746250247582793,999,999,999,999,0,
115,0.5,1.2,1,0.30833,0.375,0.725,115,2.01666,-0.78,-0.39167,0.10833,5,1D1U,2.0,True,0.017,11,True,right,0.0,0.00019220903050154448,999,999,999,999,0,
116,0.5,0.1,1,0.28333,0.45,0.48333,116,2.10833,-0.22,-0.10833,0.39167,5,1D1U,1.0,False,0.016,10,False,left,0.0,0.00019245798466727138,999,999,999,999,0,
117,0.5,0.1,1,0.375,0.24167,0.65,117,1.81667,-0.9,-0.45,0.05,5,lapse_rate,2.0,True,0.017,0,False,right,0.0,0.00019458401948213577,999,999,999,999,0,
118,0.5,1.2,1,0.35,0.41667,0.49167,118,1.80834,-0.9,-0.45,0.05,5,1D2U,2.0,True,0.017,6,False,right,0.0,0.00018320803064852953,999,999,999,999,0,
119,0.5,0.1,1,0.31667,0.40833,0.50833,119,1.825,-0.82,-0.40833,0.09167,5,1D1U,2.0,True,0.016,12,True,right,0.0,0.00018916698172688484,999,999,999,999,0,
120,0.5,1.2,2,0.34167,0.41667,0.83333,120,2.38334,-0.42,-0.20833,0.29167,5,2D1U,1.0,True,0.016,4,False,left,0.0,0.0001971669844351709,999,999,999,999,0,
121,0.5,0.1,2,0.34167,0.23333,0.86667,121,2.00834,-0.86,-0.43333,0.06667,5,1D1U,2.0,False,0.017,12,False,right,0.0,0.00017162499716505408,999,999,999,999,0,
122,0.5,1.2,2,0.20833,0.41667,0.51667,122,1.69167,-0.9,-0.45,0.05,5,1D2U,2.0,False,0.016,6,False,right,0.0,0.00018687499687075615,999,999,999,999,0,
123,0.5,1.2,2,0.20833,0.35,0.53333,123,1.64166,-0.9,-0.45,0.05,5,lapse_rate,2.0,False,0.016,0,False,right,0.0,0.00018370902398601174,999,999,999,999,0,
124,0.5,0.1,2,0.45,0.24167,0.875,124,2.475,-0.18,-0.09167,0.40833,5,1D1U,2.0,False,0.017,10,False,right,0.0,0.00018441700376570225,999,999,999,999,0,
125,0.5,1.2,2,0.39167,0.425,0.86667,125,2.47501,-0.42,-0.20833,0.29167,5,2D1U,2.0,False,0.017,4,False,right,0.0,0.0001674999948590994,999,999,999,999,0,
126,0.5,0.1,2,0.3,0.29167,0.44167,126,1.96667,-0.14,-0.06667,0.43333,5,1D1U,2.0,False,0.017,10,False,right,0.0,0.00015416601672768593,999,999,999,999,0,
127,0.5,0.1,2,0.225,0.20833,0.85833,127,2.74166,0.9,0.45,0.95,5,lapse_rate,2.0,True,0.017,0,False,right,0.0,0.00016441696789115667,999,999,999,999,0,
128,0.5,1.2,2,0.35833,0.375,0.79167,128,2.075,-0.9,-0.45,0.05,5,1D2U,2.0,False,0.017,6,False,right,0.0,0.00015645800158381462,999,999,999,999,0,
129,0.5,0.1,2,0.4,0.21667,0.59167,129,2.01667,-0.38,-0.19167,0.30833,5,2D1U,2.0,False,0.017,4,False,right,0.0,0.00016079202760010958,999,999,999,999,0,
130,0.5,1.2,1,0.275,0.31667,0.75833,130,1.94167,-0.82,-0.40833,0.09167,5,1D1U,1.0,False,0.016,13,True,left,0.0,0.0002050829934887588,999,999,999,999,0,
131,0.5,0.1,1,0.35,0.43333,0.475,131,2.09166,-0.34,-0.16667,0.33333,5,2D1U,2.0,True,0.016,4,False,right,0.0,0.00016862503252923489,999,999,999,999,0,
132,0.5,1.2,1,0.38333,0.41667,0.49167,132,2.24167,-0.1,-0.05,0.45,5,1D1U,2.0,True,0.017,10,False,right,0.0,0.000188250036444515,999,999,999,999,0,
133,0.5,0.1,1,0.39167,0.38333,0.59167,133,1.93334,-0.86,-0.43333,0.06667,5,1D2U,2.0,True,0.017,7,True,right,0.0,0.0001793749979697168,999,999,999,999,0,
134,0.5,1.2,1,0.26667,0.34167,0.825,134,2.04167,-0.78,-0.39167,0.10833,5,1D1U,2.0,True,0.017,13,False,right,0.0,0.00017645902698859572,999,999,999,999,0,
135,0.5,0.1,1,0.29167,0.21667,0.41667,135,2.37501,0.9,0.45,0.95,5,lapse_rate,1.0,True,0.017,0,False,left,0.0,0.00017258396837860346,999,999,999,999,0,
136,0.5,0.1,1,0.44167,0.29167,0.44167,136,2.00834,-0.34,-0.16667,0.33333,5,2D1U,2.0,True,0.016,4,False,right,0.0,0.00017362501239404082,999,999,999,999,0,
137,0.5,1.2,1,0.44167,0.33333,0.45,137,1.81667,-0.82,-0.40833,0.09167,5,1D1U,2.0,True,0.017,14,True,right,0.0,0.00017654197290539742,999,999,999,999,0,
138,0.5,0.1,1,0.31667,0.225,0.525,138,1.61667,-0.9,-0.45,0.05,5,1D2U,2.0,True,0.017,8,True,right,0.0,0.00021233398001641035,999,999,999,999,0,
139,0.5,1.2,1,0.39167,0.35,0.575,139,1.86667,-0.9,-0.45,0.05,5,lapse_rate,2.0,True,0.017,0,False,right,0.0,0.00017245800700038671,999,999,999,999,0,
140,0.5,1.2,2,0.3,0.29167,0.74167,140,2.26667,-0.14,-0.06667,0.43333,5,1D1U,1.0,True,0.016,11,True,left,0.0,0.00021079200087115169,999,999,999,999,0,
141,0.5,0.1,2,0.24167,0.44167,0.40833,141,2.0,-0.18,-0.09167,0.40833,5,1D1U,1.0,True,0.016,11,False,left,0.0,0.00016779202269390225,999,999,999,999,0,
142,0.5,1.2,2,0.36667,0.225,0.79167,142,2.19167,-0.38,-0.19167,0.30833,5,2D1U,1.0,True,0.016,5,True,left,0.0,0.00017733400454744697,999,999,999,999,0,
143,0.5,0.1,2,0.375,0.275,0.74167,143,1.95834,-0.86,-0.43333,0.06667,5,1D1U,2.0,False,0.017,14,False,right,0.0,0.00016420905012637377,999,999,999,999,0,
144,0,0,0,0,0,0,0,0,0,0,0,0,0,0,0,0,0,0,0,0,0,0,0,0,0,0,0
145,0.5,1.2,2,0.25833,0.24167,0.71667,145,1.76667,-0.9,-0.45,0.05,5,1D2U,1.0,True,0.017,8,False,left,0.0,0.00017462496180087328,999,999,999,999,0,
146,0.5,0.1,2,0.40833,0.43333,0.65,146,2.29999,-0.38,-0.19167,0.30833,5,2D1U,2.0,False,0.017,5,True,right,0.0,0.00017558399122208357,999,999,999,999,0,
147,0.5,1.2,2,0.39167,0.31667,0.88333,147,2.48334,-0.22,-0.10833,0.39167,5,1D1U,2.0,False,0.017,11,False,right,0.0,0.0001878749462775886,999,999,999,999,0,
148,0.5,0.1,2,0.31667,0.35833,0.76667,148,1.99167,-0.9,-0.45,0.05,5,1D2U,2.0,False,0.017,8,False,right,0.0,0.00016745796892791986,999,999,999,999,0,
149,0.5,1.2,2,0.38333,0.39167,0.825,149,2.15,-0.9,-0.45,0.05,5,1D2U,1.0,True,0.017,8,False,left,0.0,0.00016679102554917336,999,999,999,999,0,
150,0.5,0.1,1,0.25833,0.3,0.81667,150,1.96667,-0.82,-0.40833,0.09167,5,1D1U,1.0,False,0.016,15,True,left,0.0,0.00020574999507516623,999,999,999,999,0,
151,0.5,1.2,1,0.4,0.225,0.63333,151,1.80833,-0.9,-0.45,0.05,5,1D2U,2.0,True,0.017,8,False,right,0.0,0.00017362501239404082,999,999,999,999,0,
152,0.5,0.1,1,0.4,0.40833,0.89167,152,2.53333,-0.34,-0.16667,0.33333,5,2D1U,2.0,True,0.025,6,True,right,0.0,0.00021791603649035096,999,999,999,999,0,
153,0.5,1.2,1,0.275,0.29167,0.66667,153,2.06667,-0.34,-0.16667,0.33333,5,2D1U,1.0,False,0.016,6,True,left,0.0,0.000264250033069402,999,999,999,999,0,
154,0.5,0.1,1,0.4,0.23333,0.51667,154,2.05833,-0.18,-0.09167,0.40833,5,1D1U,2.0,True,0.016,12,True,right,0.0,0.00019950000569224358,999,999,999,999,0,
155,0.5,1.2,1,0.35,0.425,0.71667,155,2.1,-0.78,-0.39167,0.10833,5,1D1U,2.0,True,0.017,15,False,right,0.0,0.0001776670105755329,999,999,999,999,0,
156,0.5,0.1,1,0.35833,0.26667,0.425,156,1.64167,-0.82,-0.40833,0.09167,5,1D1U,2.0,True,0.016,16,True,right,0.0,0.00022429198725149035,999,999,999,999,0,
157,0.5,1.2,1,0.33333,0.36667,0.46667,157,1.71667,-0.9,-0.45,0.05,5,1D2U,2.0,True,0.016,8,False,right,0.0,0.00018587498925626278,999,999,999,999,0,
158,0.5,0.1,1,0.34167,0.43333,0.56667,158,2.23334,-0.22,-0.10833,0.39167,5,1D1U,2.0,True,0.017,13,True,right,0.0,0.0001698340056464076,999,999,999,999,0,
159,0.5,1.2,1,0.33333,0.425,0.88333,159,2.49166,-0.3,-0.15,0.35,5,2D1U,2.0,True,0.017,6,False,right,0.0,0.00018350000027567148,999,999,999,999,0,
160,0.5,0.1,2,0.325,0.23333,0.60833,160,2.01666,-0.3,-0.15,0.35,5,2D1U,1.0,True,0.016,6,False,left,0.0,0.0001652080100029707,999,999,999,999,0,
161,0.5,1.2,2,0.31667,0.33333,0.83333,161,2.35,-0.26,-0.13333,0.36667,5,1D1U,2.0,False,0.017,13,False,right,0.0,0.00022929103579372168,999,999,999,999,0,
162,0.5,0.1,2,0.225,0.425,0.65833,162,2.14166,-0.34,-0.16667,0.33333,5,2D1U,1.0,True,0.017,7,True,left,0.0,0.00017499999376013875,999,999,999,999,0,
163,0.5,1.2,2,0.29167,0.23333,0.89167,163,1.96667,-0.9,-0.45,0.05,5,1D2U,1.0,True,0.017,8,False,left,0.0,0.00016279204282909632,999,999,999,999,0,
164,0.5,0.1,2,0.41667,0.25,0.79167,164,2.02501,-0.86,-0.43333,0.06667,5,1D1U,2.0,False,0.016,16,False,right,0.0,0.00017645902698859572,999,999,999,999,0,
165,0.5,1.2,2,0.225,0.225,0.86667,165,2.20834,-0.22,-0.10833,0.39167,5,1D1U,1.0,True,0.016,14,True,left,0.0,0.00015995895955711603,999,999,999,999,0,
166,0.5,0.1,2,0.39167,0.375,0.65833,166,2.25833,-0.34,-0.16667,0.33333,5,2D1U,1.0,True,0.016,7,True,left,0.0,0.00017212500097230077,999,999,999,999,0,
167,0.5,1.2,2,0.2,0.375,0.475,167,1.6,-0.9,-0.45,0.05,5,1D2U,1.0,True,0.016,8,False,left,0.0,0.0001991249737329781,999,999,999,999,0,
168,0.5,0.1,2,0.225,0.40833,0.54167,168,1.76667,-0.82,-0.40833,0.09167,5,1D1U,2.0,False,0.016,17,True,right,0.0,0.00016204098938032985,999,999,999,999,0,
169,0.5,1.2,2,0.44167,0.34167,0.65833,169,2.05,-0.78,-0.39167,0.10833,5,1D1U,1.0,True,0.016,17,False,left,0.0,0.0001798340235836804,999,999,999,999,0,
170,0.5,0.1,1,0.25,0.3,0.45833,170,1.875,-0.26,-0.13333,0.36667,5,1D1U,1.0,False,0.016,15,True,left,0.0,0.00019754102686420083,999,999,999,999,0,
171,0.5,1.2,1,0.36667,0.43333,0.86667,171,2.25834,-0.82,-0.40833,0.09167,5,1D1U,2.0,True,0.017,18,True,right,0.0,0.00017550005577504635,999,999,999,999,0,
172,0.5,0.1,1,0.36667,0.20833,0.45833,172,1.58333,-0.9,-0.45,0.05,5,1D2U,1.0,False,0.017,8,False,left,0.0,0.00018587498925626278,999,999,999,999,0,
173,0.5,1.2,1,0.30833,0.375,0.54167,173,1.775,-0.9,-0.45,0.05,5,1D2U,1.0,False,0.016,8,False,left,0.0,0.0002014170167967677,999,999,999,999,0,
174,0.5,0.1,1,0.39167,0.30833,0.75833,174,2.26666,-0.38,-0.19167,0.30833,5,2D1U,2.0,True,0.017,7,False,right,0.0,0.00017387501429766417,999,999,999,999,0,
175,0.5,1.2,1,0.36667,0.41667,0.825,175,2.50001,-0.22,-0.10833,0.39167,5,1D1U,2.0,True,0.017,16,True,right,0.0,0.00017841695807874203,999,999,999,999,0,
176,0.5,0.1,1,0.28333,0.375,0.86667,176,2.09167,-0.86,-0.43333,0.06667,5,1D2U,1.0,False,0.017,9,True,left,0.0,0.00019737501861527562,999,999,999,999,0,
177,0.5,1.2,1,0.36667,0.29167,0.51667,177,2.04168,-0.26,-0.13333,0.36667,5,1D1U,2.0,True,0.016,17,True,right,0.0,0.00018274999456480145,999,999,999,999,0,
178,0.5,0.1,1,0.325,0.31667,0.61667,178,2.06667,-0.38,-0.19167,0.30833,5,2D1U,1.0,False,0.017,7,False,left,0.0,0.00019754096865653992,999,999,999,999,0,
179,0.5,1.2,1,0.23333,0.40833,0.44167,179,1.91666,-0.34,-0.16667,0.33333,5,2D1U,1.0,False,0.016,8,True,left,0.0,0.00016729102935642004,999,999,999,999,0,
180,0.5,0.1,2,0.225,0.33333,0.75833,180,1.88333,-0.86,-0.43333,0.06667,5,1D1U,1.0,True,0.016,18,False,left,0.0,0.00015775003703311086,999,999,999,999,0,
181,0.5,1.2,2,0.44167,0.44167,0.89167,181,2.34168,-0.86,-0.43333,0.06667,5,1D2U,2.0,False,0.017,9,True,right,0.0,0.00015254196478053927,999,999,999,999,0,
182,0.5,0.1,2,0.23333,0.45,0.81667,182,2.35,-0.3,-0.15,0.35,5,2D1U,2.0,False,0.017,8,False,right,0.0,0.00015437498223036528,999,999,999,999,0,
183,0.5,1.2,2,0.43333,0.31667,0.725,183,2.325,-0.3,-0.15,0.35,5,1D1U,2.0,False,0.017,17,False,right,0.0,0.00015637499745935202,999,999,999,999,0,
184,0.5,0.1,2,0.26667,0.31667,0.88333,184,2.01667,-0.9,-0.45,0.05,5,1D1U,2.0,False,0.017,18,False,right,0.0,0.0001538749784231186,999,999,999,999,0,
185,0.5,1.2,2,0.28333,0.36667,0.45833,185,1.7,-0.82,-0.40833,0.09167,5,1D2U,2.0,False,0.017,9,False,right,0.0,0.0001812499831430614,999,999,999,999,0,
186,0.5,0.1,2,0.41667,0.25833,0.75,186,2.01667,-0.82,-0.40833,0.09167,5,1D2U,1.0,True,0.016,9,False,left,0.0,0.00016437500016763806,999,999,999,999,0,
187,0.5,1.2,2,0.45,0.38333,0.775,187,2.175,-0.86,-0.43333,0.06667,5,1D1U,2.0,False,0.016,19,True,right,0.0,0.00017258297884836793,999,999,999,999,0,
188,0.5,0.1,2,0.36667,0.41667,0.81667,188,2.46668,-0.26,-0.13333,0.36667,5,1D1U,2.0,False,0.017,18,True,right,0.0,0.00016283401055261493,999,999,999,999,0,
189,0.5,1.2,2,0.3,0.38333,0.65833,189,2.23333,-0.22,-0.10833,0.39167,5,1D1U,2.0,False,0.017,18,False,right,0.0,0.00017691601533442736,999,999,999,999,0,
190,0.5,0.1,1,0.225,0.39167,0.4,190,1.88334,-0.26,-0.13333,0.36667,5,2D1U,2.0,True,0.016,8,False,right,0.0,0.00021175004076212645,999,999,999,999,0,
191,0.5,1.2,1,0.225,0.36667,0.75833,191,2.25833,-0.18,-0.09167,0.40833,5,1D1U,1.0,False,0.017,18,False,left,0.0,0.00017629202920943499,999,999,999,999,0,
192,0.5,0.1,1,0.26667,0.36667,0.84167,192,2.34168,-0.26,-0.13333,0.36667,5,2D1U,1.0,False,0.017,8,False,left,0.0,0.00017375004244968295,999,999,999,999,0,
193,0.5,1.2,1,0.325,0.23333,0.78333,193,1.93333,-0.82,-0.40833,0.09167,5,1D1U,2.0,True,0.017,19,False,right,0.0,0.00017075001960620284,999,999,999,999,0,
194,0.5,0.1,1,0.23333,0.23333,0.61667,194,1.65,-0.86,-0.43333,0.06667,5,1D1U,1.0,False,0.017,20,True,left,0.0,0.00019220798276364803,999,999,999,999,0,
195,0.5,1.2,1,0.23333,0.28333,0.74167,195,1.825,-0.86,-0.43333,0.06667,5,1D2U,2.0,True,0.017,10,True,right,0.0,0.00022054195869714022,999,999,999,999,0,
196,0.5,0.1,1,0.4,0.40833,0.63333,196,2.33333,-0.22,-0.10833,0.39167,5,2D1U,1.0,False,0.017,8,False,left,0.0,0.00019391701789572835,999,999,999,999,0,
197,0.5,1.2,1,0.29167,0.23333,0.53333,197,1.65,-0.82,-0.40833,0.09167,5,1D1U,1.0,False,0.016,21,True,left,0.0,0.00017987500177696347,999,999,999,999,0,
198,0.5,0.1,1,0.375,0.31667,0.73333,198,1.975,-0.9,-0.45,0.05,5,1D2U,1.0,False,0.017,10,False,left,0.0,0.000191875034943223,999,999,999,999,0,
199,0.5,1.2,1,0.24167,0.45,0.71667,199,1.95834,-0.9,-0.45,0.05,5,1D2U,1.0,False,0.017,10,False,left,0.0,0.00017266598297283053,999,999,999,999,0,
200,0.5,0.1,2,0.40833,0.39167,0.51667,200,2.25,-0.14,-0.06667,0.43333,5,1D1U,1.0,True,0.016,18,False,left,0.0,0.00019579200306907296,999,999,999,999,0,
201,0.5,1.2,2,0.24167,0.325,0.725,201,2.2,-0.18,-0.09167,0.40833,5,1D1U,2.0,False,0.016,19,True,right,0.0,0.00020520796533674002,999,999,999,999,0,
202,0.5,0.1,2,0.24167,0.23333,0.8,202,1.88333,-0.78,-0.39167,0.10833,5,1D1U,2.0,False,0.017,21,False,right,0.0,0.00017425004625692964,999,999,999,999,0,
203,0.5,1.2,2,0.33333,0.43333,0.89167,203,2.225,-0.86,-0.43333,0.06667,5,1D2U,1.0,True,0.017,11,True,left,0.0,0.00015858298866078258,999,999,999,999,0,
204,0.5,0.1,2,0.325,0.28333,0.79167,204,2.30833,-0.18,-0.09167,0.40833,5,2D1U,2.0,False,0.016,8,False,right,0.0,0.00017391698202118278,999,999,999,999,0,
205,0.5,1.2,2,0.41667,0.35833,0.69167,205,2.4,-0.14,-0.06667,0.43333,5,1D1U,1.0,True,0.017,20,True,left,0.0,0.00016320799477398396,999,999,999,999,0,
206,0.5,0.1,2,0.44167,0.275,0.43333,206,1.78333,-0.74,-0.36667,0.13333,5,1D1U,2.0,False,0.017,21,False,right,0.0,0.00015820900443941355,999,999,999,999,0,
207,0.5,1.2,2,0.39167,0.425,0.825,207,2.55,-0.18,-0.09167,0.40833,5,1D1U,2.0,False,0.017,21,True,right,0.0,0.00016745802713558078,999,999,999,999,0,
208,0.5,0.1,2,0.25,0.21667,0.6,208,1.61667,-0.9,-0.45,0.05,5,1D2U,1.0,True,0.017,12,True,left,0.0,0.00022879202151671052,999,999,999,999,0,
209,0.5,1.2,2,0.33333,0.33333,0.74167,209,1.95833,-0.9,-0.45,0.05,5,1D2U,2.0,False,0.016,12,False,right,0.0,0.00016241602133959532,999,999,999,999,0,
210,0.5,0.1,1,0.31667,0.25,0.44167,210,1.94167,-0.14,-0.06667,0.43333,5,2D1U,1.0,False,0.017,8,False,left,0.0,0.00020633300300687551,999,999,999,999,0,
211,0.5,1.2,1,0.28333,0.43333,0.71667,211,2.08333,-0.7,-0.35,0.15,5,1D1U,2.0,True,0.017,21,False,right,0.0,0.00019537500338628888,999,999,999,999,0,
212,0.5,0.1,1,0.4,0.4,0.59167,212,2.325,-0.14,-0.06667,0.43333,5,1D1U,2.0,True,0.017,22,True,right,0.0,0.00017737504094839096,999,999,999,999,0,
213,0.5,1.2,1,0.36667,0.225,0.65,213,2.19167,-0.1,-0.05,0.45,5,2D1U,1.0,False,0.016,8,False,left,0.0,0.0001806250074878335,999,999,999,999,0,
214,0.5,0.1,1,0.29167,0.44167,0.5,214,2.20001,-0.06,-0.03333,0.46667,5,2D1U,1.0,False,0.016,8,False,left,0.0,0.00017845799447968602,999,999,999,999,0,
215,0.5,1.2,1,0.31667,0.43333,0.60833,215,1.90833,-0.9,-0.45,0.05,5,1D2U,2.0,True,0.016,12,False,right,0.0,0.0002084590378217399,999,999,999,999,0,
216,0.5,0.1,1,0.25,0.425,0.58333,216,1.89166,-0.74,-0.36667,0.13333,5,1D1U,1.0,False,0.017,22,True,left,0.0,0.00017054099589586258,999,999,999,999,0,
217,0.5,1.2,1,0.425,0.40833,0.56667,217,2.05,-0.7,-0.35,0.15,5,1D1U,1.0,False,0.016,23,True,left,0.0,0.0001753329997882247,999,999,999,999,0,
218,0.5,0.1,1,0.33333,0.44167,0.64167,218,2.325,-0.18,-0.09167,0.40833,5,1D1U,1.0,False,0.017,23,True,left,0.0,0.0001765000051818788,999,999,999,999,0,
219,0.5,1.2,1,0.25833,0.36667,0.49167,219,2.10834,-0.02,-0.00833,0.49167,5,2D1U,1.0,False,0.017,8,False,left,0.0,0.00016662495909258723,999,999,999,999,0,
220,0.5,0.1,2,0.2,0.35,0.66667,220,1.76667,-0.9,-0.45,0.05,5,1D2U,1.0,True,0.016,12,False,left,0.0,0.0001753329997882247,999,999,999,999,0,
221,0.5,1.2,2,0.375,0.2,0.425,221,2.00833,0.02,0.00833,0.50833,5,2D1U,1.0,False,0.017,8,False,left,0.0,0.00016333302482962608,999,999,999,999,0,
222,0.5,0.1,2,0.375,0.35,0.45833,222,1.85,-0.66,-0.33333,0.16667,5,1D1U,2.0,False,0.016,23,False,right,0.0,0.00017374998424202204,999,999,999,999,0,
223,0.5,1.2,2,0.21667,0.375,0.425,223,1.95,-0.14,-0.06667,0.43333,5,1D1U,2.0,False,0.017,24,True,right,0.0,0.00016370898811146617,999,999,999,999,0,
224,0.5,0.1,2,0.24167,0.325,0.73333,224,1.85,-0.9,-0.45,0.05,5,1D2U,2.0,False,0.016,12,False,right,0.0,0.00020662497263401747,999,999,999,999,0,
225,0.5,1.2,2,0.2,0.21667,0.86667,225,2.31667,0.06,0.03333,0.53333,5,2D1U,2.0,True,0.017,8,False,right,0.0,0.00016854197019711137,999,999,999,999,0,
226,0.5,0.1,2,0.275,0.24167,0.49167,226,1.70001,-0.62,-0.30833,0.19167,5,1D1U,1.0,True,0.017,23,False,left,0.0,0.00016620795940980315,999,999,999,999,0,
227,0.5,1.2,2,0.20833,0.41667,0.825,227,2.48333,0.06,0.03333,0.53333,5,2D1U,2.0,True,0.017,8,False,right,0.0,0.00015920901205390692,999,999,999,999,0,
228,0.5,0.1,2,0.24167,0.38333,0.58333,228,1.75833,-0.9,-0.45,0.05,5,1D2U,2.0,False,0.017,12,False,right,0.0,0.0001651250058785081,999,999,999,999,0,
229,0.5,1.2,2,0.21667,0.25833,0.54167,229,1.58334,-0.86,-0.43333,0.06667,5,1D2U,2.0,False,0.016,13,True,right,0.0,0.00019412499386817217,999,999,999,999,0,
230,0.5,0.1,1,0.36667,0.425,0.81667,230,2.55834,-0.1,-0.05,0.45,5,1D1U,1.0,False,0.017,24,False,left,0.0,0.0001794169656932354,999,999,999,999,0,
231,0.5,1.2,1,0.2,0.4,0.55,231,1.71667,-0.86,-0.43333,0.06667,5,1D2U,1.0,False,0.016,13,True,left,0.0,0.00018004101002588868,999,999,999,999,0,
232,0.5,0.1,1,0.35833,0.26667,0.84167,232,2.43334,-0.06,-0.03333,0.46667,5,1D1U,1.0,False,0.017,24,False,left,0.0,0.00017145799938589334,999,999,999,999,0,
233,0.5,1.2,1,0.25833,0.2,0.56667,233,1.69167,-0.66,-0.33333,0.16667,5,1D1U,2.0,True,0.017,24,True,right,0.0,0.00017004198161885142,999,999,999,999,0,
234,0.5,0.1,1,0.44167,0.35833,0.46667,234,2.275,0.02,0.00833,0.50833,5,2D1U,2.0,False,0.016,9,True,right,0.0,0.00016645900905132294,999,999,999,999,0,
235,0.5,1.2,1,0.33333,0.325,0.55833,235,1.80833,-0.82,-0.40833,0.09167,5,1D2U,2.0,True,0.017,13,False,right,0.0,0.0001848749816417694,999,999,999,999,0,
236,0.5,0.1,1,0.43333,0.35,0.63333,236,2.44999,0.06,0.03333,0.53333,5,2D1U,1.0,True,0.017,10,True,left,0.0,0.00016629096353426576,999,999,999,999,0,
237,0.5,1.2,1,0.33333,0.23333,0.41667,237,2.01666,0.06,0.03333,0.53333,5,2D1U,1.0,True,0.016,10,True,left,0.0,0.00020637497073039412,999,999,999,999,0,
238,0.5,0.1,1,0.29167,0.43333,0.55833,238,1.85,-0.86,-0.43333,0.06667,5,1D2U,1.0,False,0.017,14,True,left,0.0,0.00018520798766985536,999,999,999,999,0,
239,0.5,1.2,1,0.31667,0.31667,0.66667,239,1.95001,-0.7,-0.35,0.15,5,1D1U,1.0,False,0.017,24,False,left,0.0,0.00018333300249651074,999,999,999,999,0,
240,0.5,0.1,2,0.41667,0.24167,0.73333,240,2.38334,-0.02,-0.00833,0.49167,5,1D1U,1.0,True,0.016,24,False,left,0.0,0.0002850420423783362,999,999,999,999,0,
241,0.5,1.2,2,0.23333,0.375,0.55833,241,1.83333,-0.66,-0.33333,0.16667,5,1D1U,2.0,False,0.016,25,True,right,0.0,0.0003066250355914235,999,999,999,999,0,
242,0.5,0.1,2,0.41667,0.41667,0.43333,242,2.275,0.02,0.00833,0.50833,5,2D1U,2.0,True,0.017,11,True,right,0.0,0.00019749999046325684,999,999,999,999,0,
243,0.5,1.2,2,0.3,0.28333,0.45,243,1.6,-0.86,-0.43333,0.06667,5,1D2U,2.0,False,0.017,14,True,right,0.0,0.0001829999964684248,999,999,999,999,0,
244,0.5,0.1,2,0.31667,0.325,0.425,244,2.03334,-0.06,-0.03333,0.46667,5,1D1U,2.0,False,0.017,25,True,right,0.0,0.00018099998123943806,999,999,999,999,0,
245,0.5,1.2,2,0.43333,0.31667,0.475,245,1.91667,-0.62,-0.30833,0.19167,5,1D1U,1.0,True,0.017,25,False,left,0.0,0.00016979099018499255,999,999,999,999,0,
246,0.5,0.1,2,0.21667,0.31667,0.69167,246,1.89168,-0.66,-0.33333,0.16667,5,1D1U,1.0,True,0.017,26,True,left,0.0,0.0001948749995790422,999,999,999,999,0,
247,0.5,1.2,2,0.35,0.41667,0.625,247,2.38334,-0.02,-0.00833,0.49167,5,1D1U,2.0,False,0.017,26,True,right,0.0,0.0001752499956637621,999,999,999,999,0,
248,0.5,0.1,2,0.375,0.29167,0.75833,248,2.43333,0.02,0.00833,0.50833,5,2D1U,1.0,False,0.017,11,True,left,0.0,0.00017100002150982618,999,999,999,999,0,
249,0.5,1.2,2,0.23333,0.275,0.69167,249,2.23333,0.06,0.03333,0.53333,5,2D1U,1.0,False,0.017,12,True,left,0.0,0.00017249997472390532,999,999,999,999,0,
250,0.5,0.1,1,0.35,0.34167,0.58333,250,1.86667,-0.82,-0.40833,0.09167,5,1D2U,2.0,True,0.016,15,True,right,0.0,0.0001741659943945706,999,999,999,999,0,
251,0.5,1.2,1,0.41667,0.23333,0.51667,251,1.81667,-0.7,-0.35,0.15,5,1D1U,1.0,False,0.017,26,False,left,0.0,0.0001538749784231186,999,999,999,999,0,
252,0.5,0.1,1,0.44167,0.225,0.68333,252,1.91667,-0.86,-0.43333,0.06667,5,1D2U,2.0,True,0.016,16,True,right,0.0,0.00016666704323142767,999,999,999,999,0,
253,0.5,1.2,1,0.45,0.34167,0.64167,253,1.98334,-0.9,-0.45,0.05,5,1D2U,1.0,False,0.016,16,False,left,0.0,0.00018900004215538502,999,999,999,999,0,
254,0.5,0.1,1,0.33333,0.36667,0.48333,254,2.19166,0.02,0.00833,0.50833,5,1D1U,2.0,False,0.016,26,False,right,0.0,0.00018758297665044665,999,999,999,999,0,
255,0.5,1.2,1,0.33333,0.44167,0.825,255,2.65,0.1,0.05,0.55,5,2D1U,2.0,False,0.016,12,False,right,0.0,0.00025750003987923265,999,999,999,999,0,
256,0.5,0.1,1,0.30833,0.36667,0.76667,256,1.99167,-0.9,-0.45,0.05,5,1D2U,1.0,False,0.017,16,False,left,0.0,0.0001842500059865415,999,999,999,999,0,
257,0.5,1.2,1,0.3,0.21667,0.79167,257,1.87501,-0.86,-0.43333,0.06667,5,1D2U,1.0,False,0.016,17,True,left,0.0,0.00019808299839496613,999,999,999,999,0,
258,0.5,0.1,1,0.425,0.3,0.45,258,2.20833,0.06,0.03333,0.53333,5,1D1U,1.0,True,0.016,26,False,left,0.0,0.00016858300659805536,999,999,999,999,0,
259,0.5,1.2,1,0.25833,0.425,0.78333,259,2.53333,0.14,0.06667,0.56667,5,2D1U,1.0,True,0.017,12,False,left,0.0,0.0001680420245975256,999,999,999,999,0,
260,0.5,0.1,2,0.30833,0.25,0.43333,260,1.65833,-0.66,-0.33333,0.16667,5,1D1U,1.0,True,0.016,27,True,left,0.0,0.0001620420371182263,999,999,999,999,0,
261,0.5,1.2,2,0.40833,0.3,0.7,261,2.05833,-0.7,-0.35,0.15,5,1D1U,2.0,False,0.016,28,True,right,0.0,0.00017537502571940422,999,999,999,999,0,
262,0.5,0.1,2,0.45,0.425,0.7,262,2.64167,0.14,0.06667,0.56667,5,2D1U,1.0,False,0.016,12,False,left,0.0,0.00018274999456480145,999,999,999,999,0,
263,0.5,1.2,2,0.325,0.25,0.89167,263,2.03334,-0.86,-0.43333,0.06667,5,1D2U,1.0,True,0.016,17,True,left,0.0,0.00016962498193606734,999,999,999,999,0,
264,0.5,0.1,2,0.25,0.21667,0.64167,264,2.11667,0.02,0.00833,0.50833,5,1D1U,1.0,False,0.017,27,True,left,0.0,0.0001662500435486436,999,999,999,999,0,
265,0.5,1.2,2,0.275,0.29167,0.68333,265,1.91667,-0.66,-0.33333,0.16667,5,1D1U,1.0,True,0.017,29,True,left,0.0,0.00017591699725016952,999,999,999,999,0,
266,0.5,0.1,2,0.23333,0.325,0.54167,266,2.13333,0.06,0.03333,0.53333,5,1D1U,1.0,False,0.016,28,True,left,0.0,0.00021787500008940697,999,999,999,999,0,
267,0.5,1.2,2,0.2,0.425,0.60833,267,2.325,0.18,0.09167,0.59167,5,2D1U,2.0,True,0.016,12,False,right,0.0,0.00027779198717325926,999,999,999,999,0,
268,0.5,0.1,2,0.36667,0.25,0.75,268,2.01667,-0.7,-0.35,0.15,5,1D1U,2.0,False,0.016,30,True,right,0.0,0.00032454199390485883,999,999,999,999,0,
269,0.5,1.2,2,0.34167,0.2,0.85833,269,1.95,-0.9,-0.45,0.05,5,1D2U,2.0,False,0.017,18,True,right,0.0,0.00020374997984617949,999,999,999,999,0,
270,0.5,0.1,1,0.24167,0.375,0.53333,270,1.7,-0.9,-0.45,0.05,5,1D2U,2.0,True,0.016,18,True,right,0.0,0.0002276250161230564,999,999,999,999,0,
271,0.5,1.2,1,0.31667,0.20833,0.71667,271,1.90834,-0.66,-0.33333,0.16667,5,1D1U,1.0,False,0.016,31,True,left,0.0,0.0001976670464500785,999,999,999,999,0,
272,0.5,0.1,1,0.4,0.23333,0.525,272,1.85,-0.62,-0.30833,0.19167,5,1D1U,1.0,False,0.017,31,False,left,0.0,0.00018670898862183094,999,999,999,999,0,
273,0.5,1.2,1,0.34167,0.28333,0.85,273,2.525,0.1,0.05,0.55,5,1D1U,2.0,False,0.016,28,False,right,0.0,0.000189665996003896,999,999,999,999,0,
274,0.5,0.1,1,0.425,0.38333,0.525,274,1.88333,-0.9,-0.45,0.05,5,1D2U,1.0,False,0.017,18,False,left,0.0,0.00018354103667661548,999,999,999,999,0,
275,0.5,1.2,1,0.3,0.31667,0.54167,275,2.25001,0.18,0.09167,0.59167,5,2D1U,1.0,True,0.017,12,False,left,0.0,0.00017108296742662787,999,999,999,999,0,
276,0.5,0.1,1,0.4,0.25,0.875,276,2.075,-0.9,-0.45,0.05,5,1D2U,2.0,True,0.017,18,False,right,0.0,0.00017087504966184497,999,999,999,999,0,
277,0.5,1.2,1,0.31667,0.35833,0.50833,277,2.25,0.14,0.06667,0.56667,5,1D1U,2.0,False,0.017,28,False,right,0.0,0.00018870801432058215,999,999,999,999,0,
278,0.5,0.1,1,0.4,0.225,0.9,278,2.23333,-0.58,-0.29167,0.20833,5,1D1U,2.0,True,0.017,31,False,right,0.0,0.00018058402929455042,999,999,999,999,0,
279,0.5,1.2,1,0.28333,0.39167,0.725,279,2.09167,-0.62,-0.30833,0.19167,5,1D1U,2.0,True,0.017,32,True,right,0.0,0.00016895798034965992,999,999,999,999,0,
280,0.5,0.1,2,0.20833,0.36667,0.73333,280,2.375,0.14,0.06667,0.56667,5,2D1U,2.0,True,0.017,13,True,right,0.0,0.00020712497644126415,999,999,999,999,0,
281,0.5,1.2,2,0.39167,0.25,0.69167,281,2.40001,0.14,0.06667,0.56667,5,2D1U,2.0,True,0.017,13,True,right,0.0,0.00016808300279080868,999,999,999,999,0,
282,0.5,0.1,2,0.3,0.30833,0.775,282,2.05,-0.66,-0.33333,0.16667,5,1D1U,1.0,True,0.016,32,False,left,0.0,0.00018262502271682024,999,999,999,999,0,
283,0.5,1.2,2,0.20833,0.31667,0.76667,283,2.38334,0.18,0.09167,0.59167,5,1D1U,1.0,False,0.017,28,False,left,0.0,0.0001674999948590994,999,999,999,999,0,
284,0.5,0.1,2,0.43333,0.34167,0.75833,284,2.64166,0.22,0.10833,0.60833,5,1D1U,1.0,False,0.017,28,False,left,0.0,0.00018329196609556675,999,999,999,999,0,
285,0.5,1.2,2,0.41667,0.26667,0.83333,285,2.06667,-0.9,-0.45,0.05,5,1D2U,2.0,False,0.016,18,False,right,0.0,0.00016629195306450129,999,999,999,999,0,
286,0.5,0.1,2,0.44167,0.44167,0.66667,286,2.20001,-0.7,-0.35,0.15,5,1D1U,1.0,True,0.016,32,False,left,0.0,0.00018383300630375743,999,999,999,999,0,
287,0.5,1.2,2,0.375,0.225,0.85833,287,2.09166,-0.74,-0.36667,0.13333,5,1D1U,1.0,True,0.016,32,False,left,0.0,0.00018350000027567148,999,999,999,999,0,
288,0.5,0.1,2,0.4,0.29167,0.53333,288,1.775,-0.9,-0.45,0.05,5,1D2U,2.0,False,0.017,18,False,right,0.0,0.0001769589725881815,999,999,999,999,0,
289,0.5,1.2,2,0.40833,0.41667,0.75,289,2.70833,0.26,0.13333,0.63333,5,1D1U,2.0,True,0.017,28,False,right,0.0,0.000171625055372715,999,999,999,999,0,
290,0.5,0.1,1,0.325,0.44167,0.46667,290,2.28334,0.1,0.05,0.55,5,2D1U,1.0,True,0.016,13,False,left,0.0,0.000179541006218642,999,999,999,999,0,
291,0.5,1.2,1,0.2,0.36667,0.425,291,1.55834,-0.86,-0.43333,0.06667,5,1D2U,1.0,False,0.017,19,True,left,0.0,0.0001789579982869327,999,999,999,999,0,
292,0.5,0.1,1,0.41667,0.40833,0.575,292,1.96667,-0.86,-0.43333,0.06667,5,1D2U,1.0,False,0.017,19,True,left,0.0,0.00019129097927361727,999,999,999,999,0,
293,0.5,1.2,1,0.20833,0.29167,0.80833,293,2.41666,0.22,0.10833,0.60833,5,1D1U,2.0,False,0.017,29,True,right,0.0,0.0001627919846214354,999,999,999,999,0,
294,0.5,0.1,1,0.40833,0.28333,0.53333,294,1.83332,-0.78,-0.39167,0.10833,5,1D1U,1.0,False,0.017,32,False,left,0.0,0.00018929201178252697,999,999,999,999,0,
295,0.5,1.2,1,0.23333,0.43333,0.48333,295,2.19999,0.1,0.05,0.55,5,2D1U,2.0,False,0.017,13,False,right,0.0,0.00018079200526699424,999,999,999,999,0,
296,0.5,0.1,1,0.26667,0.28333,0.45833,296,1.6,-0.82,-0.40833,0.09167,5,1D2U,2.0,True,0.016,19,False,right,0.0,0.00018262502271682024,999,999,999,999,0,
297,0.5,1.2,1,0.375,0.36667,0.825,297,2.63334,0.14,0.06667,0.56667,5,2D1U,2.0,False,0.016,14,True,right,0.0,0.00019658298697322607,999,999,999,999,0,
298,0.5,0.1,1,0.23333,0.225,0.60833,298,1.69999,-0.74,-0.36667,0.13333,5,1D1U,1.0,False,0.016,33,True,left,0.0,0.00020658300491049886,999,999,999,999,0,
299,0.5,1.2,1,0.45,0.35,0.65833,299,2.10833,-0.7,-0.35,0.15,5,1D1U,2.0,True,0.017,33,False,right,0.0,0.00018733402248471975,999,999,999,999,0,
300,0.5,0.1,2,0.325,0.375,0.46667,300,2.3,0.26,0.13333,0.63333,5,1D1U,1.0,False,0.016,30,True,left,0.0,0.00019287498435005546,999,999,999,999,0,
301,0.5,1.2,2,0.34167,0.4,0.6,301,2.49167,0.3,0.15,0.65,5,1D1U,2.0,True,0.017,30,False,right,0.0,0.00017579103587195277,999,999,999,999,0,
302,0.5,0.1,2,0.31667,0.39167,0.59167,302,2.43334,0.26,0.13333,0.63333,5,1D1U,2.0,True,0.017,31,True,right,0.0,0.00018916703993454576,999,999,999,999,0,
303,0.5,1.2,2,0.24167,0.34167,0.40833,303,2.08334,0.18,0.09167,0.59167,5,2D1U,2.0,True,0.017,14,False,right,0.0,0.00017191702499985695,999,999,999,999,0,
304,0.5,0.1,2,0.24167,0.2,0.65833,304,1.66667,-0.86,-0.43333,0.06667,5,1D2U,2.0,False,0.016,20,True,right,0.0,0.00018279202049598098,999,999,999,999,0,
305,0.5,1.2,2,0.28333,0.39167,0.54167,305,1.85,-0.74,-0.36667,0.13333,5,1D1U,2.0,False,0.016,34,True,right,0.0,0.00018391699995845556,999,999,999,999,0,
306,0.5,0.1,2,0.34167,0.31667,0.76667,306,2.53334,0.22,0.10833,0.60833,5,1D1U,2.0,True,0.017,31,False,right,0.0,0.00016674998914822936,999,999,999,999,0,
307,0.5,1.2,2,0.35833,0.24167,0.78333,307,2.475,0.18,0.09167,0.59167,5,1D1U,2.0,True,0.017,31,False,right,0.0,0.00017679197480902076,999,999,999,999,0,
308,0.5,0.1,2,0.28333,0.20833,0.71667,308,2.3,0.18,0.09167,0.59167,5,2D1U,1.0,False,0.017,14,False,left,0.0,0.00017274997662752867,999,999,999,999,0,
309,0.5,1.2,2,0.33333,0.43333,0.51667,309,1.93333,-0.7,-0.35,0.15,5,1D1U,2.0,False,0.017,35,True,right,0.0,0.0002018750528804958,999,999,999,999,0,
310,0.5,0.1,1,0.35,0.20833,0.81667,310,1.94167,-0.86,-0.43333,0.06667,5,1D2U,1.0,False,0.016,20,True,left,0.0,0.000196165987290442,999,999,999,999,0,
311,0.5,1.2,1,0.425,0.225,0.54167,311,2.25834,0.14,0.06667,0.56667,5,1D1U,2.0,False,0.016,31,False,right,0.0,0.00017829204443842173,999,999,999,999,0,
312,0.5,0.1,1,0.41667,0.375,0.7,312,2.15834,-0.66,-0.33333,0.16667,5,1D1U,1.0,False,0.016,35,False,left,0.0,0.00017200002912431955,999,999,999,999,0,
313,0.5,1.2,1,0.35833,0.41667,0.55,313,2.01667,-0.62,-0.30833,0.19167,5,1D1U,2.0,True,0.017,35,False,right,0.0,0.00019212497863918543,999,999,999,999,0,
314,0.5,0.1,1,0.44167,0.3,0.61667,314,2.46667,0.22,0.10833,0.60833,5,2D1U,1.0,True,0.016,14,False,left,0.0,0.00019462499767541885,999,999,999,999,0,
315,0.5,1.2,1,0.225,0.28333,0.88333,315,1.98333,-0.82,-0.40833,0.09167,5,1D2U,2.0,True,0.017,21,True,right,0.0,0.00019754102686420083,999,999,999,999,0,
316,0.5,0.1,1,0.20833,0.225,0.64167,316,2.18333,0.22,0.10833,0.60833,5,2D1U,1.0,True,0.017,14,False,left,0.0,0.0001888750120997429,999,999,999,999,0,
317,0.5,1.2,1,0.4,0.43333,0.85,317,2.35,-0.66,-0.33333,0.16667,5,1D1U,1.0,False,0.017,36,True,left,0.0,0.000185375043656677,999,999,999,999,0,
318,0.5,0.1,1,0.375,0.33333,0.85833,318,2.65833,0.18,0.09167,0.59167,5,1D1U,1.0,True,0.017,32,True,left,0.0,0.0001663750153966248,999,999,999,999,0,
319,0.5,1.2,1,0.225,0.33333,0.56667,319,1.69167,-0.86,-0.43333,0.06667,5,1D2U,1.0,False,0.017,22,True,left,0.0,0.0001776249846443534,999,999,999,999,0,
320,0.5,0.1,2,0.375,0.30833,0.59167,320,2.36667,0.18,0.09167,0.59167,5,2D1U,2.0,True,0.016,15,True,right,0.0,0.00020358298206701875,999,999,999,999,0,
321,0.5,1.2,2,0.30833,0.34167,0.54167,321,1.75834,-0.86,-0.43333,0.06667,5,1D2U,1.0,True,0.016,22,True,left,0.0,0.00016962498193606734,999,999,999,999,0,
322,0.5,0.1,2,0.425,0.41667,0.88333,322,2.81667,0.18,0.09167,0.59167,5,2D1U,1.0,False,0.017,15,True,left,0.0,0.00017637497512623668,999,999,999,999,0,
323,0.5,1.2,2,0.35,0.25,0.53333,323,2.24166,0.22,0.10833,0.60833,5,2D1U,1.0,False,0.017,16,True,left,0.0,0.00016645895084366202,999,999,999,999,0,
324,0.5,0.1,2,0.39167,0.21667,0.55833,324,2.23334,0.14,0.06667,0.56667,5,1D1U,2.0,True,0.016,33,True,right,0.0,0.00018441700376570225,999,999,999,999,0,
325,0.5,1.2,2,0.40833,0.26667,0.89167,325,2.25834,-0.62,-0.30833,0.19167,5,1D1U,2.0,False,0.017,37,True,right,0.0,0.0001800000318326056,999,999,999,999,0,
326,0.5,0.1,2,0.26667,0.39167,0.70833,326,2.5,0.26,0.13333,0.63333,5,2D1U,2.0,True,0.017,16,False,right,0.0,0.00016979197971522808,999,999,999,999,0,
327,0.5,1.2,2,0.43333,0.30833,0.51667,327,2.30833,0.1,0.05,0.55,5,1D1U,1.0,False,0.017,33,False,left,0.0,0.00017308298265561461,999,999,999,999,0,
328,0.5,0.1,2,0.38333,0.35833,0.85833,328,2.14999,-0.9,-0.45,0.05,5,1D2U,2.0,False,0.017,22,False,right,0.0,0.00016495899762958288,999,999,999,999,0,
329,0.5,1.2,2,0.26667,0.43333,0.81667,329,2.06667,-0.9,-0.45,0.05,5,1D2U,1.0,True,0.017,22,False,left,0.0,0.00017574999947100878,999,999,999,999,0,
330,0.5,0.1,1,0.30833,0.38333,0.8,330,2.19999,-0.58,-0.29167,0.20833,5,1D1U,1.0,False,0.016,37,False,left,0.0,0.00018533301772549748,999,999,999,999,0,
331,0.5,1.2,1,0.44167,0.25,0.85833,331,2.1,-0.9,-0.45,0.05,5,1D2U,1.0,False,0.017,22,False,left,0.0,0.00017391698202118278,999,999,999,999,0,
332,0.5,0.1,1,0.41667,0.25833,0.64167,332,2.45,0.26,0.13333,0.63333,5,2D1U,1.0,True,0.017,16,False,left,0.0,0.00016654195496812463,999,999,999,999,0,
333,0.5,1.2,1,0.29167,0.375,0.76667,333,2.16667,-0.54,-0.26667,0.23333,5,1D1U,2.0,True,0.017,37,False,right,0.0,0.00018816703232005239,999,999,999,999,0,
334,0.5,0.1,1,0.3,0.24167,0.66667,334,2.27501,0.14,0.06667,0.56667,5,1D1U,2.0,False,0.017,34,True,right,0.0,0.00017570797353982925,999,999,999,999,0,
335,0.5,1.2,1,0.425,0.39167,0.40833,335,1.775,-0.9,-0.45,0.05,5,1D2U,1.0,False,0.017,22,False,left,0.0,0.00019395799608901143,999,999,999,999,0,
336,0.5,0.1,1,0.29167,0.21667,0.86667,336,2.46668,0.18,0.09167,0.59167,5,1D1U,2.0,False,0.017,34,False,right,0.0,0.00020408397540450096,999,999,999,999,0,
337,0.5,1.2,1,0.25,0.39167,0.70833,337,2.45833,0.22,0.10833,0.60833,5,2D1U,2.0,False,0.017,17,True,right,0.0,0.00018074997933581471,999,999,999,999,0,
338,0.5,0.1,1,0.31667,0.31667,0.6,338,1.80001,-0.86,-0.43333,0.06667,5,1D2U,2.0,True,0.017,23,True,right,0.0,0.00019162497483193874,999,999,999,999,0,
339,0.5,1.2,1,0.26667,0.23333,0.55,339,1.75833,-0.58,-0.29167,0.20833,5,1D1U,1.0,False,0.017,38,True,left,0.0,0.00017733301501721144,999,999,999,999,0,
340,0.5,0.1,2,0.29167,0.325,0.8,340,2.15,-0.54,-0.26667,0.23333,5,1D1U,2.0,False,0.016,39,True,right,0.0,0.0001853749854490161,999,999,999,999,0,
341,0.5,1.2,2,0.38333,0.2,0.44167,341,2.13333,0.22,0.10833,0.60833,5,1D1U,2.0,True,0.017,34,False,right,0.0,0.00016762502491474152,999,999,999,999,0,
342,0.5,0.1,2,0.36667,0.225,0.70833,342,1.85,-0.9,-0.45,0.05,5,1D2U,2.0,False,0.017,24,True,right,0.0,0.00017912499606609344,999,999,999,999,0,
343,0.5,1.2,2,0.25833,0.39167,0.63333,343,2.41666,0.26,0.13333,0.63333,5,2D1U,2.0,True,0.017,18,True,right,0.0,0.0001650839694775641,999,999,999,999,0,
344,0.5,0.1,2,0.26667,0.39167,0.76667,344,2.17501,-0.5,-0.25,0.25,5,1D1U,1.0,True,0.017,39,False,left,0.0,0.0001817920128814876,999,999,999,999,0,
345,0.5,1.2,2,0.21667,0.41667,0.825,345,2.55001,0.18,0.09167,0.59167,5,1D1U,2.0,True,0.017,35,True,right,0.0,0.00016570801381021738,999,999,999,999,0,
346,0.5,0.1,2,0.25833,0.24167,0.81667,346,2.05,-0.54,-0.26667,0.23333,5,1D1U,1.0,True,0.017,40,True,left,0.0,0.0001747499918565154,999,999,999,999,0,
347,0.5,1.2,2,0.35,0.34167,0.68333,347,2.44167,0.14,0.06667,0.56667,5,1D1U,1.0,False,0.017,35,False,left,0.0,0.0001616249792277813,999,999,999,999,0,
348,0.5,0.1,2,0.44167,0.40833,0.48333,348,1.88333,-0.9,-0.45,0.05,5,1D2U,2.0,False,0.017,24,True,right,0.0,0.00017841701628640294,999,999,999,999,0,
349,0.5,1.2,2,0.375,0.25,0.74167,349,2.5,0.26,0.13333,0.63333,5,2D1U,1.0,False,0.017,18,True,left,0.0,0.0001788749941624701,999,999,999,999,0,
350,0.5,0.1,1,0.29167,0.28333,0.41667,350,1.7,-0.58,-0.29167,0.20833,5,1D1U,1.0,False,0.016,40,False,left,0.0,0.0001645419979467988,999,999,999,999,0,
351,0.5,1.2,1,0.25833,0.28333,0.425,351,1.53333,-0.86,-0.43333,0.06667,5,1D2U,2.0,True,0.016,25,True,right,0.0,0.00018499995348975062,999,999,999,999,0,
352,0.5,0.1,1,0.375,0.45,0.74167,352,2.11667,-0.9,-0.45,0.05,5,1D2U,2.0,True,0.017,26,True,right,0.0,0.00016295898240059614,999,999,999,999,0,
353,0.5,1.2,1,0.39167,0.425,0.725,353,2.69167,0.3,0.15,0.65,5,2D1U,1.0,True,0.016,18,False,left,0.0,0.00018974998965859413,999,999,999,999,0,
354,0.5,0.1,1,0.4,0.225,0.70833,354,2.425,0.18,0.09167,0.59167,5,1D1U,2.0,False,0.017,36,True,right,0.0,0.00017504201969131827,999,999,999,999,0,
355,0.5,1.2,1,0.36667,0.39167,0.60833,355,2.1,-0.54,-0.26667,0.23333,5,1D1U,1.0,False,0.017,41,True,left,0.0,0.00017116701928898692,999,999,999,999,0,
356,0.5,0.1,1,0.39167,0.33333,0.60833,356,2.48333,0.3,0.15,0.65,5,2D1U,2.0,False,0.017,18,False,right,0.0,0.00016445800429210067,999,999,999,999,0,
357,0.5,1.2,1,0.29167,0.25833,0.41667,357,1.71667,-0.5,-0.25,0.25,5,1D1U,2.0,True,0.017,41,False,right,0.0,0.00016862503252923489,999,999,999,999,0,
358,0.5,0.1,1,0.35,0.325,0.59167,358,2.375,0.22,0.10833,0.60833,5,1D1U,1.0,True,0.017,36,False,left,0.0,0.000165749981533736,999,999,999,999,0,
359,0.5,1.2,1,0.20833,0.23333,0.89167,359,2.425,0.18,0.09167,0.59167,5,1D1U,1.0,True,0.017,37,True,left,0.0,0.00017179199494421482,999,999,999,999,0,
360,0.5,0.1,2,0.375,0.35833,0.78333,360,2.06666,-0.9,-0.45,0.05,5,1D2U,2.0,False,0.016,26,False,right,0.0,0.00020195904653519392,999,999,999,999,0,
361,0.5,1.2,2,0.35833,0.425,0.75,361,2.7,0.34,0.16667,0.66667,5,2D1U,2.0,True,0.017,18,False,right,0.0,0.000171166961081326,999,999,999,999,0,
362,0.5,0.1,2,0.30833,0.45,0.475,362,1.96666,-0.54,-0.26667,0.23333,5,1D1U,2.0,False,0.016,42,True,right,0.0,0.00016129203140735626,999,999,999,999,0,
363,0.5,1.2,2,0.34167,0.4,0.49167,363,2.30001,0.14,0.06667,0.56667,5,1D1U,1.0,False,0.017,37,False,left,0.0,0.0001670829951763153,999,999,999,999,0,
364,0.5,0.1,2,0.31667,0.25833,0.55833,364,1.68333,-0.9,-0.45,0.05,5,1D2U,2.0,False,0.017,26,False,right,0.0,0.00017558404942974448,999,999,999,999,0,
365,0.5,1.2,2,0.20833,0.28333,0.79167,365,1.85,-0.86,-0.43333,0.06667,5,1D2U,1.0,True,0.017,27,True,left,0.0,0.00019237498054280877,999,999,999,999,0,
366,0.5,0.1,2,0.4,0.30833,0.65,366,2.525,0.34,0.16667,0.66667,5,2D1U,2.0,True,0.017,18,False,right,0.0,0.00016629096353426576,999,999,999,999,0,
367,0.5,1.2,2,0.35833,0.43333,0.45,367,2.39166,0.3,0.15,0.65,5,2D1U,2.0,True,0.017,19,True,right,0.0,0.00016691599739715457,999,999,999,999,0,
368,0.5,0.1,2,0.28333,0.28333,0.85833,368,2.17499,-0.5,-0.25,0.25,5,1D1U,1.0,True,0.017,43,True,left,0.0,0.0001937079941853881,999,999,999,999,0,
369,0.5,1.2,2,0.425,0.25833,0.58333,369,1.81666,-0.9,-0.45,0.05,5,1D2U,1.0,True,0.017,28,True,left,0.0,0.00019300001440569758,999,999,999,999,0,
370,0.5,0.1,1,0.39167,0.20833,0.75833,370,2.45,0.18,0.09167,0.59167,5,1D1U,1.0,True,0.017,38,True,left,0.0,0.00020162505097687244,999,999,999,999,0,
371,0.5,1.2,1,0.45,0.375,0.6,371,2.575,0.3,0.15,0.65,5,2D1U,2.0,False,0.016,19,True,right,0.0,0.00017954205395653844,999,999,999,999,0,
372,0.5,0.1,1,0.225,0.325,0.49167,372,2.10834,0.14,0.06667,0.56667,5,1D1U,1.0,True,0.016,39,True,left,0.0,0.00018462497973814607,999,999,999,999,0,
373,0.5,1.2,1,0.33333,0.36667,0.89167,373,2.325,-0.54,-0.26667,0.23333,5,1D1U,2.0,True,0.017,44,True,right,0.0,0.00016795803094282746,999,999,999,999,0,
374,0.5,0.1,1,0.275,0.26667,0.88333,374,1.975,-0.9,-0.45,0.05,5,1D2U,1.0,False,0.016,28,False,left,0.0,0.00029983295826241374,999,999,999,999,0,
375,0.5,1.2,1,0.325,0.23333,0.775,375,2.5,0.34,0.16667,0.66667,5,2D1U,2.0,False,0.017,20,True,right,0.0,0.0002935410011559725,999,999,999,999,0,
376,0.5,0.1,1,0.45,0.35833,0.41667,376,1.93333,-0.58,-0.29167,0.20833,5,1D1U,2.0,True,0.016,44,False,right,0.0,0.00029079196974635124,999,999,999,999,0,
377,0.5,1.2,1,0.39167,0.2,0.86667,377,2.15001,-0.62,-0.30833,0.19167,5,1D1U,1.0,False,0.016,44,False,left,0.0,0.00021312496392056346,999,999,999,999,0,
378,0.5,0.1,1,0.325,0.25833,0.45,378,2.225,0.38,0.19167,0.69167,5,2D1U,1.0,True,0.017,20,False,left,0.0,0.00017216696869581938,999,999,999,999,0,
379,0.5,1.2,1,0.20833,0.30833,0.49167,379,2.05833,0.1,0.05,0.55,5,1D1U,1.0,True,0.017,39,False,left,0.0,0.00017416698392480612,999,999,999,999,0,
380,0.5,0.1,2,0.44167,0.41667,0.6,380,2.49167,0.06,0.03333,0.53333,5,1D1U,1.0,False,0.016,39,False,left,0.0,0.00020704197231680155,999,999,999,999,0,
381,0.5,1.2,2,0.44167,0.23333,0.65,381,2.51667,0.38,0.19167,0.69167,5,2D1U,1.0,False,0.017,20,False,left,0.0,0.0001700000138953328,999,999,999,999,0,
382,0.5,0.1,2,0.29167,0.36667,0.825,382,2.69167,0.42,0.20833,0.70833,5,2D1U,2.0,True,0.017,20,False,right,0.0,0.0001781670143827796,999,999,999,999,0,
383,0.5,1.2,2,0.25,0.20833,0.58333,383,1.74999,-0.58,-0.29167,0.20833,5,1D1U,1.0,True,0.017,45,True,left,0.0,0.00018404197180643678,999,999,999,999,0,
384,0.5,0.1,2,0.23333,0.39167,0.425,384,2.1,0.1,0.05,0.55,5,1D1U,1.0,False,0.017,40,True,left,0.0,0.00017320801271125674,999,999,999,999,0,
385,0.5,1.2,2,0.34167,0.23333,0.86667,385,2.50834,0.14,0.06667,0.56667,5,1D1U,1.0,False,0.017,40,False,left,0.0,0.00016766699263826013,999,999,999,999,0,
386,0.5,0.1,2,0.29167,0.25,0.8,386,2.43334,0.18,0.09167,0.59167,5,1D1U,2.0,True,0.017,40,False,right,0.0,0.00016629102174192667,999,999,999,999,0,
387,0.5,1.2,2,0.29167,0.21667,0.53333,387,2.10834,0.14,0.06667,0.56667,5,1D1U,2.0,True,0.017,41,True,right,0.0,0.0001909160055220127,999,999,999,999,0,
388,0.5,0.1,2,0.36667,0.325,0.41667,388,2.15834,0.1,0.05,0.55,5,1D1U,2.0,True,0.017,41,False,right,0.0,0.00016983301611617208,999,999,999,999,0,
