,standardDur,audNoise,order,preDur,postDur,isiDur,trial_num,totalDur,delta_dur_percents,deltaDurS,testDurS,intensities,current_stair,responses,is_correct,response_rts,stair_num_reversal,stair_is_reversal,response_keys,conflictDur,recordedOnsetAudioTest,recordedOffsetAudioTest,recordedDurAudioTest,recordedOnsetVisualStandard,recordedOffsetVisualStandard,recordedDurVisualStandard,modalityPostCueTest
0,0.5,1.2,2,0.41667,0.3,0.625,0,2.79167,0.9,0.45,0.95,5,1U1D,2.0,True,0.009,0,False,right,0.0,0.0002714580041356385,999,999,999,999,0,
1,0.5,0.1,2,0.275,0.29167,0.44167,1,2.45834,0.9,0.45,0.95,5,lapse_rate,1.0,False,0.017,0,False,left,0.0,0.00023233401589095592,999,999,999,999,0,
2,0.5,0.1,2,0.40833,0.36667,0.85,2,2.175,-0.9,-0.45,0.05,5,1D2U,1.0,True,0.017,0,False,left,0.0,0.00019237503875046968,999,999,999,999,0,
3,0.5,1.2,2,0.35833,0.38333,0.41667,3,1.70833,-0.9,-0.45,0.05,5,2D1U,2.0,False,0.017,0,False,right,0.0,0.00023816601606085896,999,999,999,999,0,
4,0.5,0.1,2,0.36667,0.24167,0.74167,4,2.80001,0.9,0.45,0.95,5,1U1D,1.0,False,0.017,0,False,left,0.0,0.00018191698472946882,999,999,999,999,0,
5,0.5,1.2,2,0.25833,0.20833,0.55,5,1.56666,-0.9,-0.45,0.05,5,1D1U,2.0,False,0.016,0,False,right,0.0,0.0002257919986732304,999,999,999,999,0,
6,0.5,0.1,2,0.29167,0.4,0.59167,6,1.83334,-0.9,-0.45,0.05,5,1D1U,1.0,True,0.017,0,False,left,0.0,0.00019762502051889896,999,999,999,999,0,
7,0.5,1.2,2,0.425,0.21667,0.71667,7,1.90834,-0.9,-0.45,0.05,5,1D2U,2.0,False,0.016,0,False,right,0.0,0.00018520798766985536,999,999,999,999,0,
8,0.5,1.2,2,0.39167,0.29167,0.83333,8,2.96667,0.9,0.45,0.95,5,lapse_rate,2.0,True,0.017,0,False,right,0.0,0.0001651669736020267,999,999,999,999,0,
9,0.5,0.1,2,0.41667,0.21667,0.49167,9,2.53334,0.82,0.40833,0.90833,5,1U1D,1.0,False,0.017,1,True,left,0.0,0.00021370797185227275,999,999,999,999,0,
10,0.5,1.2,1,0.33333,0.30833,0.55833,10,1.74999,-0.9,-0.45,0.05,5,2D1U,2.0,True,0.016,0,False,right,0.0,0.00019616703502833843,999,999,999,999,0,
11,0.5,0.1,1,0.25,0.2,0.59167,11,1.59167,-0.9,-0.45,0.05,5,1D2U,2.0,True,0.017,0,False,right,0.0,0.0002093329676426947,999,999,999,999,0,
12,0.5,1.2,1,0.38333,0.45,0.875,12,2.3,-0.82,-0.40833,0.09167,5,1D1U,1.0,False,0.017,1,True,left,0.0,0.00021425000159069896,999,999,999,999,0,
13,0.5,0.1,1,0.40833,0.43333,0.50833,13,2.71666,0.74,0.36667,0.86667,5,1U1D,1.0,True,0.017,1,False,left,0.0,0.00018954096594825387,999,999,999,999,0,
14,0.5,1.2,1,0.43333,0.25833,0.70833,14,2.03332,-0.74,-0.36667,0.13333,5,2D1U,2.0,True,0.017,0,False,right,0.0,0.00018137495499104261,999,999,999,999,0,
15,0.5,1.2,1,0.25833,0.325,0.625,15,1.75833,-0.9,-0.45,0.05,5,lapse_rate,2.0,True,0.017,0,False,right,0.0,0.00017499999376013875,999,999,999,999,0,
16,0.5,0.1,1,0.39167,0.43333,0.85,16,2.38333,-0.58,-0.29167,0.20833,5,2D1U,2.0,True,0.017,0,False,right,0.0,0.00020545796724036336,999,999,999,999,0,
17,0.5,1.2,1,0.36667,0.325,0.69167,17,2.77501,0.78,0.39167,0.89167,5,1U1D,2.0,False,0.017,2,True,right,0.0,0.00018758303485810757,999,999,999,999,0,
18,0.5,0.1,1,0.225,0.29167,0.64167,18,1.70834,-0.9,-0.45,0.05,5,1D2U,2.0,True,0.016,0,False,right,0.0,0.0001807080116122961,999,999,999,999,0,
19,0.5,1.2,1,0.23333,0.40833,0.64167,19,2.73333,0.9,0.45,0.95,5,lapse_rate,2.0,False,0.017,0,False,right,0.0,0.0001901250216178596,999,999,999,999,0,
20,0.5,1.2,2,0.39167,0.31667,0.8,20,2.07501,-0.86,-0.43333,0.06667,5,1D1U,2.0,False,0.016,2,True,right,0.0,0.00021058297716081142,999,999,999,999,0,
21,0.5,0.1,2,0.3,0.21667,0.63333,21,2.51667,0.74,0.36667,0.86667,5,1U1D,1.0,False,0.017,3,True,left,0.0,0.0001906250254251063,999,999,999,999,0,
22,0.5,0.1,2,0.41667,0.25,0.425,22,1.64167,-0.9,-0.45,0.05,5,lapse_rate,2.0,False,0.017,0,False,right,0.0,0.00021462503354996443,999,999,999,999,0,
23,0.5,1.2,2,0.44167,0.33333,0.85,23,2.41667,-0.42,-0.20833,0.29167,5,2D1U,2.0,False,0.017,0,False,right,0.0,0.00020479195518419147,999,999,999,999,0,
24,0.5,0.1,2,0.20833,0.39167,0.75833,24,1.95,-0.82,-0.40833,0.09167,5,1D2U,2.0,False,0.016,1,True,right,0.0,0.00018849998014047742,999,999,999,999,0,
25,0.5,1.2,2,0.3,0.23333,0.49167,25,1.575,-0.9,-0.45,0.05,5,1D1U,2.0,False,0.017,2,False,right,0.0,0.0002299580373801291,999,999,999,999,0,
26,0.5,0.1,2,0.25,0.45,0.63333,26,1.9,-0.86,-0.43333,0.06667,5,1D2U,2.0,False,0.017,2,True,right,0.0,0.00020774995209649205,999,999,999,999,0,
27,0.5,1.2,2,0.4,0.21667,0.53333,27,2.5,0.7,0.35,0.85,5,1U1D,1.0,False,0.017,3,False,left,0.0,0.00019591604359447956,999,999,999,999,0,
28,0.5,0.1,2,0.24167,0.36667,0.68333,28,1.84167,-0.9,-0.45,0.05,5,1D1U,1.0,True,0.017,2,False,left,0.0,0.0002127089537680149,999,999,999,999,0,
29,0.5,1.2,2,0.20833,0.3,0.60833,29,1.90833,-0.42,-0.20833,0.29167,5,2D1U,1.0,True,0.017,0,False,left,0.0,0.00021770794410258532,999,999,999,999,0,
30,0.5,0.1,1,0.4,0.20833,0.89167,30,2.95,0.9,0.45,0.95,5,lapse_rate,1.0,True,0.016,0,False,left,0.0,0.0002346669789403677,999,999,999,999,0,
31,0.5,0.1,1,0.20833,0.275,0.85833,31,2.20833,-0.26,-0.13333,0.36667,5,2D1U,2.0,True,0.017,0,False,right,0.0,0.00023616699036210775,999,999,999,999,0,
32,0.5,0.1,1,0.30833,0.225,0.48333,32,1.56666,-0.9,-0.45,0.05,5,lapse_rate,2.0,True,0.017,0,False,right,0.0,0.000224041985347867,999,999,999,999,0,
33,0.5,1.2,1,0.225,0.39167,0.875,33,2.04167,-0.9,-0.45,0.05,5,1D2U,2.0,True,0.016,2,False,right,0.0,0.00022741698194295168,999,999,999,999,0,
34,0.5,0.1,1,0.45,0.20833,0.475,34,2.46666,0.66,0.33333,0.83333,5,1U1D,2.0,False,0.017,3,False,right,0.0,0.00020041700918227434,999,999,999,999,0,
35,0.5,1.2,1,0.33333,0.23333,0.575,35,1.70833,-0.86,-0.43333,0.06667,5,1D1U,2.0,True,0.017,3,True,right,0.0,0.00020466698333621025,999,999,999,999,0,
36,0.5,0.1,1,0.39167,0.43333,0.575,36,2.70833,0.62,0.30833,0.80833,5,1U1D,2.0,False,0.017,3,False,right,0.0,0.0002353330492042005,999,999,999,999,0,
37,0.5,1.2,1,0.34167,0.34167,0.44167,37,1.67501,-0.9,-0.45,0.05,5,1D2U,1.0,False,0.016,2,False,left,0.0,0.00022137496853247285,999,999,999,999,0,
38,0.5,0.1,1,0.39167,0.24167,0.66667,38,1.89168,-0.82,-0.40833,0.09167,5,1D1U,2.0,True,0.016,3,False,right,0.0,0.0002049999893642962,999,999,999,999,0,
39,0.5,1.2,1,0.23333,0.225,0.46667,39,1.875,-0.1,-0.05,0.45,5,2D1U,1.0,False,0.016,0,False,left,0.0,0.000252624973654747,999,999,999,999,0,
40,0.5,0.1,2,0.4,0.21667,0.425,40,1.59167,-0.9,-0.45,0.05,5,lapse_rate,2.0,False,0.016,0,False,right,0.0,0.00021891598589718342,999,999,999,999,0,
41,0.5,0.1,2,0.275,0.35,0.64167,41,2.71667,0.9,0.45,0.95,5,lapse_rate,2.0,True,0.016,0,False,right,0.0,0.0001706660259515047,999,999,999,999,0,
42,0.5,0.1,2,0.28333,0.41667,0.66667,42,2.31667,-0.1,-0.05,0.45,5,2D1U,2.0,False,0.017,0,False,right,0.0,0.00019683304708451033,999,999,999,999,0,
43,0.5,1.2,2,0.24167,0.44167,0.6,43,1.83334,-0.9,-0.45,0.05,5,1D2U,2.0,False,0.017,2,False,right,0.0,0.00017141702119261026,999,999,999,999,0,
44,0.5,0.1,2,0.275,0.34167,0.675,44,2.58334,0.58,0.29167,0.79167,5,1U1D,2.0,True,0.017,3,False,right,0.0,0.00019649998284876347,999,999,999,999,0,
45,0.5,1.2,2,0.25833,0.20833,0.79167,45,1.86666,-0.78,-0.39167,0.10833,5,1D1U,2.0,False,0.017,3,False,right,0.0,0.00019054202130064368,999,999,999,999,0,
46,0.5,0.1,2,0.31667,0.29167,0.49167,46,2.40834,0.62,0.30833,0.80833,5,1U1D,1.0,False,0.016,4,True,left,0.0,0.00017320900224149227,999,999,999,999,0,
47,0.5,1.2,2,0.34167,0.29167,0.55833,47,2.1,-0.18,-0.09167,0.40833,5,2D1U,1.0,True,0.017,1,True,left,0.0,0.0001865419908426702,999,999,999,999,0,
48,0.5,0.1,2,0.375,0.375,0.50833,48,1.80833,-0.9,-0.45,0.05,5,1D2U,1.0,True,0.016,2,False,left,0.0,0.00021091703092679381,999,999,999,999,0,
49,0.5,1.2,2,0.21667,0.34167,0.9,49,2.05001,-0.82,-0.40833,0.09167,5,1D1U,2.0,False,0.017,4,True,right,0.0,0.00017829099670052528,999,999,999,999,0,
50,0.5,0.1,1,0.35833,0.20833,0.78333,50,1.89999,-0.9,-0.45,0.05,5,lapse_rate,1.0,False,0.016,0,False,left,0.0,0.0002216249704360962,999,999,999,999,0,
51,0.5,0.1,1,0.225,0.29167,0.66667,51,1.75001,-0.86,-0.43333,0.06667,5,1D1U,2.0,True,0.017,4,False,right,0.0,0.00019187497673556209,999,999,999,999,0,
52,0.5,0.1,1,0.38333,0.38333,0.71667,52,2.03333,-0.9,-0.45,0.05,5,lapse_rate,1.0,False,0.017,0,False,left,0.0,0.00021745904814451933,999,999,999,999,0,
53,0.5,1.2,1,0.41667,0.39167,0.70833,53,2.06667,-0.9,-0.45,0.05,5,1D2U,1.0,False,0.016,2,False,left,0.0,0.0002168749924749136,999,999,999,999,0,
54,0.5,0.1,1,0.30833,0.25,0.83333,54,2.68333,0.58,0.29167,0.79167,5,1U1D,1.0,True,0.017,5,True,left,0.0,0.00019525003153830767,999,999,999,999,0,
55,0.5,1.2,1,0.35833,0.325,0.65,55,2.26666,-0.14,-0.06667,0.43333,5,2D1U,1.0,False,0.016,2,True,left,0.0,0.00019991700537502766,999,999,999,999,0,
56,0.5,0.1,1,0.36667,0.375,0.56667,56,1.85834,-0.9,-0.45,0.05,5,1D2U,2.0,True,0.016,2,False,right,0.0,0.00020041700918227434,999,999,999,999,0,
57,0.5,1.2,1,0.20833,0.45,0.80833,57,2.05833,-0.82,-0.40833,0.09167,5,1D1U,2.0,True,0.017,5,True,right,0.0,0.00019204203272238374,999,999,999,999,0,
58,0.5,0.1,1,0.36667,0.45,0.83333,58,2.95833,0.62,0.30833,0.80833,5,1U1D,1.0,True,0.016,6,True,left,0.0,0.00021041696891188622,999,999,999,999,0,
59,0.5,1.2,1,0.21667,0.275,0.79167,59,2.21667,-0.14,-0.06667,0.43333,5,2D1U,1.0,False,0.017,2,True,left,0.0,0.0001931249862536788,999,999,999,999,0,
60,0.5,0.1,2,0.24167,0.30833,0.88333,60,1.98333,-0.9,-0.45,0.05,5,lapse_rate,2.0,False,0.016,0,False,right,0.0,0.0001943330280482769,999,999,999,999,0,
61,0.5,0.1,2,0.31667,0.325,0.65,61,1.9,-0.78,-0.39167,0.10833,5,1D1U,1.0,True,0.017,5,False,left,0.0,0.00025037501472979784,999,999,999,999,0,
62,0.5,1.2,2,0.425,0.41667,0.69167,62,2.08334,-0.9,-0.45,0.05,5,1D2U,2.0,False,0.017,2,False,right,0.0,0.00017866597045212984,999,999,999,999,0,
63,0.5,0.1,2,0.20833,0.39167,0.46667,63,2.4,0.66,0.33333,0.83333,5,1U1D,2.0,True,0.016,6,False,right,0.0,0.00018791697220876813,999,999,999,999,0,
64,0.5,1.2,2,0.34167,0.34167,0.51667,64,2.10834,-0.18,-0.09167,0.40833,5,2D1U,1.0,True,0.017,3,True,left,0.0,0.00020166696049273014,999,999,999,999,0,
65,0.5,1.2,2,0.26667,0.225,0.64167,65,1.68334,-0.9,-0.45,0.05,5,lapse_rate,1.0,True,0.016,0,False,left,0.0,0.00024208298418670893,999,999,999,999,0,
66,0.5,0.1,2,0.35,0.25,0.68333,66,2.21666,-0.14,-0.06667,0.43333,5,2D1U,1.0,True,0.017,4,True,left,0.0,0.00018858298426494002,999,999,999,999,0,
67,0.5,1.2,2,0.23333,0.44167,0.65833,67,1.88333,-0.9,-0.45,0.05,5,lapse_rate,2.0,False,0.017,0,False,right,0.0,0.0001812499831430614,999,999,999,999,0,
68,0.5,1.2,2,0.44167,0.26667,0.56667,68,1.90834,-0.74,-0.36667,0.13333,5,1D1U,1.0,True,0.016,5,False,left,0.0,0.0001966250129044056,999,999,999,999,0,
69,0.5,0.1,2,0.44167,0.31667,0.74167,69,2.05001,-0.9,-0.45,0.05,5,1D2U,1.0,True,0.017,2,False,left,0.0,0.00019491597777232528,999,999,999,999,0,
70,0.5,1.2,1,0.425,0.44167,0.625,70,2.84167,0.7,0.35,0.85,5,1U1D,1.0,True,0.017,6,False,left,0.0,0.00017729203682392836,999,999,999,999,0,
71,0.5,0.1,1,0.30833,0.25833,0.48333,71,1.69999,-0.7,-0.35,0.15,5,1D1U,1.0,False,0.016,5,False,left,0.0,0.00022537499899044633,999,999,999,999,0,
72,0.5,1.2,1,0.2,0.23333,0.8,72,1.78333,-0.9,-0.45,0.05,5,lapse_rate,1.0,False,0.016,0,False,left,0.0,0.00020229199435561895,999,999,999,999,0,
73,0.5,1.2,1,0.25833,0.33333,0.78333,73,2.32499,-0.1,-0.05,0.45,5,2D1U,1.0,False,0.016,4,False,left,0.0,0.00021337502403184772,999,999,999,999,0,
74,0.5,0.1,1,0.33333,0.25,0.76667,74,2.71667,0.74,0.36667,0.86667,5,1U1D,1.0,True,0.017,6,False,left,0.0,0.00020329200197011232,999,999,999,999,0,
75,0.5,1.2,1,0.2,0.4,0.78333,75,1.93333,-0.9,-0.45,0.05,5,1D2U,2.0,True,0.017,2,False,right,0.0,0.0002300000051036477,999,999,999,999,0,
76,0.5,0.1,1,0.44167,0.41667,0.65,76,2.14167,-0.74,-0.36667,0.13333,5,1D1U,1.0,False,0.016,6,True,left,0.0,0.0001919170026667416,999,999,999,999,0,
77,0.5,1.2,1,0.34167,0.36667,0.83333,77,2.49167,-0.1,-0.05,0.45,5,2D1U,2.0,True,0.017,4,False,right,0.0,0.000200167007278651,999,999,999,999,0,
78,0.5,1.2,1,0.23333,0.30833,0.9,78,1.99166,-0.9,-0.45,0.05,5,lapse_rate,2.0,True,0.017,0,False,right,0.0,0.00018637499306350946,999,999,999,999,0,
79,0.5,0.1,1,0.34167,0.38333,0.40833,79,1.7,-0.86,-0.43333,0.06667,5,1D2U,2.0,True,0.016,3,True,right,0.0,0.00019662495469674468,999,999,999,999,0,
80,0.5,1.2,2,0.325,0.36667,0.575,80,2.65834,0.78,0.39167,0.89167,5,1U1D,1.0,False,0.016,6,False,left,0.0,0.0002174580004066229,999,999,999,999,0,
81,0.5,0.1,2,0.40833,0.425,0.85,81,3.05,0.74,0.36667,0.86667,5,1U1D,2.0,True,0.016,7,True,right,0.0,0.00018700002692639828,999,999,999,999,0,
82,0.5,1.2,2,0.325,0.4,0.45,82,2.14167,-0.06,-0.03333,0.46667,5,2D1U,2.0,False,0.017,4,False,right,0.0,0.00017850002041086555,999,999,999,999,0,
83,0.5,0.1,2,0.36667,0.33333,0.85,83,2.15833,-0.78,-0.39167,0.10833,5,1D1U,2.0,False,0.017,6,False,right,0.0,0.00021754199406132102,999,999,999,999,0,
84,0.5,1.2,2,0.20833,0.25,0.5,84,1.525,-0.86,-0.43333,0.06667,5,1D2U,2.0,False,0.016,3,True,right,0.0,0.00024437502725049853,999,999,999,999,0,
85,0.5,1.2,2,0.275,0.4,0.48333,85,2.60833,0.9,0.45,0.95,5,lapse_rate,2.0,True,0.017,0,False,right,0.0,0.00022987497504800558,999,999,999,999,0,
86,0.5,0.1,2,0.24167,0.24167,0.65,86,2.10001,-0.06,-0.03333,0.46667,5,2D1U,2.0,False,0.016,4,False,right,0.0,0.0003012910019606352,999,999,999,999,0,
87,0.5,1.2,2,0.25833,0.33333,0.43333,87,2.47499,0.9,0.45,0.95,5,lapse_rate,1.0,False,0.016,0,False,left,0.0,0.00019733398221433163,999,999,999,999,0,
88,0.5,1.2,2,0.34167,0.26667,0.48333,88,2.48334,0.78,0.39167,0.89167,5,1U1D,1.0,False,0.017,8,True,left,0.0,0.0001800419995561242,999,999,999,999,0,
89,0.5,0.1,2,0.21667,0.325,0.7,89,1.79167,-0.9,-0.45,0.05,5,1D2U,1.0,True,0.016,4,True,left,0.0,0.00018670904682949185,999,999,999,999,0,
90,0.5,1.2,1,0.425,0.23333,0.5,90,1.75,-0.82,-0.40833,0.09167,5,1D1U,2.0,True,0.016,6,False,right,0.0,0.0001739590079523623,999,999,999,999,0,
91,0.5,0.1,1,0.325,0.34167,0.425,91,2.54167,0.9,0.45,0.95,5,lapse_rate,2.0,False,0.016,0,False,right,0.0,0.00029383297078311443,999,999,999,999,0,
92,0.5,0.1,1,0.34167,0.29167,0.61667,92,1.80001,-0.9,-0.45,0.05,5,1D2U,2.0,True,0.015,4,True,right,0.0,0.0003755420329980552,999,999,999,999,0,
93,0.5,1.2,1,0.44167,0.35833,0.6,93,2.35,-0.1,-0.05,0.45,5,2D1U,2.0,True,0.017,5,True,right,0.0,0.00027641700580716133,999,999,999,999,0,
94,0.5,0.1,1,0.40833,0.325,0.41667,94,1.75833,-0.78,-0.39167,0.10833,5,1D1U,2.0,True,0.017,7,True,right,0.0,0.0002952499780803919,999,999,999,999,0,
95,0.5,1.2,1,0.4,0.43333,0.80833,95,3.00833,0.74,0.36667,0.86667,5,1U1D,2.0,False,0.016,9,True,right,0.0,0.0003242089878767729,999,999,999,999,0,
96,0.5,0.1,1,0.44167,0.36667,0.48333,96,1.925,-0.74,-0.36667,0.13333,5,1D1U,2.0,True,0.016,7,False,right,0.0,0.00027249997947365046,999,999,999,999,0,
97,0.5,1.2,1,0.35833,0.35,0.69167,97,1.96667,-0.86,-0.43333,0.06667,5,1D2U,2.0,True,0.017,5,True,right,0.0,0.00020458298968151212,999,999,999,999,0,
98,0.5,0.1,1,0.23333,0.39167,0.79167,98,2.76667,0.7,0.35,0.85,5,1U1D,2.0,False,0.017,9,False,right,0.0,0.00019525003153830767,999,999,999,999,0,
99,0.5,0.1,1,0.36667,0.21667,0.75833,99,2.79167,0.9,0.45,0.95,5,lapse_rate,2.0,False,0.016,0,False,right,0.0,0.00021912500960752368,999,999,999,999,0,
100,0.5,1.2,2,0.36667,0.30833,0.775,100,2.41667,-0.06,-0.03333,0.46667,5,2D1U,1.0,True,0.017,6,True,left,0.0,0.00020254100672900677,999,999,999,999,0,
101,0.5,1.2,2,0.20833,0.43333,0.7,101,1.89166,-0.9,-0.45,0.05,5,lapse_rate,2.0,False,0.016,0,False,right,0.0,0.00017687503714114428,999,999,999,999,0,
102,0.5,0.1,2,0.26667,0.36667,0.78333,102,2.06667,-0.7,-0.35,0.15,5,1D1U,1.0,True,0.017,7,False,left,0.0,0.00017437501810491085,999,999,999,999,0,
103,0.5,1.2,2,0.43333,0.43333,0.60833,103,2.80832,0.66,0.33333,0.83333,5,1U1D,1.0,False,0.064,9,False,left,0.0,0.0001593329943716526,999,999,999,999,0,
104,0.5,0.1,2,0.34167,0.225,0.65833,104,1.79167,-0.86,-0.43333,0.06667,5,1D2U,2.0,False,0.016,5,True,right,0.0,0.00021416699746623635,999,999,999,999,0,
105,0.5,1.2,2,0.38333,0.33333,0.88333,105,2.59166,-0.02,-0.00833,0.49167,5,2D1U,2.0,False,0.017,6,False,right,0.0,0.00020970799960196018,999,999,999,999,0,
106,0.5,1.2,2,0.25,0.41667,0.575,106,2.69167,0.9,0.45,0.95,5,lapse_rate,2.0,True,0.017,0,False,right,0.0,0.00018799997633323073,999,999,999,999,0,
107,0.5,0.1,2,0.23333,0.275,0.86667,107,2.04167,-0.66,-0.33333,0.16667,5,1D1U,1.0,True,0.017,7,False,left,0.0,0.00020041695097461343,999,999,999,999,0,
108,0.5,1.2,2,0.40833,0.38333,0.63333,108,1.97499,-0.9,-0.45,0.05,5,1D2U,2.0,False,0.017,6,True,right,0.0,0.00019745895406231284,999,999,999,999,0,
109,0.5,0.1,2,0.375,0.30833,0.80833,109,2.48333,-0.02,-0.00833,0.49167,5,2D1U,1.0,True,0.017,6,False,left,0.0,0.00016904098447412252,999,999,999,999,0,
110,0.5,1.2,1,0.44167,0.35,0.41667,110,2.51667,0.62,0.30833,0.80833,5,1U1D,2.0,False,0.017,9,False,right,0.0,0.0001977920182980597,999,999,999,999,0,
111,0.5,0.1,1,0.26667,0.26667,0.53333,111,2.35834,0.58,0.29167,0.79167,5,1U1D,2.0,False,0.016,9,False,right,0.0,0.0001724159810692072,999,999,999,999,0,
112,0.5,1.2,1,0.275,0.39167,0.55833,112,1.775,-0.9,-0.45,0.05,5,1D2U,1.0,False,0.017,6,False,left,0.0,0.0002227919758297503,999,999,999,999,0,
113,0.5,0.1,1,0.33333,0.24167,0.75,113,2.775,0.9,0.45,0.95,5,lapse_rate,2.0,False,0.017,0,False,right,0.0,0.0001942089875228703,999,999,999,999,0,
114,0.5,0.1,1,0.375,0.30833,0.825,114,2.51666,0.02,0.00833,0.50833,5,2D1U,2.0,False,0.017,6,False,right,0.0,0.00017345801461488008,999,999,999,999,0,
115,0.5,1.2,1,0.325,0.33333,0.75833,115,2.10833,-0.62,-0.30833,0.19167,5,1D1U,2.0,True,0.017,7,False,right,0.0,0.00025379203725606203,999,999,999,999,0,
116,0.5,0.1,1,0.225,0.25,0.63333,116,1.65833,-0.9,-0.45,0.05,5,1D2U,2.0,True,0.017,6,False,right,0.0,0.00028062501223757863,999,999,999,999,0,
117,0.5,1.2,1,0.28333,0.25,0.65833,117,1.89999,-0.58,-0.29167,0.20833,5,1D1U,1.0,False,0.016,7,False,left,0.0,0.0003400000277906656,999,999,999,999,0,
118,0.5,0.1,1,0.2,0.25833,0.71667,118,2.625,0.9,0.45,0.95,5,lapse_rate,1.0,True,0.017,0,False,left,0.0,0.00021399999968707561,999,999,999,999,0,
119,0.5,0.1,1,0.36667,0.20833,0.44167,119,2.05,0.06,0.03333,0.53333,5,2D1U,2.0,False,0.016,6,False,right,0.0,0.0002194159897044301,999,999,999,999,0,
120,0.5,1.2,2,0.40833,0.44167,0.64167,120,2.75834,0.54,0.26667,0.76667,5,1U1D,2.0,True,0.016,9,False,right,0.0,0.0002412499743513763,999,999,999,999,0,
121,0.5,0.1,2,0.225,0.23333,0.44167,121,1.45,-0.9,-0.45,0.05,5,lapse_rate,1.0,True,0.016,0,False,left,0.0,0.00020770798437297344,999,999,999,999,0,
122,0.5,0.1,2,0.20833,0.31667,0.75,122,1.825,-0.9,-0.45,0.05,5,1D2U,1.0,True,0.017,6,False,left,0.0,0.0001932079903781414,999,999,999,999,0,
123,0.5,1.2,2,0.23333,0.225,0.74167,123,1.89167,-0.62,-0.30833,0.19167,5,1D1U,1.0,True,0.017,8,True,left,0.0,0.00020654196850955486,999,999,999,999,0,
124,0.5,0.1,2,0.41667,0.20833,0.41667,124,2.33334,0.58,0.29167,0.79167,5,1U1D,1.0,False,0.016,10,True,left,0.0,0.0001765830093063414,999,999,999,999,0,
125,0.5,1.2,2,0.29167,0.29167,0.75833,125,2.39167,0.1,0.05,0.55,5,2D1U,2.0,True,0.016,6,False,right,0.0,0.0001818749587982893,999,999,999,999,0,
126,0.5,0.1,2,0.4,0.325,0.63333,126,1.925,-0.86,-0.43333,0.06667,5,1D2U,2.0,False,0.017,7,True,right,0.0,0.00019325001630932093,999,999,999,999,0,
127,0.5,1.2,2,0.26667,0.38333,0.75833,127,2.45833,0.1,0.05,0.55,5,2D1U,1.0,False,0.017,6,False,left,0.0,0.00017716700676828623,999,999,999,999,0,
128,0.5,0.1,2,0.24167,0.25833,0.88333,128,2.65,0.54,0.26667,0.76667,5,1U1D,1.0,False,0.016,11,True,left,0.0,0.0002067500026896596,999,999,999,999,0,
129,0.5,1.2,2,0.375,0.425,0.45833,129,1.96666,-0.58,-0.29167,0.20833,5,1D1U,1.0,True,0.016,9,True,left,0.0,0.00019537500338628888,999,999,999,999,0,
130,0.5,1.2,1,0.25,0.35,0.725,130,2.775,0.9,0.45,0.95,5,lapse_rate,2.0,False,0.016,0,False,right,0.0,0.0002263750066049397,999,999,999,999,0,
131,0.5,0.1,1,0.3,0.33333,0.66667,131,1.85,-0.9,-0.45,0.05,5,1D2U,2.0,True,0.017,8,True,right,0.0,0.00017866701819002628,999,999,999,999,0,
132,0.5,1.2,1,0.40833,0.38333,0.66667,132,2.525,0.14,0.06667,0.56667,5,2D1U,1.0,True,0.016,6,False,left,0.0,0.00021429097978398204,999,999,999,999,0,
133,0.5,0.1,1,0.41667,0.225,0.75,133,2.64167,0.5,0.25,0.75,5,1U1D,1.0,True,0.016,11,False,left,0.0,0.0001764170010574162,999,999,999,999,0,
134,0.5,1.2,1,0.3,0.44167,0.58333,134,2.775,0.9,0.45,0.95,5,lapse_rate,2.0,False,0.017,0,False,right,0.0,0.00019470800179988146,999,999,999,999,0,
135,0.5,1.2,1,0.29167,0.375,0.55833,135,1.95833,-0.54,-0.26667,0.23333,5,1D1U,2.0,True,0.016,9,False,right,0.0,0.00021091703092679381,999,999,999,999,0,
136,0.5,0.1,1,0.2,0.34167,0.45833,136,1.55,-0.9,-0.45,0.05,5,1D2U,1.0,False,0.016,8,True,left,0.0,0.00020962499547749758,999,999,999,999,0,
137,0.5,1.2,1,0.40833,0.325,0.85833,137,2.65833,0.14,0.06667,0.56667,5,2D1U,1.0,True,0.017,6,False,left,0.0,0.00018387497402727604,999,999,999,999,0,
138,0.5,0.1,1,0.3,0.275,0.9,138,2.225,-0.5,-0.25,0.25,5,1D1U,1.0,False,0.017,9,False,left,0.0,0.0002062499988824129,999,999,999,999,0,
139,0.5,1.2,1,0.44167,0.40833,0.40833,139,2.525,0.54,0.26667,0.76667,5,1U1D,2.0,False,0.016,12,True,right,0.0,0.00018099998123943806,999,999,999,999,0,
140,0.5,1.2,2,0.3,0.25,0.66667,140,1.76667,-0.9,-0.45,0.05,5,lapse_rate,1.0,True,0.017,0,False,left,0.0,0.00016937503824010491,999,999,999,999,0,
141,0.5,0.1,2,0.40833,0.39167,0.525,141,2.575,0.5,0.25,0.75,5,1U1D,1.0,False,0.017,13,True,left,0.0,0.00017075001960620284,999,999,999,999,0,
142,0,0,0,0,0,0,0,0,0,0,0,0,0,0,0,0,0,0,0,0,0,0,0,0,0,0,0
143,0.5,1.2,2,0.325,0.20833,0.8,143,1.88333,-0.9,-0.45,0.05,5,1D2U,1.0,True,0.016,8,False,left,0.0,0.00018199998885393143,999,999,999,999,0,
144,0.5,0.1,2,0.36667,0.24167,0.46667,144,2.12501,0.1,0.05,0.55,5,2D1U,2.0,True,0.017,7,True,right,0.0,0.00017133395886048675,999,999,999,999,0,
145,0.5,1.2,2,0.3,0.34167,0.49167,145,1.86667,-0.54,-0.26667,0.23333,5,1D1U,2.0,False,0.016,10,True,right,0.0,0.00019112497102469206,999,999,999,999,0,
146,0.5,0.1,2,0.25833,0.225,0.49167,146,2.025,0.1,0.05,0.55,5,2D1U,1.0,False,0.017,7,True,left,0.0,0.0001789579982869327,999,999,999,999,0,
147,0.5,1.2,2,0.3,0.44167,0.61667,147,2.42501,0.14,0.06667,0.56667,5,2D1U,1.0,False,0.017,8,True,left,0.0,0.0001870419946499169,999,999,999,999,0,
148,0.5,0.1,2,0.30833,0.45,0.55,148,2.54166,0.46,0.23333,0.73333,5,1U1D,2.0,True,0.017,13,False,right,0.0,0.00021383300190791488,999,999,999,999,0,
149,0.5,1.2,2,0.34167,0.28333,0.725,149,2.05833,-0.58,-0.29167,0.20833,5,1D1U,2.0,False,0.016,10,False,right,0.0,0.00019041699124500155,999,999,999,999,0,
150,0.5,0.1,1,0.25833,0.4,0.75833,150,1.96666,-0.9,-0.45,0.05,5,1D2U,1.0,False,0.016,8,False,left,0.0,0.00019491702551022172,999,999,999,999,0,
151,0.5,1.2,1,0.41667,0.35833,0.86667,151,2.89167,0.5,0.25,0.75,5,1U1D,2.0,False,0.017,14,True,right,0.0,0.0001680839923210442,999,999,999,999,0,
152,0.5,0.1,1,0.21667,0.425,0.55,152,1.74167,-0.9,-0.45,0.05,5,1D2U,2.0,True,0.017,8,False,right,0.0,0.00020295800641179085,999,999,999,999,0,
153,0.5,1.2,1,0.28333,0.375,0.875,153,2.08333,-0.9,-0.45,0.05,5,1D2U,2.0,True,0.016,8,False,right,0.0,0.0002098330296576023,999,999,999,999,0,
154,0.5,0.1,1,0.45,0.31667,0.88333,154,2.74167,0.18,0.09167,0.59167,5,2D1U,1.0,True,0.017,8,False,left,0.0,0.00017329095862805843,999,999,999,999,0,
155,0.5,1.2,1,0.375,0.3,0.45,155,1.81667,-0.62,-0.30833,0.19167,5,1D1U,1.0,False,0.017,10,False,left,0.0,0.00020349997794255614,999,999,999,999,0,
156,0.5,0.1,1,0.4,0.36667,0.73333,156,2.06667,-0.86,-0.43333,0.06667,5,1D2U,1.0,False,0.016,9,True,left,0.0,0.00020366598619148135,999,999,999,999,0,
157,0.5,1.2,1,0.41667,0.28333,0.65833,157,2.45,0.18,0.09167,0.59167,5,2D1U,2.0,False,0.016,8,False,right,0.0,0.00018341699615120888,999,999,999,999,0,
158,0.5,0.1,1,0.20833,0.39167,0.54167,158,2.375,0.46,0.23333,0.73333,5,1U1D,2.0,False,0.016,15,True,right,0.0,0.00018404098227620125,999,999,999,999,0,
159,0.5,1.2,1,0.44167,0.26667,0.50833,159,1.88334,-0.66,-0.33333,0.16667,5,1D1U,2.0,True,0.016,10,False,right,0.0,0.00018058298155665398,999,999,999,999,0,
160,0.5,0.1,2,0.39167,0.25833,0.64167,160,1.84167,-0.9,-0.45,0.05,5,1D2U,1.0,True,0.016,10,True,left,0.0,0.00021845899755135179,999,999,999,999,0,
161,0.5,1.2,2,0.26667,0.325,0.65833,161,1.8,-0.9,-0.45,0.05,5,1D2U,2.0,False,0.016,10,True,right,0.0,0.00019833300029858947,999,999,999,999,0,
162,0.5,0.1,2,0.35833,0.425,0.83333,162,2.82499,0.42,0.20833,0.70833,5,1U1D,2.0,True,0.016,15,False,right,0.0,0.00018575001740828156,999,999,999,999,0,
163,0.5,1.2,2,0.31667,0.43333,0.83333,163,2.69166,0.22,0.10833,0.60833,5,2D1U,2.0,True,0.017,8,False,right,0.0,0.00016424997011199594,999,999,999,999,0,
164,0.5,0.1,2,0.21667,0.39167,0.53333,164,2.25,0.22,0.10833,0.60833,5,2D1U,2.0,True,0.016,8,False,right,0.0,0.00016887497622519732,999,999,999,999,0,
165,0.5,1.2,2,0.25833,0.38333,0.675,165,2.00833,-0.62,-0.30833,0.19167,5,1D1U,2.0,False,0.016,11,True,right,0.0,0.0001716669648885727,999,999,999,999,0,
166,0.5,0.1,2,0.43333,0.31667,0.7,166,2.0,-0.9,-0.45,0.05,5,1D2U,2.0,False,0.016,10,False,right,0.0,0.00018333300249651074,999,999,999,999,0,
167,0.5,1.2,2,0.39167,0.25833,0.50833,167,2.39166,0.46,0.23333,0.73333,5,1U1D,1.0,False,0.017,16,True,left,0.0,0.00017029198352247477,999,999,999,999,0,
168,0.5,0.1,2,0.26667,0.23333,0.575,168,1.74167,-0.66,-0.33333,0.16667,5,1D1U,1.0,True,0.007,12,True,left,0.0,0.00023737497394904494,999,999,999,999,0,
169,0.5,1.2,2,0.225,0.25833,0.79167,169,1.96667,-0.62,-0.30833,0.19167,5,1D1U,1.0,True,0.017,13,True,left,0.0,0.00022633298067376018,999,999,999,999,0,
170,0.5,0.1,1,0.25,0.21667,0.725,170,2.28334,0.18,0.09167,0.59167,5,2D1U,1.0,True,0.017,9,True,left,0.0,0.00020224996842443943,999,999,999,999,0,
171,0.5,1.2,1,0.38333,0.45,0.725,171,2.65,0.18,0.09167,0.59167,5,2D1U,2.0,False,0.017,9,True,right,0.0,0.000188250036444515,999,999,999,999,0,
172,0.5,0.1,1,0.3,0.31667,0.79167,172,2.11667,-0.58,-0.29167,0.20833,5,1D1U,1.0,False,0.017,13,False,left,0.0,0.0002180419978685677,999,999,999,999,0,
173,0.5,1.2,1,0.24167,0.20833,0.50833,173,2.16666,0.42,0.20833,0.70833,5,1U1D,2.0,False,0.017,17,True,right,0.0,0.00018737500067800283,999,999,999,999,0,
174,0.5,0.1,1,0.275,0.20833,0.51667,174,2.19167,0.38,0.19167,0.69167,5,1U1D,1.0,True,0.017,17,False,left,0.0,0.0001978749642148614,999,999,999,999,0,
175,0.5,1.2,1,0.35,0.39167,0.875,175,2.16667,-0.9,-0.45,0.05,5,1D2U,2.0,True,0.017,10,False,right,0.0,0.0001823750208131969,999,999,999,999,0,
176,0.5,0.1,1,0.43333,0.24167,0.61667,176,1.84167,-0.9,-0.45,0.05,5,1D2U,1.0,False,0.017,10,False,left,0.0,0.00018675002502277493,999,999,999,999,0,
177,0.5,1.2,1,0.30833,0.40833,0.88333,177,2.70832,0.22,0.10833,0.60833,5,2D1U,1.0,True,0.016,10,True,left,0.0,0.00017604202730581164,999,999,999,999,0,
178,0.5,0.1,1,0.20833,0.35,0.50833,178,2.27499,0.42,0.20833,0.70833,5,1U1D,2.0,False,0.016,18,True,right,0.0,0.0001889999839477241,999,999,999,999,0,
179,0.5,1.2,1,0.41667,0.4,0.85833,179,2.36667,-0.62,-0.30833,0.19167,5,1D1U,2.0,True,0.017,14,True,right,0.0,0.00018966698553413153,999,999,999,999,0,
180,0.5,0.1,2,0.36667,0.4,0.54167,180,2.01667,-0.58,-0.29167,0.20833,5,1D1U,2.0,False,0.017,15,True,right,0.0,0.00016979099018499255,999,999,999,999,0,
181,0.5,1.2,2,0.23333,0.43333,0.81667,181,2.03333,-0.9,-0.45,0.05,5,1D2U,1.0,True,0.017,10,False,left,0.0,0.00019270897610113025,999,999,999,999,0,
182,0.5,0.1,2,0.25833,0.40833,0.53333,182,1.89166,-0.62,-0.30833,0.19167,5,1D1U,1.0,True,0.016,16,True,left,0.0,0.00016712496289983392,999,999,999,999,0,
183,0.5,1.2,2,0.325,0.44167,0.43333,183,2.39167,0.38,0.19167,0.69167,5,1U1D,1.0,False,0.017,19,True,left,0.0,0.00016379100270569324,999,999,999,999,0,
184,0.5,0.1,2,0.25833,0.2,0.43333,184,1.99999,0.22,0.10833,0.60833,5,2D1U,2.0,True,0.016,10,True,right,0.0,0.00019754201639443636,999,999,999,999,0,
185,0.5,1.2,2,0.35833,0.26667,0.43333,185,2.15,0.18,0.09167,0.59167,5,2D1U,1.0,False,0.017,11,True,left,0.0,0.00019054103177040815,999,999,999,999,0,
186,0.5,0.1,2,0.44167,0.225,0.59167,186,1.80834,-0.9,-0.45,0.05,5,1D2U,1.0,True,0.017,10,False,left,0.0,0.00016654201317578554,999,999,999,999,0,
187,0.5,1.2,2,0.35833,0.35833,0.675,187,2.55833,0.34,0.16667,0.66667,5,1U1D,1.0,False,0.017,19,False,left,0.0,0.00016533304005861282,999,999,999,999,0,
188,0.5,0.1,2,0.35,0.24167,0.45833,188,1.75833,-0.58,-0.29167,0.20833,5,1D1U,1.0,True,0.015,17,True,left,0.0,0.00018400000408291817,999,999,999,999,0,
189,0.5,1.2,2,0.275,0.43333,0.74167,189,2.55833,0.22,0.10833,0.60833,5,2D1U,2.0,True,0.017,12,True,right,0.0,0.0001800419995561242,999,999,999,999,0,
190,0.5,0.1,1,0.25,0.44167,0.79167,190,2.59167,0.22,0.10833,0.60833,5,2D1U,1.0,True,0.016,12,True,left,0.0,0.00022945803357288241,999,999,999,999,0,
191,0.5,1.2,1,0.425,0.24167,0.84167,191,2.65834,0.3,0.15,0.65,5,1U1D,2.0,False,0.017,19,False,right,0.0,0.00017120799748227,999,999,999,999,0,
192,0.5,0.1,1,0.33333,0.26667,0.80833,192,2.5,0.18,0.09167,0.59167,5,2D1U,1.0,True,0.017,13,True,left,0.0,0.00019087496912106872,999,999,999,999,0,
193,0.5,1.2,1,0.35833,0.4,0.7,193,2.19166,-0.54,-0.26667,0.23333,5,1D1U,2.0,True,0.017,17,False,right,0.0,0.00019395799608901143,999,999,999,999,0,
194,0.5,0.1,1,0.31667,0.43333,0.5,194,2.0,-0.5,-0.25,0.25,5,1D1U,2.0,True,0.016,17,False,right,0.0,0.0002156670088879764,999,999,999,999,0,
195,0.5,1.2,1,0.26667,0.33333,0.54167,195,1.70834,-0.86,-0.43333,0.06667,5,1D2U,2.0,True,0.017,11,True,right,0.0,0.0001937500201165676,999,999,999,999,0,
196,0.5,0.1,1,0.325,0.36667,0.825,196,2.65,0.26,0.13333,0.63333,5,1U1D,1.0,True,0.017,19,False,left,0.0,0.00018033303786069155,999,999,999,999,0,
197,0.5,1.2,1,0.325,0.31667,0.54167,197,1.95001,-0.46,-0.23333,0.26667,5,1D1U,2.0,True,0.016,17,False,right,0.0,0.0002077920362353325,999,999,999,999,0,
198,0.5,0.1,1,0.34167,0.225,0.88333,198,2.54167,0.18,0.09167,0.59167,5,2D1U,2.0,False,0.016,13,True,right,0.0,0.00018158298917114735,999,999,999,999,0,
199,0.5,1.2,1,0.225,0.38333,0.5,199,2.21666,0.22,0.10833,0.60833,5,2D1U,2.0,False,0.017,14,True,right,0.0,0.00018437497783452272,999,999,999,999,0,
200,0.5,0.1,2,0.35833,0.26667,0.86667,200,2.05834,-0.86,-0.43333,0.06667,5,1D2U,2.0,False,0.017,11,True,right,0.0,0.000213958031963557,999,999,999,999,0,
201,0.5,1.2,2,0.4,0.29167,0.625,201,1.86667,-0.9,-0.45,0.05,5,1D2U,2.0,False,0.017,12,True,right,0.0,0.0003025420010089874,999,999,999,999,0,
202,0.5,0.1,2,0.40833,0.23333,0.84167,202,2.61666,0.26,0.13333,0.63333,5,2D1U,1.0,False,0.016,14,False,left,0.0,0.00043741700937971473,999,999,999,999,0,
203,0.5,1.2,2,0.43333,0.425,0.85,203,2.5,-0.42,-0.20833,0.29167,5,1D1U,2.0,False,0.016,17,False,right,0.0,0.00029270804952830076,999,999,999,999,0,
204,0.5,0.1,2,0.275,0.4,0.75833,204,2.2,-0.46,-0.23333,0.26667,5,1D1U,2.0,False,0.016,18,True,right,0.0,0.00020991702331230044,999,999,999,999,0,
205,0.5,1.2,2,0.25,0.38333,0.65,205,2.43333,0.3,0.15,0.65,5,1U1D,2.0,True,0.016,20,True,right,0.0,0.00020645803306251764,999,999,999,999,0,
206,0.5,0.1,2,0.38333,0.3,0.7,206,2.13333,-0.5,-0.25,0.25,5,1D1U,2.0,False,0.017,18,False,right,0.0,0.00019045901717618108,999,999,999,999,0,
207,0.5,1.2,2,0.33333,0.225,0.8,207,1.90833,-0.9,-0.45,0.05,5,1D2U,1.0,True,0.017,12,False,left,0.0,0.00019362499006092548,999,999,999,999,0,
208,0.5,0.1,2,0.29167,0.34167,0.78333,208,2.58334,0.34,0.16667,0.66667,5,1U1D,1.0,False,0.017,20,False,left,0.0,0.00017987500177696347,999,999,999,999,0,
209,0.5,1.2,2,0.35833,0.2,0.6,209,2.30833,0.3,0.15,0.65,5,2D1U,2.0,True,0.017,14,False,right,0.0,0.0001735410187393427,999,999,999,999,0,
210,0.5,0.1,1,0.29167,0.4,0.51667,210,2.35834,0.3,0.15,0.65,5,2D1U,1.0,True,0.016,14,False,left,0.0,0.00021754199406132102,999,999,999,999,0,
211,0.5,1.2,1,0.275,0.31667,0.76667,211,2.50834,0.3,0.15,0.65,5,1U1D,1.0,True,0.017,21,True,left,0.0,0.000181709008757025,999,999,999,999,0,
212,0.5,0.1,1,0.35833,0.21667,0.76667,212,2.475,0.26,0.13333,0.63333,5,2D1U,2.0,False,0.017,15,True,right,0.0,0.0001990830060094595,999,999,999,999,0,
213,0.5,1.2,1,0.21667,0.30833,0.475,213,1.73333,-0.54,-0.26667,0.23333,5,1D1U,2.0,True,0.017,18,False,right,0.0,0.0002474160282872617,999,999,999,999,0,
214,0.5,0.1,1,0.20833,0.425,0.74167,214,1.925,-0.9,-0.45,0.05,5,1D2U,1.0,False,0.017,12,False,left,0.0,0.00030733400490134954,999,999,999,999,0,
215,0.5,1.2,1,0.23333,0.425,0.48333,215,2.30833,0.34,0.16667,0.66667,5,1U1D,1.0,True,0.017,22,True,left,0.0,0.0002732080174610019,999,999,999,999,0,
216,0.5,0.1,1,0.275,0.24167,0.8,216,2.46667,0.3,0.15,0.65,5,2D1U,1.0,True,0.017,16,True,left,0.0,0.0002465419820509851,999,999,999,999,0,
217,0.5,1.2,1,0.325,0.35833,0.53333,217,2.36666,0.3,0.15,0.65,5,2D1U,1.0,True,0.017,16,True,left,0.0,0.00020733301062136889,999,999,999,999,0,
218,0.5,0.1,1,0.39167,0.3,0.8,218,2.04167,-0.9,-0.45,0.05,5,1D2U,2.0,True,0.017,12,False,right,0.0,0.0002375839976593852,999,999,999,999,0,
219,0.5,1.2,1,0.325,0.30833,0.58333,219,1.96666,-0.5,-0.25,0.25,5,1D1U,2.0,True,0.017,19,True,right,0.0,0.00018324999837204814,999,999,999,999,0,
220,0.5,0.1,2,0.34167,0.275,0.53333,220,2.34167,0.38,0.19167,0.69167,5,1U1D,2.0,True,0.016,22,False,right,0.0,0.0002846249844878912,999,999,999,999,0,
221,0.5,1.2,2,0.35833,0.26667,0.81667,221,1.99167,-0.9,-0.45,0.05,5,1D2U,2.0,False,0.017,12,False,right,0.0,0.00019049999536946416,999,999,999,999,0,
222,0.5,0.1,2,0.24167,0.38333,0.775,222,2.16667,-0.46,-0.23333,0.26667,5,1D1U,2.0,False,0.017,19,False,right,0.0,0.00020645902259275317,999,999,999,999,0,
223,0.5,1.2,2,0.21667,0.25833,0.45833,223,1.68333,-0.5,-0.25,0.25,5,1D1U,2.0,False,0.017,20,True,right,0.0,0.000189624959602952,999,999,999,999,0,
224,0.5,0.1,2,0.2,0.3,0.84167,224,2.55,0.42,0.20833,0.70833,5,1U1D,1.0,False,0.016,22,False,left,0.0,0.00019291701028123498,999,999,999,999,0,
225,0.5,1.2,2,0.36667,0.325,0.625,225,2.45,0.26,0.13333,0.63333,5,2D1U,1.0,False,0.017,17,True,left,0.0,0.00017054204363375902,999,999,999,999,0,
226,0.5,0.1,2,0.43333,0.39167,0.425,226,2.44167,0.38,0.19167,0.69167,5,1U1D,2.0,True,0.016,23,True,right,0.0,0.0002067500026896596,999,999,999,999,0,
227,0.5,1.2,2,0.25,0.28333,0.55,227,1.81666,-0.54,-0.26667,0.23333,5,1D1U,1.0,True,0.016,20,False,left,0.0,0.00018820801051333547,999,999,999,999,0,
228,0.5,0.1,2,0.425,0.36667,0.79167,228,2.13334,-0.9,-0.45,0.05,5,1D2U,1.0,True,0.016,12,False,left,0.0,0.00023491698084399104,999,999,999,999,0,
229,0.5,1.2,2,0.28333,0.3,0.575,229,2.30833,0.3,0.15,0.65,5,2D1U,1.0,False,0.016,18,True,left,0.0,0.0002774579916149378,999,999,999,999,0,
230,0.5,0.1,1,0.44167,0.30833,0.66667,230,2.625,0.42,0.20833,0.70833,5,1U1D,1.0,True,0.016,24,True,left,0.0,0.00021991698304191232,999,999,999,999,0,
231,0.5,1.2,1,0.40833,0.20833,0.725,231,2.57499,0.46,0.23333,0.73333,5,1U1D,2.0,False,0.017,24,False,right,0.0,0.00018099998123943806,999,999,999,999,0,
232,0.5,0.1,1,0.45,0.26667,0.66667,232,2.55001,0.34,0.16667,0.66667,5,2D1U,2.0,False,0.017,18,False,right,0.0,0.00017387495609000325,999,999,999,999,0,
233,0.5,1.2,1,0.325,0.28333,0.8,233,1.95833,-0.9,-0.45,0.05,5,1D2U,2.0,True,0.017,12,False,right,0.0,0.00018849998014047742,999,999,999,999,0,
234,0.5,0.1,1,0.225,0.29167,0.84167,234,2.10834,-0.5,-0.25,0.25,5,1D1U,1.0,False,0.016,21,True,left,0.0,0.00018395797815173864,999,999,999,999,0,
235,0.5,1.2,1,0.24167,0.28333,0.85833,235,2.59166,0.42,0.20833,0.70833,5,1U1D,1.0,True,0.016,25,True,left,0.0,0.00018741702660918236,999,999,999,999,0,
236,0.5,0.1,1,0.25833,0.21667,0.64167,236,2.35,0.46,0.23333,0.73333,5,1U1D,1.0,True,0.017,26,True,left,0.0,0.00020304200006648898,999,999,999,999,0,
237,0.5,1.2,1,0.44167,0.33333,0.83333,237,2.34166,-0.54,-0.26667,0.23333,5,1D1U,1.0,False,0.017,22,True,left,0.0,0.00019520899513736367,999,999,999,999,0,
238,0.5,0.1,1,0.21667,0.40833,0.9,238,2.71667,0.38,0.19167,0.69167,5,2D1U,2.0,False,0.017,18,False,right,0.0,0.00017820799257606268,999,999,999,999,0,
239,0.5,1.2,1,0.40833,0.28333,0.45833,239,2.35832,0.42,0.20833,0.70833,5,2D1U,1.0,True,0.017,18,False,left,0.0,0.00018329196609556675,999,999,999,999,0,
240,0.5,0.1,2,0.375,0.21667,0.875,240,2.03334,-0.86,-0.43333,0.06667,5,1D2U,2.0,False,0.017,13,True,right,0.0,0.0001646250020712614,999,999,999,999,0,
241,0.5,1.2,2,0.20833,0.34167,0.78333,241,1.88333,-0.9,-0.45,0.05,5,1D2U,1.0,True,0.016,14,True,left,0.0,0.00018104194896295667,999,999,999,999,0,
242,0.5,0.1,2,0.35833,0.29167,0.51667,242,2.41667,0.5,0.25,0.75,5,1U1D,1.0,False,0.016,26,False,left,0.0,0.00016125000547617674,999,999,999,999,0,
243,0.5,1.2,2,0.26667,0.43333,0.825,243,2.73333,0.42,0.20833,0.70833,5,2D1U,1.0,False,0.016,18,False,left,0.0,0.00019516696920618415,999,999,999,999,0,
244,0.5,0.1,2,0.21667,0.225,0.41667,244,2.09167,0.46,0.23333,0.73333,5,2D1U,1.0,False,0.017,18,False,left,0.0,0.00017725001089274883,999,999,999,999,0,
245,0.5,1.2,2,0.36667,0.375,0.4,245,1.85,-0.58,-0.29167,0.20833,5,1D1U,1.0,True,0.016,22,False,left,0.0,0.00017195800319314003,999,999,999,999,0,
246,0.5,0.1,2,0.35,0.425,0.89167,246,2.21667,-0.9,-0.45,0.05,5,1D2U,2.0,False,0.017,14,True,right,0.0,0.00022562500089406967,999,999,999,999,0,
247,0.5,1.2,2,0.34167,0.375,0.475,247,2.425,0.46,0.23333,0.73333,5,1U1D,2.0,True,0.016,27,True,right,0.0,0.0003219580394215882,999,999,999,999,0,
248,0.5,0.1,2,0.35833,0.28333,0.6,248,1.97499,-0.54,-0.26667,0.23333,5,1D1U,2.0,False,0.016,23,True,right,0.0,0.00031970901181921363,999,999,999,999,0,
249,0.5,1.2,2,0.40833,0.30833,0.80833,249,2.23332,-0.58,-0.29167,0.20833,5,1D1U,1.0,True,0.016,24,True,left,0.0,0.00027245801175013185,999,999,999,999,0,
250,0.5,0.1,1,0.28333,0.30833,0.76667,250,2.60833,0.5,0.25,0.75,5,2D1U,2.0,False,0.017,18,False,right,0.0,0.0002019999665208161,999,999,999,999,0,
251,0.5,1.2,1,0.25,0.36667,0.875,251,2.74167,0.5,0.25,0.75,5,1U1D,1.0,True,0.017,28,True,left,0.0,0.00020341697381809354,999,999,999,999,0,
252,0.5,0.1,1,0.34167,0.33333,0.8,252,2.74167,0.54,0.26667,0.76667,5,2D1U,2.0,False,0.017,18,False,right,0.0,0.00017283298075199127,999,999,999,999,0,
253,0.5,1.2,1,0.30833,0.29167,0.86667,253,2.75834,0.58,0.29167,0.79167,5,2D1U,2.0,False,0.017,18,False,right,0.0,0.00017283402848988771,999,999,999,999,0,
254,0.5,0.1,1,0.425,0.24167,0.73333,254,1.95,-0.9,-0.45,0.05,5,1D2U,2.0,True,0.017,14,False,right,0.0,0.0002351670409552753,999,999,999,999,0,
255,0.5,1.2,1,0.36667,0.35833,0.78333,255,2.24166,-0.54,-0.26667,0.23333,5,1D1U,1.0,False,0.017,25,True,left,0.0,0.00016633298946544528,999,999,999,999,0,
256,0.5,0.1,1,0.33333,0.26667,0.84167,256,1.99167,-0.9,-0.45,0.05,5,1D2U,2.0,True,0.017,14,False,right,0.0,0.00018695800099521875,999,999,999,999,0,
257,0.5,1.2,1,0.39167,0.375,0.76667,257,2.80001,0.54,0.26667,0.76667,5,1U1D,1.0,True,0.016,28,False,left,0.0,0.00018029200145974755,999,999,999,999,0,
258,0.5,0.1,1,0.35833,0.38333,0.59167,258,2.625,0.58,0.29167,0.79167,5,1U1D,1.0,True,0.017,28,False,left,0.0,0.00018337497022002935,999,999,999,999,0,
259,0.5,1.2,1,0.40833,0.275,0.56667,259,2.55833,0.62,0.30833,0.80833,5,2D1U,1.0,True,0.017,18,False,left,0.0,0.0001668750192038715,999,999,999,999,0,
260,0.5,0.1,2,0.36667,0.43333,0.58333,260,2.09166,-0.58,-0.29167,0.20833,5,1D1U,2.0,False,0.016,26,True,right,0.0,0.00018016702961176634,999,999,999,999,0,
261,0.5,1.2,2,0.425,0.425,0.5,261,2.65833,0.62,0.30833,0.80833,5,2D1U,1.0,False,0.017,18,False,left,0.0,0.0001913749729283154,999,999,999,999,0,
262,0.5,0.1,2,0.43333,0.21667,0.63333,262,1.975,-0.62,-0.30833,0.19167,5,1D1U,2.0,False,0.017,26,False,right,0.0,0.00017333298455923796,999,999,999,999,0,
263,0.5,1.2,2,0.275,0.375,0.65833,263,2.61666,0.62,0.30833,0.80833,5,1U1D,2.0,True,0.017,28,False,right,0.0,0.00020249997032806277,999,999,999,999,0,
264,0.5,0.1,2,0.275,0.34167,0.86667,264,2.05001,-0.86,-0.43333,0.06667,5,1D2U,1.0,True,0.016,15,True,left,0.0,0.00016854197019711137,999,999,999,999,0,
265,0.5,1.2,2,0.34167,0.3,0.44167,265,2.41667,0.66,0.33333,0.83333,5,2D1U,1.0,False,0.016,18,False,left,0.0,0.0001657500397413969,999,999,999,999,0,
266,0.5,0.1,2,0.325,0.33333,0.7,266,2.70833,0.7,0.35,0.85,5,2D1U,2.0,True,0.016,18,False,right,0.0,0.00019675004296004772,999,999,999,999,0,
267,0.5,1.2,2,0.225,0.24167,0.725,267,2.525,0.66,0.33333,0.83333,5,1U1D,2.0,True,0.016,28,False,right,0.0,0.00017558300169184804,999,999,999,999,0,
268,0.5,0.1,2,0.275,0.28333,0.75833,268,2.66666,0.7,0.35,0.85,5,1U1D,2.0,True,0.017,28,False,right,0.0,0.00018858403200283647,999,999,999,999,0,
269,0.5,1.2,2,0.23333,0.425,0.50833,269,1.73333,-0.86,-0.43333,0.06667,5,1D2U,2.0,False,0.017,15,True,right,0.0,0.00016820902237668633,999,999,999,999,0,
270,0.5,0.1,1,0.325,0.29167,0.49167,270,1.77501,-0.66,-0.33333,0.16667,5,1D1U,1.0,False,0.016,26,False,left,0.0,0.0002387920394539833,999,999,999,999,0,
271,0.5,1.2,1,0.21667,0.3,0.75833,271,2.64167,0.74,0.36667,0.86667,5,1U1D,1.0,True,0.017,28,False,left,0.0,0.00015891599468886852,999,999,999,999,0,
272,0.5,0.1,1,0.38333,0.35833,0.76667,272,2.85833,0.7,0.35,0.85,5,2D1U,2.0,False,0.017,18,False,right,0.0,0.000189665996003896,999,999,999,999,0,
273,0.5,1.2,1,0.25833,0.35,0.43333,273,1.59166,-0.9,-0.45,0.05,5,1D2U,2.0,True,0.017,16,True,right,0.0,0.00021166703663766384,999,999,999,999,0,
274,0.5,0.1,1,0.4,0.225,0.675,274,1.95,-0.7,-0.35,0.15,5,1D1U,2.0,True,0.017,26,False,right,0.0,0.00018358399393036962,999,999,999,999,0,
275,0.5,1.2,1,0.375,0.45,0.60833,275,2.825,0.78,0.39167,0.89167,5,1U1D,2.0,False,0.016,28,False,right,0.0,0.0001921659568324685,999,999,999,999,0,
276,0.5,0.1,1,0.30833,0.41667,0.49167,276,2.58334,0.74,0.36667,0.86667,5,1U1D,2.0,False,0.017,29,True,right,0.0,0.000201582966838032,999,999,999,999,0,
277,0.5,1.2,1,0.40833,0.24167,0.4,277,1.71667,-0.66,-0.33333,0.16667,5,1D1U,1.0,False,0.016,27,True,left,0.0,0.00017545896116644144,999,999,999,999,0,
278,0.5,0.1,1,0.425,0.25833,0.88333,278,2.93333,0.74,0.36667,0.86667,5,2D1U,1.0,True,0.017,18,False,left,0.0,0.00017324998043477535,999,999,999,999,0,
279,0.5,1.2,1,0.34167,0.25833,0.7,279,2.66667,0.74,0.36667,0.86667,5,2D1U,2.0,False,0.017,18,False,right,0.0,0.00017849996220320463,999,999,999,999,0,
280,0.5,0.1,2,0.41667,0.25833,0.85,280,2.075,-0.9,-0.45,0.05,5,1D2U,2.0,False,0.016,16,True,right,0.0,0.00022095802705734968,999,999,999,999,0,
281,0.5,1.2,2,0.225,0.38333,0.66667,281,2.625,0.7,0.35,0.85,5,1U1D,1.0,False,0.016,29,False,left,0.0,0.00019904202781617641,999,999,999,999,0,
282,0.5,0.1,2,0.43333,0.36667,0.48333,282,1.93333,-0.7,-0.35,0.15,5,1D1U,1.0,True,0.017,28,True,left,0.0,0.00018295797053724527,999,999,999,999,0,
283,0.5,1.2,2,0.275,0.36667,0.50833,283,1.7,-0.9,-0.45,0.05,5,1D2U,2.0,False,0.017,16,False,right,0.0,0.00018616701709106565,999,999,999,999,0,
284,0.5,0.1,2,0.275,0.36667,0.69167,284,2.72501,0.78,0.39167,0.89167,5,2D1U,1.0,False,0.016,18,False,left,0.0,0.00017908401787281036,999,999,999,999,0,
285,0.5,1.2,2,0.30833,0.40833,0.51667,285,2.56666,0.66,0.33333,0.83333,5,1U1D,1.0,False,0.017,29,False,left,0.0,0.00017862499225884676,999,999,999,999,0,
286,0.5,0.1,2,0.38333,0.35,0.51667,286,2.65833,0.82,0.40833,0.90833,5,2D1U,1.0,False,0.017,18,False,left,0.0,0.00018304202239960432,999,999,999,999,0,
287,0.5,1.2,2,0.41667,0.425,0.875,287,3.15,0.86,0.43333,0.93333,5,2D1U,2.0,True,0.016,18,False,right,0.0,0.00024387502344325185,999,999,999,999,0,
288,0.5,0.1,2,0.24167,0.41667,0.49167,288,1.70001,-0.9,-0.45,0.05,5,1D2U,2.0,False,0.017,16,False,right,0.0,0.00018274999456480145,999,999,999,999,0,
289,0.5,1.2,2,0.35833,0.23333,0.575,289,1.83333,-0.66,-0.33333,0.16667,5,1D1U,2.0,False,0.016,29,True,right,0.0,0.00020754197612404823,999,999,999,999,0,
290,0.5,0.1,1,0.36667,0.39167,0.475,290,2.54167,0.62,0.30833,0.80833,5,1U1D,2.0,False,0.016,29,False,right,0.0,0.00022308301413431764,999,999,999,999,0,
291,0.5,1.2,1,0.34167,0.28333,0.88333,291,2.8,0.58,0.29167,0.79167,5,1U1D,1.0,True,0.017,29,False,left,0.0,0.00019091699505224824,999,999,999,999,0,
292,0.5,0.1,1,0.33333,0.21667,0.44167,292,2.425,0.86,0.43333,0.93333,5,2D1U,1.0,True,0.016,18,False,left,0.0,0.00018770800670608878,999,999,999,999,0,
293,0.5,1.2,1,0.45,0.35833,0.76667,293,2.225,-0.7,-0.35,0.15,5,1D1U,1.0,False,0.017,30,True,left,0.0,0.00019041699124500155,999,999,999,999,0,
294,0.5,0.1,1,0.36667,0.325,0.49167,294,1.81667,-0.74,-0.36667,0.13333,5,1D1U,1.0,False,0.017,30,False,left,0.0,0.0002067919704131782,999,999,999,999,0,
295,0.5,1.2,1,0.26667,0.41667,0.89167,295,2.12501,-0.9,-0.45,0.05,5,1D2U,1.0,False,0.017,16,False,left,0.0,0.0001872499706223607,999,999,999,999,0,
296,0.5,0.1,1,0.275,0.33333,0.66667,296,1.825,-0.9,-0.45,0.05,5,1D2U,2.0,True,0.016,16,False,right,0.0,0.00031712499912828207,999,999,999,999,0,
297,0.5,1.2,1,0.26667,0.3,0.75,297,1.925,-0.78,-0.39167,0.10833,5,1D1U,2.0,True,0.017,30,False,right,0.0,0.00017629098147153854,999,999,999,999,0,
298,0.5,0.1,1,0.39167,0.26667,0.9,298,2.86667,0.62,0.30833,0.80833,5,1U1D,2.0,False,0.017,30,True,right,0.0,0.0002003330155275762,999,999,999,999,0,
299,0.5,1.2,1,0.375,0.35833,0.50833,299,2.53333,0.58,0.29167,0.79167,5,1U1D,2.0,False,0.017,31,True,right,0.0,0.00018350000027567148,999,999,999,999,0,
300,0.5,0.1,2,0.275,0.35833,0.45,300,2.49166,0.82,0.40833,0.90833,5,2D1U,1.0,False,0.016,19,True,left,0.0,0.0002234579878859222,999,999,999,999,0,
301,0.5,1.2,2,0.28333,0.25833,0.60833,301,2.58332,0.86,0.43333,0.93333,5,2D1U,2.0,True,0.017,20,True,right,0.0,0.00016870797844603658,999,999,999,999,0,
302,0.5,0.1,2,0.25833,0.35833,0.75,302,2.63333,0.54,0.26667,0.76667,5,1U1D,2.0,True,0.017,31,False,right,0.0,0.0001712499652057886,999,999,999,999,0,
303,0.5,1.2,2,0.41667,0.40833,0.60833,303,1.98333,-0.9,-0.45,0.05,5,1D2U,1.0,True,0.016,16,False,left,0.0,0.0001873329747468233,999,999,999,999,0,
304,0.5,0.1,2,0.375,0.43333,0.775,304,2.15,-0.86,-0.43333,0.06667,5,1D2U,1.0,True,0.016,17,True,left,0.0,0.00019891600823029876,999,999,999,999,0,
305,0.5,1.2,2,0.21667,0.33333,0.54167,305,1.725,-0.74,-0.36667,0.13333,5,1D1U,1.0,True,0.017,31,True,left,0.0,0.00017750001279637218,999,999,999,999,0,
306,0.5,0.1,2,0.225,0.425,0.55833,306,2.5,0.58,0.29167,0.79167,5,1U1D,1.0,False,0.017,32,True,left,0.0,0.00019395898561924696,999,999,999,999,0,
307,0.5,1.2,2,0.275,0.24167,0.66667,307,2.61667,0.86,0.43333,0.93333,5,2D1U,1.0,False,0.017,20,True,left,0.0,0.0001682079746387899,999,999,999,999,0,
308,0.5,0.1,2,0.425,0.225,0.825,308,2.04167,-0.86,-0.43333,0.06667,5,1D2U,2.0,False,0.017,17,True,right,0.0,0.0001742080203257501,999,999,999,999,0,
309,0.5,1.2,2,0.33333,0.45,0.59167,309,2.025,-0.7,-0.35,0.15,5,1D1U,1.0,True,0.017,31,False,left,0.0,0.00019087502732872963,999,999,999,999,0,
310,0.5,0.1,1,0.31667,0.23333,0.65833,310,2.475,0.54,0.26667,0.76667,5,1U1D,2.0,False,0.016,33,True,right,0.0,0.000263832975178957,999,999,999,999,0,
311,0.5,1.2,1,0.375,0.44167,0.79167,311,2.27501,-0.66,-0.33333,0.16667,5,1D1U,1.0,False,0.017,31,False,left,0.0,0.00017508299788460135,999,999,999,999,0,
312,0.5,0.1,1,0.275,0.425,0.79167,312,2.14167,-0.7,-0.35,0.15,5,1D1U,1.0,False,0.016,32,True,left,0.0,0.00020241702441126108,999,999,999,999,0,
313,0.5,1.2,1,0.33333,0.33333,0.66667,313,2.78333,0.9,0.45,0.95,5,2D1U,1.0,True,0.017,20,False,left,0.0,0.00020654196850955486,999,999,999,999,0,
314,0.5,0.1,1,0.25833,0.35833,0.66667,314,2.53333,0.5,0.25,0.75,5,1U1D,2.0,False,0.016,33,False,right,0.0,0.0001662920112721622,999,999,999,999,0,
315,0.5,1.2,1,0.375,0.425,0.65,315,2.0,-0.9,-0.45,0.05,5,1D2U,1.0,False,0.016,18,True,left,0.0,0.00017366703832522035,999,999,999,999,0,
316,0.5,0.1,1,0.35833,0.35,0.7,316,1.95833,-0.9,-0.45,0.05,5,1D2U,2.0,True,0.016,18,False,right,0.0,0.00019070797134190798,999,999,999,999,0,
317,0.5,1.2,1,0.325,0.4,0.58333,317,1.94166,-0.74,-0.36667,0.13333,5,1D1U,2.0,True,0.017,32,False,right,0.0,0.00017687497893348336,999,999,999,999,0,
318,0.5,0.1,1,0.40833,0.25,0.70833,318,2.81666,0.9,0.45,0.95,5,2D1U,2.0,False,0.017,20,False,right,0.0,0.00018212501890957355,999,999,999,999,0,
319,0.5,1.2,1,0.28333,0.44167,0.76667,319,2.725,0.46,0.23333,0.73333,5,1U1D,2.0,False,0.017,33,False,right,0.0,0.0002080000122077763,999,999,999,999,0,
320,0.5,0.1,2,0.28333,0.275,0.70833,320,1.81666,-0.9,-0.45,0.05,5,1D2U,1.0,True,0.017,18,False,left,0.0,0.0001829170505516231,999,999,999,999,0,
321,0.5,1.2,2,0.425,0.28333,0.60833,321,2.52499,0.42,0.20833,0.70833,5,1U1D,1.0,False,0.016,33,False,left,0.0,0.00016862497432157397,999,999,999,999,0,
322,0.5,0.1,2,0.36667,0.20833,0.69167,322,2.73334,0.94,0.46667,0.96667,5,2D1U,2.0,True,0.016,20,False,right,0.0,0.00019616697682067752,999,999,999,999,0,
323,0.5,1.2,2,0.25833,0.40833,0.61667,323,1.93333,-0.7,-0.35,0.15,5,1D1U,1.0,True,0.015,33,True,left,0.0,0.00020245800260454416,999,999,999,999,0,
324,0.5,0.1,2,0.25,0.26667,0.40833,324,1.49167,-0.86,-0.43333,0.06667,5,1D2U,1.0,True,0.017,19,True,left,0.0,0.00018037500558421016,999,999,999,999,0,
325,0.5,1.2,2,0.25,0.24167,0.50833,325,1.56667,-0.86,-0.43333,0.06667,5,1D2U,1.0,True,0.017,19,True,left,0.0,0.000164708006195724,999,999,999,999,0,
326,0.5,0.1,2,0.26667,0.29167,0.81667,326,2.04168,-0.66,-0.33333,0.16667,5,1D1U,2.0,False,0.017,33,False,right,0.0,0.00016508303815498948,999,999,999,999,0,
327,0.5,1.2,2,0.35,0.225,0.89167,327,2.93334,0.94,0.46667,0.96667,5,2D1U,1.0,False,0.016,20,False,left,0.0,0.00022495898883789778,999,999,999,999,0,
328,0.5,0.1,2,0.38333,0.325,0.71667,328,2.01667,-0.82,-0.40833,0.09167,5,1D2U,1.0,True,0.016,19,False,left,0.0,0.00019583402900025249,999,999,999,999,0,
329,0.5,1.2,2,0.25833,0.36667,0.68333,329,2.5,0.38,0.19167,0.69167,5,1U1D,2.0,True,0.017,33,False,right,0.0,0.0001692920341156423,999,999,999,999,0,
330,0.5,0.1,1,0.325,0.44167,0.40833,330,1.825,-0.7,-0.35,0.15,5,1D1U,1.0,False,0.016,34,True,left,0.0,0.00018579198513180017,999,999,999,999,0,
331,0.5,1.2,1,0.35,0.44167,0.63333,331,2.91667,0.98,0.49167,0.99167,5,2D1U,2.0,False,0.017,20,False,right,0.0,0.00020620902068912983,999,999,999,999,0,
332,0.5,0.1,1,0.3,0.36667,0.75833,332,2.01667,-0.82,-0.40833,0.09167,5,1D2U,1.0,False,0.016,19,False,left,0.0,0.0001876669703051448,999,999,999,999,0,
333,0.5,1.2,1,0.35833,0.39167,0.55,333,2.50833,0.42,0.20833,0.70833,5,1U1D,1.0,True,0.016,34,True,left,0.0,0.00017562502762302756,999,999,999,999,0,
334,0.5,0.1,1,0.30833,0.24167,0.79167,334,2.575,0.46,0.23333,0.73333,5,1U1D,2.0,False,0.016,34,False,right,0.0,0.0001805830397643149,999,999,999,999,0,
335,0.5,1.2,1,0.3,0.25,0.40833,335,1.59166,-0.74,-0.36667,0.13333,5,1D1U,2.0,True,0.016,34,False,right,0.0,0.0001942500239238143,999,999,999,999,0,
336,0.5,0.1,1,0.40833,0.30833,0.75833,336,2.12499,-0.7,-0.35,0.15,5,1D1U,1.0,False,0.016,35,True,left,0.0,0.00018137501319870353,999,999,999,999,0,
337,0.5,1.2,1,0.41667,0.38333,0.46667,337,2.475,0.42,0.20833,0.70833,5,1U1D,2.0,False,0.017,35,True,right,0.0,0.00018279196228832006,999,999,999,999,0,
338,0.5,0.1,1,0.38333,0.39167,0.84167,338,2.18334,-0.86,-0.43333,0.06667,5,1D2U,1.0,False,0.017,20,True,left,0.0,0.00017079204553738236,999,999,999,999,0,
339,0.5,1.2,1,0.425,0.38333,0.675,339,2.93333,0.9,0.45,0.95,5,2D1U,2.0,False,0.016,20,False,right,0.0,0.0002488750033080578,999,999,999,999,0,
340,0.5,0.1,2,0.275,0.29167,0.78333,340,2.81667,0.94,0.46667,0.96667,5,2D1U,2.0,True,0.016,20,False,right,0.0,0.00021079200087115169,999,999,999,999,0,
341,0.5,1.2,2,0.23333,0.35,0.75,341,1.96666,-0.74,-0.36667,0.13333,5,1D1U,2.0,False,0.016,36,True,right,0.0,0.0001877499744296074,999,999,999,999,0,
342,0.5,0.1,2,0.425,0.3,0.45833,342,1.73333,-0.9,-0.45,0.05,5,1D2U,2.0,False,0.016,20,False,right,0.0,0.00022245798027142882,999,999,999,999,0,
343,0.5,1.2,2,0.41667,0.41667,0.70833,343,3.00834,0.94,0.46667,0.96667,5,2D1U,1.0,False,0.016,20,False,left,0.0,0.00020187499467283487,999,999,999,999,0,
344,0.5,0.1,2,0.35833,0.40833,0.8,344,3.05833,0.98,0.49167,0.99167,5,2D1U,2.0,True,0.016,20,False,right,0.0,0.00017687497893348336,999,999,999,999,0,
345,0.5,1.2,2,0.23333,0.35,0.75,345,2.525,0.38,0.19167,0.69167,5,1U1D,1.0,False,0.016,35,False,left,0.0,0.00023262499598786235,999,999,999,999,0,
346,0.5,0.1,2,0.21667,0.25,0.51667,346,2.47501,0.98,0.49167,0.99167,5,2D1U,1.0,False,0.017,20,False,left,0.0,0.0001877499744296074,999,999,999,999,0,
347,0.5,1.2,2,0.4,0.35833,0.825,347,2.13333,-0.9,-0.45,0.05,5,1D2U,1.0,True,0.017,20,False,left,0.0,0.00019491702551022172,999,999,999,999,0,
348,0.5,0.1,2,0.28333,0.2,0.525,348,1.61666,-0.78,-0.39167,0.10833,5,1D1U,2.0,False,0.017,36,False,right,0.0,0.00018495798576623201,999,999,999,999,0,
349,0.5,1.2,2,0.25,0.29167,0.675,349,2.38334,0.34,0.16667,0.66667,5,1U1D,1.0,False,0.016,35,False,left,0.0,0.00018645799718797207,999,999,999,999,0,
350,0.5,0.1,1,0.34167,0.35,0.825,350,2.66667,0.3,0.15,0.65,5,1U1D,2.0,False,0.017,35,False,right,0.0,0.00019975000759586692,999,999,999,999,0,
351,0.5,1.2,1,0.28333,0.23333,0.54167,351,2.19166,0.26,0.13333,0.63333,5,1U1D,1.0,True,0.017,35,False,left,0.0,0.00018754199845716357,999,999,999,999,0,
352,0.5,0.1,1,0.30833,0.25833,0.68333,352,2.69999,0.9,0.45,0.95,5,2D1U,2.0,False,0.017,20,False,right,0.0,0.0001751669915392995,999,999,999,999,0,
353,0.5,1.2,1,0.325,0.425,0.875,353,2.175,-0.9,-0.45,0.05,5,1D2U,1.0,False,0.017,20,False,left,0.0,0.00021566601935774088,999,999,999,999,0,
354,0.5,0.1,1,0.44167,0.38333,0.45833,354,1.875,-0.82,-0.40833,0.09167,5,1D1U,1.0,False,0.017,36,False,left,0.0,0.00018504197942093015,999,999,999,999,0,
355,0.5,1.2,1,0.25833,0.40833,0.46667,355,2.28333,0.3,0.15,0.65,5,1U1D,1.0,True,0.016,36,True,left,0.0,0.00020679202862083912,999,999,999,999,0,
356,0.5,0.1,1,0.425,0.26667,0.74167,356,2.00001,-0.86,-0.43333,0.06667,5,1D1U,1.0,False,0.016,36,False,left,0.0,0.00018858298426494002,999,999,999,999,0,
357,0.5,1.2,1,0.21667,0.425,0.875,357,2.68334,0.34,0.16667,0.66667,5,1U1D,2.0,False,0.017,36,False,right,0.0,0.00019895803416147828,999,999,999,999,0,
358,0.5,0.1,1,0.25,0.425,0.58333,358,1.80833,-0.9,-0.45,0.05,5,1D2U,2.0,True,0.017,20,False,right,0.0,0.0001787919900380075,999,999,999,999,0,
359,0.5,1.2,1,0.35833,0.39167,0.54167,359,2.75834,0.94,0.46667,0.96667,5,2D1U,2.0,False,0.016,20,False,right,0.0,0.00017633300740271807,999,999,999,999,0,
360,0.5,0.1,2,0.35833,0.43333,0.5,360,2.78333,0.98,0.49167,0.99167,5,2D1U,2.0,True,0.016,20,False,right,0.0,0.00018929201178252697,999,999,999,999,0,
361,0.5,1.2,2,0.43333,0.40833,0.85,361,2.24166,-0.9,-0.45,0.05,5,1D2U,2.0,False,0.017,20,False,right,0.0,0.00017008400755003095,999,999,999,999,0,
362,0.5,0.1,2,0.31667,0.275,0.63333,362,2.71667,0.98,0.49167,0.99167,5,2D1U,2.0,True,0.017,20,False,right,0.0,0.00017687497893348336,999,999,999,999,0,
363,0.5,1.2,2,0.23333,0.38333,0.75833,363,2.84166,0.94,0.46667,0.96667,5,2D1U,2.0,True,0.016,21,True,right,0.0,0.0002254159771837294,999,999,999,999,0,
364,0.5,0.1,2,0.39167,0.38333,0.425,364,2.35,0.3,0.15,0.65,5,1U1D,2.0,True,0.016,37,True,right,0.0,0.0001735829864628613,999,999,999,999,0,
365,0.5,1.2,2,0.25833,0.25,0.43333,365,1.49166,-0.9,-0.45,0.05,5,1D1U,2.0,False,0.017,36,False,right,0.0,0.00018283299868926406,999,999,999,999,0,
366,0.5,0.1,2,0.23333,0.425,0.54167,366,2.36667,0.34,0.16667,0.66667,5,1U1D,1.0,False,0.017,38,True,left,0.0,0.00016545900143682957,999,999,999,999,0,
367,0.5,1.2,2,0.23333,0.29167,0.44167,367,1.51667,-0.9,-0.45,0.05,5,1D2U,1.0,True,0.017,20,False,left,0.0,0.000185999961104244,999,999,999,999,0,
368,0.5,0.1,2,0.4,0.44167,0.75833,368,2.15,-0.9,-0.45,0.05,5,1D2U,2.0,False,0.017,20,False,right,0.0,0.00019987503765150905,999,999,999,999,0,
369,0.5,1.2,2,0.275,0.23333,0.66667,369,1.725,-0.9,-0.45,0.05,5,1D1U,1.0,True,0.017,36,False,left,0.0,0.00019229098688811064,999,999,999,999,0,
370,0.5,0.1,1,0.275,0.35833,0.59167,370,1.79167,-0.86,-0.43333,0.06667,5,1D1U,2.0,True,0.017,37,True,right,0.0,0.0001919580390676856,999,999,999,999,0,
371,0.5,1.2,1,0.375,0.35833,0.85833,371,2.14166,-0.9,-0.45,0.05,5,1D2U,2.0,True,0.016,20,False,right,0.0,0.00020991696510463953,999,999,999,999,0,
372,0.5,0.1,1,0.31667,0.325,0.75833,372,1.95,-0.9,-0.45,0.05,5,1D2U,1.0,False,0.016,20,False,left,0.0,0.00020495796343311667,999,999,999,999,0,
373,0.5,1.2,1,0.25,0.25,0.46667,373,1.51667,-0.9,-0.45,0.05,5,1D2U,2.0,True,0.017,20,False,right,0.0,0.00019291701028123498,999,999,999,999,0,
374,0.5,0.1,1,0.21667,0.36667,0.61667,374,1.79168,-0.82,-0.40833,0.09167,5,1D1U,1.0,False,0.016,37,False,left,0.0,0.00019162497483193874,999,999,999,999,0,
375,0.5,1.2,1,0.35,0.31667,0.86667,375,2.68334,0.3,0.15,0.65,5,1U1D,2.0,False,0.016,39,True,right,0.0,0.0001876670285128057,999,999,999,999,0,
376,0.5,0.1,1,0.25,0.34167,0.51667,376,1.65834,-0.9,-0.45,0.05,5,1D2U,2.0,True,0.016,20,False,right,0.0,0.00019941601203754544,999,999,999,999,0,
377,0.5,1.2,1,0.225,0.44167,0.625,377,1.85834,-0.86,-0.43333,0.06667,5,1D1U,2.0,True,0.016,38,True,right,0.0,0.00018849998014047742,999,999,999,999,0,
378,0.5,0.1,1,0.25,0.39167,0.45,378,2.225,0.26,0.13333,0.63333,5,1U1D,2.0,False,0.016,39,False,right,0.0,0.00016841699834913015,999,999,999,999,0,
379,0.5,1.2,1,0.36667,0.24167,0.6,379,1.77501,-0.86,-0.43333,0.06667,5,1D2U,1.0,False,0.016,21,True,left,0.0,0.00018350000027567148,999,999,999,999,0,
380,0.5,0.1,2,0.23333,0.45,0.43333,380,1.66666,-0.9,-0.45,0.05,5,1D2U,2.0,False,0.017,22,True,right,0.0,0.00016320799477398396,999,999,999,999,0,
381,0.5,1.2,2,0.24167,0.3,0.78333,381,1.875,-0.9,-0.45,0.05,5,1D2U,1.0,True,0.017,22,False,left,0.0,0.00016649998724460602,999,999,999,999,0,
382,0.5,0.1,2,0.4,0.325,0.49167,382,1.80834,-0.82,-0.40833,0.09167,5,1D1U,1.0,True,0.015,39,True,left,0.0,0.00017466599820181727,999,999,999,999,0,
383,0.5,1.2,2,0.20833,0.35833,0.725,383,1.89999,-0.78,-0.39167,0.10833,5,1D1U,2.0,False,0.017,39,False,right,0.0,0.000165084027685225,999,999,999,999,0,
384,0.5,0.1,2,0.425,0.24167,0.49167,384,1.75001,-0.82,-0.40833,0.09167,5,1D1U,1.0,True,0.017,40,True,left,0.0,0.0002179170260205865,999,999,999,999,0,
385,0.5,1.2,2,0.375,0.35833,0.69167,385,2.03333,-0.78,-0.39167,0.10833,5,1D1U,2.0,False,0.017,41,True,right,0.0,0.00016987498383969069,999,999,999,999,0,
386,0.5,0.1,2,0.35,0.43333,0.8,386,2.13333,-0.9,-0.45,0.05,5,1D2U,2.0,False,0.016,22,False,right,0.0,0.00017270800890401006,999,999,999,999,0,
387,0.5,1.2,2,0.375,0.275,0.675,387,1.875,-0.9,-0.45,0.05,5,1D2U,2.0,False,0.017,22,False,right,0.0,0.00016529200365766883,999,999,999,999,0,
388,0.5,0.1,2,0.4,0.35,0.79167,388,2.09167,-0.9,-0.45,0.05,5,1D2U,1.0,True,0.016,22,False,left,0.0,0.0001849160180427134,999,999,999,999,0,
