,standardDur,riseDur,order,preDur,postDur,isiDur,trial_num,totalDur,delta_dur_percents,deltaDurS,testDurS,intensities,current_stair,responses,is_correct,response_rts,stair_num_reversal,stair_is_reversal,response_keys,conflictDur,recordedOnsetVisualTest,recordedOffsetVisualTest,recordedDurVisualTest,recordedOnsetAudio,recordedOffsetAudio,recordedDurAudio,modalityPostCue
0,0.5,0.0,1,0.6167,0.425,0.2167,0,2.5834,0.65,0.325,0.825,5,3D1U,1.0,True,0.017,0,False,left,0.0,0.593439916963689,0.593439916963689,0.0,1.6262685839901678,2.1388365000020713,0.5125679160119034,
1,0.5,0.0,1,0.4333,0.5333,0.4167,1,2.0583,-0.65,-0.325,0.175,5,2U1D,1.0,False,0.013,0,False,left,0.0,0.4376532090245746,0.4376532090245746,0.0,1.0213915419881232,1.5225027920096181,0.5011112500214949,
2,0.5,0.0,2,0.5667,0.4833,0.5917,2,2.2167,-0.85,-0.425,0.075,5,2U1D,1.0,True,0.015,0,False,left,0.0,1.6589537499821745,1.6589537499821745,0.0,0.5641999170184135,1.067162166989874,0.5029622499714606,
3,0.5,0.0,1,0.625,0.5333,0.1,3,1.9333,-0.65,-0.325,0.175,5,3U1D,2.0,True,0.016,0,False,right,0.0,0.6290356250246987,0.6290356250246987,0.0,0.8955937910359353,1.399914666020777,0.5043208749848418,
4,0.5,0.0,2,0.5167,0.5583,0.75,4,3.15,0.65,0.325,0.825,5,2D1U,2.0,True,0.015,0,False,right,0.0,1.7677448749891482,1.7677448749891482,0.0,0.5172708329628222,1.0176852910080925,0.5004144580452703,
5,0.5,0.0,1,0.55,0.65,0.3917,5,2.9167,0.65,0.325,0.825,5,3D1U,2.0,False,0.014,0,False,right,0.0,0.5512062920024619,0.5512062920024619,0.0,1.7555887919734232,2.256114957970567,0.5005261659971438,
6,0.5,0.0,1,0.5,0.6,0.1833,6,2.3333,0.1,0.05,0.55,5,lapse_rate,2.0,False,0.014,0,False,right,0.0,0.5013373330002651,0.5013373330002651,0.0,1.2293415000312962,1.730423333006911,0.5010818329756148,
7,0.5,0.0,2,0.5667,0.4083,0.1917,7,2.4917,0.65,0.325,0.825,5,2D1U,1.0,False,0.013,0,False,left,0.0,1.2620103749795817,1.2620103749795817,0.0,0.5654115409706719,1.0668786250171252,0.5014670840464532,
8,0.5,0.0,1,0.6417,0.5083,0.2417,8,1.9667,-0.85,-0.425,0.075,5,2U1D,2.0,True,0.015,0,False,right,0.0,0.646660124999471,0.646660124999471,0.0,0.9503531249938533,1.448452249984257,0.49809912499040365,
9,0.5,0.0,1,0.4417,0.6417,0.45,9,2.9584,0.85,0.425,0.925,5,3D1U,1.0,True,0.005,0,False,left,0.0,0.44485458300914615,0.44485458300914615,0.0,1.8280408750288188,2.332772042020224,0.5047311669914052,
10,0.5,0.0,1,0.4333,0.4583,0.1,10,1.6666,-0.65,-0.325,0.175,5,3U1D,1.0,False,0.03,0,False,left,0.0,0.434058416984044,0.434058416984044,0.0,0.7008813329739496,1.2008349579991773,0.49995362502522767,
11,0.5,0.0,2,0.4667,0.4667,0.7833,11,2.9167,0.4,0.2,0.7,5,lapse_rate,2.0,True,0.004,0,False,right,0.0,1.7437743750051595,1.7437743750051595,0.0,0.4596935419831425,0.9596194170298986,0.4999258750467561,
12,0.5,0.0,1,0.5667,0.55,0.5333,12,2.2917,-0.716,-0.3583,0.1417,5,2U1D,1.0,False,0.013,1,True,left,0.0,0.5678168329759501,0.5678168329759501,0.0,1.234278624993749,1.7341806659824215,0.4999020409886725,
13,0.5,0.0,2,0.4167,0.5583,0.3167,13,2.7167,0.85,0.425,0.925,5,3D1U,2.0,True,0.014,0,False,right,0.0,1.2321808750275522,1.2321808750275522,0.0,0.4152244169963524,0.9151616670424119,0.4999372500460595,
14,0.5,0.0,2,0.4917,0.45,0.5833,14,2.95,0.85,0.425,0.925,5,2D1U,2.0,True,0.013,0,False,right,0.0,1.5784441249561496,1.5784441249561496,0.0,0.49376445898087695,0.9972870839992538,0.5035226250183769,
15,0.5,0.0,2,0.5667,0.5333,0.3833,15,2.2833,-0.4,-0.2,0.3,5,lapse_rate,2.0,False,0.029,0,False,right,0.0,1.4649968749727122,1.4649968749727122,0.0,0.5679991669603623,1.0680883339955471,0.5000891670351848,
16,0.5,0.0,1,0.55,0.6417,0.3833,16,2.15,-0.85,-0.425,0.075,5,3U1D,2.0,True,0.029,0,False,right,0.0,0.548301332979463,0.548301332979463,0.0,0.9995837080059573,1.5114390830276534,0.5118553750216961,
17,0.5,0.0,2,0.525,0.4833,0.7583,17,2.3666,-0.8058,-0.4,0.1,5,2U1D,1.0,True,0.015,2,True,left,0.0,1.7769603329943493,1.7769603329943493,0.0,0.5244991250219755,1.0245538330054842,0.5000547079835087,
18,0.5,0.0,1,0.4167,0.4083,0.725,18,2.975,0.85,0.425,0.925,5,2D1U,2.0,False,0.011,0,False,right,0.0,0.4152122920495458,0.4152122920495458,0.0,2.060994292027317,2.56460350000998,0.5036092079826631,
19,0.5,0.0,1,0.45,0.45,0.3833,19,1.8583,-0.85,-0.425,0.075,5,3U1D,1.0,False,0.013,0,False,left,0.0,0.4509230420226231,0.4509230420226231,0.0,0.9140178340021521,1.4142905839835294,0.5002727499813773,
20,0.5,0.0,2,0.575,0.6083,0.3167,20,2.925,0.85,0.425,0.925,5,3D1U,1.0,False,0.014,0,False,left,0.0,1.3939274590229616,1.3939274590229616,0.0,0.5773043340304866,1.077344292018097,0.5000399579876103,
21,0.5,0.0,1,0.425,0.4167,0.6917,21,2.5084,-0.05,-0.025,0.475,5,lapse_rate,1.0,False,0.014,0,False,left,0.0,0.4300583750009537,0.4300583750009537,0.0,1.585765875002835,2.084905459021684,0.49913958401884884,
22,0.5,0.0,2,0.4,0.6,0.7917,22,3.3167,1.05,0.525,1.025,5,3D1U,2.0,True,0.013,0,False,right,0.0,1.6921573750441894,1.6921573750441894,0.0,0.395544333034195,0.8948653750121593,0.49932104197796434,
23,0.5,0.0,1,0.4167,0.5833,0.8917,23,2.4417,-0.9,-0.45,0.05,5,3U1D,1.0,False,0.015,0,False,left,0.0,0.4152392499963753,0.4152392499963753,0.0,1.3610536250052974,1.8609651669976301,0.4999115419923328,
24,0.5,0.0,1,0.5167,0.6333,0.1333,24,2.8083,1.05,0.525,1.025,5,2D1U,2.0,False,0.028,0,False,right,0.0,0.5135786249884404,0.5135786249884404,0.0,1.6649059589835815,2.1638358749914914,0.4989299160079099,
25,0.5,0.0,1,0.6417,0.4167,0.1167,25,1.7751,-0.8058,-0.4,0.1,5,2U1D,1.0,False,0.015,2,True,left,0.0,0.6408838749630377,0.6408838749630377,0.0,0.8440478749689646,1.344831249967683,0.5007833749987185,
26,0.5,0.0,1,0.4833,0.5583,0.2417,26,2.3833,0.2,0.1,0.6,5,lapse_rate,2.0,False,0.016,0,False,right,0.0,0.48394679196644574,0.48394679196644574,0.0,1.3174170419806615,1.8172897920012474,0.49987275002058595,
27,0.5,0.0,2,0.4417,0.6,0.3333,27,2.275,-0.2,-0.1,0.4,5,lapse_rate,1.0,True,0.014,0,False,left,0.0,1.2709479580516927,1.2709479580516927,0.0,0.4381287500145845,0.9376687080366537,0.4995399580220692,
28,0.5,0.0,2,0.475,0.6083,0.7417,28,2.375,-0.9,-0.45,0.05,5,3U1D,2.0,False,0.016,0,False,right,0.0,1.7156919999979436,1.7156919999979436,0.0,0.4787089579622261,0.979067332984414,0.5003583750221878,
29,0.5,0.0,1,0.4333,0.6083,0.2917,29,1.8833,-0.8956,-0.45,0.05,5,2U1D,2.0,True,0.015,2,False,right,0.0,0.43378045898862183,0.43378045898862183,0.0,0.7669683339772746,1.2671561669558287,0.5001878329785541,
30,0.5,0.0,1,0.5833,0.4333,0.7083,30,3.3499,1.25,0.625,1.125,5,2D1U,2.0,False,0.015,0,False,right,0.0,0.5823825830011629,0.5823825830011629,0.0,2.412252207985148,2.911463124968577,0.49921091698342934,
31,0.5,0.0,2,0.5083,0.5083,0.3,31,2.8416,1.05,0.525,1.025,5,3D1U,2.0,True,0.03,0,False,right,0.0,1.3114217090187594,1.3114217090187594,0.0,0.5105975840124302,1.0104837090475485,0.4998861250351183,
32,0.5,0.0,1,0.5333,0.5583,0.1417,32,1.7833,-0.8956,-0.45,0.05,5,2U1D,2.0,True,0.013,2,False,right,0.0,0.5326315420097671,0.5326315420097671,0.0,0.7165695840376429,1.2165195420384407,0.4999499580007978,
33,0.5,0.0,1,0.6,0.575,0.0083,33,1.7333,-0.9,-0.45,0.05,5,3U1D,1.0,False,0.014,0,False,left,0.0,0.5968647500267252,0.5968647500267252,0.0,0.64650808298029,1.1478451250004582,0.5013370420201682,
34,0.5,0.0,2,0.4417,0.6417,0.2417,34,2.3001,-0.05,-0.025,0.475,5,lapse_rate,1.0,True,0.013,0,False,left,0.0,1.1826624579844065,1.1826624579844065,0.0,0.445783167029731,0.9458626250270754,0.5000794579973444,
35,0.5,0.0,1,0.525,0.5417,0.1667,35,2.9584,1.45,0.725,1.225,5,2D1U,2.0,False,0.012,0,False,right,0.0,0.5311503330012783,0.5311503330012783,0.0,1.9146536249900237,2.414406083000358,0.4997524580103345,
36,0.5,0.0,1,0.6417,0.5583,0.5167,36,3.2417,1.05,0.525,1.025,5,3D1U,1.0,True,0.015,0,False,left,0.0,0.6466424590325914,0.6466424590325914,0.0,2.1798149999813177,2.679541625024285,0.4997266250429675,
37,0.5,0.0,1,0.575,0.5083,0.7417,37,2.8,-0.05,-0.025,0.475,5,lapse_rate,1.0,False,0.014,0,False,left,0.0,0.5716904159635305,0.5716904159635305,0.0,1.7877154579618946,2.287110625009518,0.49939516704762354,
38,0.5,0.0,2,0.5583,0.4417,0.2583,38,3.0833,1.65,0.825,1.325,5,2D1U,2.0,True,0.012,0,False,right,0.0,1.315011249971576,1.315011249971576,0.0,0.5611689159995876,1.0615080000134185,0.5003390840138309,
39,0.5,0.0,2,0.5417,0.5583,0.575,39,2.225,-0.9,-0.45,0.05,5,3U1D,1.0,True,0.012,0,False,left,0.0,1.6175543330027722,1.6175543330027722,0.0,0.5474463329883292,1.046710291004274,0.4992639580159448,
40,0.5,0.0,2,0.5083,0.4,0.55,40,2.0583,-0.8058,-0.4,0.1,5,2U1D,2.0,False,0.014,3,True,right,0.0,1.5644674169598147,1.5644674169598147,0.0,0.5143826669664122,1.0144250419689342,0.500042375002522,
41,0.5,0.0,2,0.6083,0.45,0.7667,41,3.2833,0.916,0.4583,0.9583,5,3D1U,1.0,False,0.013,1,True,left,0.0,1.8911364160012454,1.8911364160012454,0.0,0.6241461249883287,1.1241834159591235,0.5000372909707949,
42,0.5,0.0,2,0.5083,0.525,0.25,42,3.1083,1.65,0.825,1.325,5,2D1U,1.0,False,0.014,0,False,left,0.0,1.2593821249902248,1.2593821249902248,0.0,0.5097501249983907,1.0098126669763587,0.5000625419779681,
43,0.5,0.0,1,0.4167,0.6083,0.2583,43,1.8333,-0.8956,-0.45,0.05,5,2U1D,2.0,True,0.013,4,True,right,0.0,0.4165002499939874,0.4165002499939874,0.0,0.7161722499877214,1.2166430419893004,0.500470792001579,
44,0.5,0.0,2,0.4083,0.5167,0.2417,44,2.6667,1.0058,0.5,1.0,5,3D1U,2.0,True,0.015,2,True,right,0.0,1.1455170839908533,1.1455170839908533,0.0,0.4088519589859061,0.9086738339974545,0.4998218750115484,
45,0.5,0.0,1,0.6333,0.4083,0.65,45,2.6666,-0.05,-0.025,0.475,5,lapse_rate,2.0,True,0.015,0,False,right,0.0,0.6318742909934372,0.6318742909934372,0.0,1.7485589999705553,2.2486703749746084,0.5001113750040531,
46,0.5,0.0,1,0.4917,0.4917,0.425,46,1.9584,-0.9,-0.45,0.05,5,3U1D,2.0,True,0.029,0,False,right,0.0,0.4975085830083117,0.4975085830083117,0.0,0.9639062079950236,1.4634997919783928,0.49959358398336917,
47,0.5,0.0,1,0.45,0.475,0.575,47,2.05,-0.9,-0.45,0.05,5,3U1D,1.0,False,0.014,0,False,left,0.0,0.45783204201143235,0.45783204201143235,0.0,1.0755382920033298,1.5754619170329534,0.4999236250296235,
48,0.5,0.0,1,0.5917,0.55,0.5917,48,2.7584,0.05,0.025,0.525,5,lapse_rate,1.0,True,0.015,0,False,left,0.0,0.5922750409808941,0.5922750409808941,0.0,1.6957153750117868,2.195525207964238,0.49980983295245096,
49,0.5,0.0,2,0.6167,0.4833,0.3,49,1.95,-0.8956,-0.45,0.05,5,2U1D,1.0,True,0.017,4,True,left,0.0,1.4175920419511385,1.4175920419511385,0.0,0.6176970420056023,1.1174309579655528,0.49973391595995054,
50,0.5,0.0,2,0.5833,0.475,0.275,50,2.8333,1.0058,0.5,1.0,5,3D1U,2.0,True,0.029,2,True,right,0.0,1.3530742079601623,1.3530742079601623,0.0,0.5843076659948565,1.0842558330041356,0.49994816700927913,
51,0.5,0.0,2,0.4167,0.45,0.025,51,2.8167,1.85,0.925,1.425,5,2D1U,2.0,True,0.015,0,False,right,0.0,0.9430977499578148,0.9430977499578148,0.0,0.413736832968425,0.9140539579675533,0.5003171249991283,
52,0.5,0.0,1,0.575,0.45,0.5833,52,3.5333,1.85,0.925,1.425,5,2D1U,2.0,False,0.014,0,False,right,0.0,0.5779535829788074,0.5779535829788074,0.0,2.5778625829843804,3.0780209579970688,0.5001583750126883,
53,0.5,0.0,2,0.6,0.4667,0.075,53,2.0417,-0.2,-0.1,0.4,5,lapse_rate,2.0,False,0.014,0,False,right,0.0,1.1785054589854553,1.1785054589854553,0.0,0.5995799169759266,1.1023840839625336,0.502804166986607,
54,0.5,0.0,2,0.6333,0.4667,0.2333,54,1.8833,-0.9,-0.45,0.05,5,3U1D,2.0,False,0.014,0,False,right,0.0,1.3647962500108406,1.3647962500108406,0.0,0.6318533340236172,1.13224808400264,0.5003947499790229,
55,0.5,0.0,1,0.4333,0.5333,0.1083,55,2.5749,1.0058,0.5,1.0,5,3D1U,2.0,False,0.016,2,True,right,0.0,0.4313673329888843,0.4313673329888843,0.0,1.5308884999831207,2.0280777500011027,0.497189250017982,
56,0.5,0.0,2,0.625,0.6417,0.3917,56,2.2584,-0.8058,-0.4,0.1,5,2U1D,1.0,True,0.013,5,True,left,0.0,1.5342749999836087,1.5342749999836087,0.0,0.6342799169942737,1.13401120796334,0.4997312909690663,
57,0.5,0.0,2,0.575,0.5917,0.075,57,1.7917,-0.9,-0.45,0.05,5,3U1D,2.0,False,0.016,0,False,right,0.0,1.14864354202291,1.14864354202291,0.0,0.5781697920174338,1.078015958017204,0.49984616599977016,
58,0.5,0.0,1,0.6417,0.475,0.6917,58,3.7584,1.9,0.95,1.45,5,2D1U,2.0,False,0.014,0,False,right,0.0,0.6401263329898939,0.6401263329898939,0.0,2.7712317500263453,3.27181925001787,0.500587499991525,
59,0.5,0.0,2,0.5083,0.5,0.2417,59,1.85,-0.8058,-0.4,0.1,5,2U1D,2.0,False,0.013,5,True,right,0.0,1.2480660839937627,1.2480660839937627,0.0,0.5112265840289183,1.011469000019133,0.5002424159902148,
60,0.5,0.0,2,0.475,0.6417,0.55,60,3.2167,1.0956,0.55,1.05,5,3D1U,2.0,True,0.014,2,False,right,0.0,1.521395666000899,1.521395666000899,0.0,0.47140999999828637,0.970995707961265,0.49958570796297863,
61,0.5,0.0,2,0.625,0.5917,0.225,61,2.5417,0.2,0.1,0.6,5,lapse_rate,2.0,True,0.016,0,False,right,0.0,1.3463000410120003,1.3463000410120003,0.0,0.6280825000139885,1.1283440829720348,0.5002615829580463,
62,0.5,0.0,1,0.55,0.6,0.325,62,3.025,1.0956,0.55,1.05,5,3D1U,2.0,False,0.012,2,False,right,0.0,0.5509924159850925,0.5509924159850925,0.0,1.9211005410179496,2.422084707999602,0.5009841669816524,
63,0.5,0.0,2,0.4667,0.575,0.1583,63,3.15,1.9,0.95,1.45,5,2D1U,1.0,False,0.015,0,False,left,0.0,1.1242446250398643,1.1242446250398643,0.0,0.4611331670312211,0.9614159170305356,0.5002827499993145,
64,0.5,0.0,1,0.5,0.5667,0.4417,64,2.0584,-0.9,-0.45,0.05,5,3U1D,1.0,False,0.015,0,False,left,0.0,0.5064712080056779,0.5064712080056779,0.0,0.987751082982868,1.4879929160233587,0.5002418330404907,
65,0.5,0.0,2,0.425,0.625,0.25,65,1.85,-0.8956,-0.45,0.05,5,2U1D,1.0,True,0.014,6,True,left,0.0,1.1753315839450806,1.1753315839450806,0.0,0.4256987499538809,0.925895333988592,0.5001965840347111,
66,0.5,0.0,1,0.4167,0.4083,0.3417,66,2.2667,0.2,0.1,0.6,5,lapse_rate,1.0,True,0.013,0,False,left,0.0,0.4142077500000596,0.4142077500000596,0.0,1.3602659590542316,1.8602032500202768,0.4999372909660451,
67,0.5,0.0,2,0.475,0.4833,0.8583,67,3.4083,1.1853,0.5917,1.0917,5,3D1U,1.0,False,0.029,2,False,left,0.0,1.84548287501093,1.84548287501093,0.0,0.4756250419886783,0.9795703749987297,0.5039453330100514,
68,0.5,0.0,2,0.5833,0.6167,0.1833,68,1.9333,-0.8956,-0.45,0.05,5,2U1D,2.0,False,0.013,6,True,right,0.0,1.2624317500158213,1.2624317500158213,0.0,0.5805062499712221,1.0808574159746058,0.5003511660033837,
69,0.5,0.0,2,0.5667,0.5417,0.4917,69,3.5501,1.9,0.95,1.45,5,2D1U,2.0,True,0.014,0,False,right,0.0,1.5648788749822415,1.5648788749822415,0.0,0.5648727919906378,1.0663063329993747,0.5014335410087369,
70,0.5,0.0,2,0.6083,0.6333,0.55,70,2.3416,-0.9,-0.45,0.05,5,3U1D,1.0,True,0.015,0,False,left,0.0,1.6800049589946866,1.6800049589946866,0.0,0.6299086670042016,1.1295679589966312,0.49965929199242964,
71,0.5,0.0,2,0.5667,0.5333,0.2583,71,2.4083,0.1,0.05,0.55,5,lapse_rate,2.0,True,0.029,0,False,right,0.0,1.3228729169932194,1.3228729169932194,0.0,0.5593429580330849,1.058833874994889,0.49949091696180403,
72,0.5,0.0,2,0.5,0.5167,0.9,72,2.4667,-0.9,-0.45,0.05,5,2U1D,2.0,False,0.015,6,False,right,0.0,1.8916651670006104,1.8916651670006104,0.0,0.4917792089981958,0.9918064170051366,0.5000272080069408,
73,0.5,0.0,2,0.425,0.5833,0.4333,73,1.9916,-0.9,-0.45,0.05,5,3U1D,1.0,True,0.029,0,False,left,0.0,1.3572832920472138,1.3572832920472138,0.0,0.42368000000715256,0.9235709170461632,0.4998909170390107,
74,0.5,0.0,2,0.5417,0.4333,0.15,74,3.075,1.9,0.95,1.45,5,2D1U,2.0,True,0.011,0,False,right,0.0,1.1953981660190038,1.1953981660190038,0.0,0.5412622500443831,1.0486341250361875,0.5073718749918044,
75,0.5,0.0,2,0.6083,0.4667,0.8083,75,3.0833,0.4,0.2,0.7,5,lapse_rate,1.0,False,0.014,0,False,left,0.0,1.9180593329947442,1.9180593329947442,0.0,0.6139107919880189,1.1145813330076635,0.5006705410196446,
76,0.5,0.0,1,0.475,0.5417,0.75,76,3.4,1.2751,0.6333,1.1333,5,3D1U,2.0,False,0.013,2,False,right,0.0,0.47751420800341293,0.47751420800341293,0.0,2.3596070000203326,2.8602281250059605,0.5006211249856278,
77,0.5,0.0,2,0.4167,0.5833,0.8,77,3.4833,1.3649,0.6833,1.1833,5,3D1U,2.0,True,0.005,2,False,right,0.0,1.7147787499707192,1.7147787499707192,0.0,0.41450908401748165,0.9136058340081945,0.49909674999071285,
78,0.5,0.0,1,0.4833,0.4333,0.225,78,3.0249,1.766,0.8833,1.3833,5,2D1U,2.0,False,0.057,1,True,right,0.0,0.48476375004975125,0.48476375004975125,0.0,2.08447033300763,2.5846735830418766,0.5002032500342466,
79,0.5,0.0,1,0.4167,0.4417,0.3917,79,2.3001,0.1,0.05,0.55,5,lapse_rate,1.0,True,0.014,0,False,left,0.0,0.41816841601394117,0.41816841601394117,0.0,1.3550097499974072,1.8552265830221586,0.5002168330247514,
80,0.5,0.0,2,0.625,0.6417,0.7917,80,2.6084,-0.9,-0.45,0.05,5,2U1D,2.0,False,0.014,6,False,right,0.0,1.9142395000089891,1.9142395000089891,0.0,0.6272479590261355,1.126706084003672,0.4994581249775365,
81,0.5,0.0,1,0.45,0.4917,0.3083,81,1.8,-0.9,-0.45,0.05,5,3U1D,1.0,False,0.014,0,False,left,0.0,0.448669167002663,0.448669167002663,0.0,0.7989926669979468,1.3002065839827992,0.5012139169848524,
82,0.5,0.0,2,0.4833,0.5,0.3583,82,1.8916,-0.9,-0.45,0.05,5,2U1D,1.0,True,0.014,6,False,left,0.0,1.3450052500120364,1.3450052500120364,0.0,0.48248091601999477,0.9815377080230974,0.4990567920031026,
83,0.5,0.0,1,0.4667,0.4167,0.7917,83,2.2251,-0.9,-0.45,0.05,5,3U1D,2.0,True,0.014,0,False,right,0.0,0.46374274999834597,0.46374274999834597,0.0,1.2965312079759315,1.7982698749983683,0.5017386670224369,
84,0.5,0.0,2,0.4917,0.4833,0.4917,84,3.15,1.3649,0.6833,1.1833,5,3D1U,1.0,False,0.015,2,False,left,0.0,1.4912025420344435,1.4912025420344435,0.0,0.49520183401182294,0.9952525420230813,0.5000507080112584,
85,0.5,0.0,1,0.425,0.45,0.5,85,3.3,1.8558,0.925,1.425,5,2D1U,1.0,True,0.013,2,True,left,0.0,0.42566420801449567,0.42566420801449567,0.0,2.341256625019014,2.8423592079780065,0.5011025829589926,
86,0.5,0.0,2,0.425,0.475,0.0,86,1.95,0.1,0.05,0.55,5,lapse_rate,2.0,True,0.012,0,False,right,0.0,0.9262975000310689,0.9262975000310689,0.0,0.426559042010922,0.9262975000310689,0.49973845802014694,
87,0.5,0.0,2,0.4417,0.575,0.1,87,3.0417,1.8558,0.925,1.425,5,2D1U,2.0,True,0.012,2,True,right,0.0,1.0429391670040786,1.0429391670040786,0.0,0.44278183300048113,0.9429164580069482,0.5001346250064671,
88,0.5,0.0,2,0.6167,0.6333,0.6833,88,2.4833,-0.9,-0.45,0.05,5,2U1D,2.0,False,0.011,6,False,right,0.0,1.7990166250383481,1.7990166250383481,0.0,0.6161972500267439,1.1162209170288406,0.5000236670020968,
89,0.5,0.0,1,0.475,0.5083,0.725,89,3.4333,1.4547,0.725,1.225,5,3D1U,1.0,True,0.013,2,False,left,0.0,0.48281900002621114,0.48281900002621114,0.0,2.4312627090257592,2.9306117920204997,0.49934908299474046,
90,0.5,0.0,1,0.5,0.4667,0.5,90,2.4167,-0.1,-0.05,0.45,5,lapse_rate,2.0,True,0.014,0,False,right,0.0,0.5012323330156505,0.5012323330156505,0.0,1.4375541250337847,1.9384030000073835,0.5008488749735989,
91,0.5,0.0,2,0.6417,0.4917,0.3083,91,1.9917,-0.9,-0.45,0.05,5,3U1D,1.0,True,0.014,0,False,left,0.0,1.454674625012558,1.454674625012558,0.0,0.6350193750113249,1.1506375839817338,0.5156182089704089,
92,0.5,0.0,1,0.4417,0.525,0.65,92,2.1667,-0.9,-0.45,0.05,5,3U1D,1.0,False,0.013,0,False,left,0.0,0.44307629100512713,0.44307629100512713,0.0,1.129382874991279,1.6311391250346787,0.5017562500433996,
93,0.5,0.0,2,0.6,0.4667,0.3667,93,3.1584,1.4547,0.725,1.225,5,3D1U,1.0,False,0.013,2,False,left,0.0,1.4632279999786988,1.4632279999786988,0.0,0.599058874999173,1.0992358750081621,0.5001770000089891,
94,0.5,0.0,2,0.6167,0.5083,0.025,94,3.0333,1.766,0.8833,1.3833,5,2D1U,2.0,True,0.006,3,True,right,0.0,1.1414339169859886,1.1414339169859886,0.0,0.611522999999579,1.1119683330180123,0.5004453330184333,
95,0.5,0.0,2,0.525,0.6,0.8167,95,2.4917,-0.9,-0.45,0.05,5,2U1D,2.0,False,0.012,6,False,right,0.0,1.8378840839723125,1.8378840839723125,0.0,0.522564709011931,1.0222175419912674,0.4996528329793364,
96,0.5,0.0,2,0.6417,0.4167,0.2917,96,2.3751,0.05,0.025,0.525,5,lapse_rate,1.0,False,0.015,0,False,left,0.0,1.4330928749986924,1.4330928749986924,0.0,0.6458615830051713,1.1457075829966925,0.49984599999152124,
97,0.5,0.0,1,0.5583,0.4167,0.0833,97,1.6083,-0.9,-0.45,0.05,5,3U1D,1.0,False,0.014,0,False,left,0.0,0.5544825830147602,0.5544825830147602,0.0,0.6842569999862462,1.184281791036483,0.5000247910502367,
98,0.5,0.0,1,0.4083,0.5833,0.2,98,3.0749,1.766,0.8833,1.3833,5,2D1U,1.0,True,0.029,3,True,left,0.0,0.40973945800215006,0.40973945800215006,0.0,1.9783506670501083,2.480111417011358,0.5017607499612495,
99,0.5,0.0,2,0.55,0.4333,0.875,99,2.4083,-0.9,-0.45,0.05,5,2U1D,1.0,True,0.017,6,False,left,0.0,1.9421799999545328,1.9421799999545328,0.0,0.5451979999779724,1.0626997079816647,0.5175017080036923,
100,0.5,0.0,2,0.6333,0.5417,0.5,100,2.65,-0.05,-0.025,0.475,5,lapse_rate,2.0,False,0.014,0,False,right,0.0,1.6340316249988973,1.6340316249988973,0.0,0.6347545830067247,1.1341472910135053,0.4993927080067806,
101,0.5,0.0,2,0.4333,0.4417,0.1083,101,2.7583,1.5445,0.775,1.275,5,3D1U,1.0,False,0.029,2,False,left,0.0,1.0417178749921732,1.0417178749921732,0.0,0.4269069579895586,0.9287840409670025,0.5018770829774439,
102,0.5,0.0,2,0.525,0.6417,0.0333,102,1.75,-0.9,-0.45,0.05,5,3U1D,2.0,False,0.014,0,False,right,0.0,1.0581506250309758,1.0581506250309758,0.0,0.5241888330201618,1.02417783299461,0.49998899997444823,
103,0.5,0.0,2,0.5083,0.45,0.425,103,3.2,1.6342,0.8167,1.3167,5,3D1U,1.0,False,0.013,2,False,left,0.0,1.430052874959074,1.430052874959074,0.0,0.5101251250016503,1.0107858330011368,0.5006607079994865,
104,0.5,0.0,1,0.625,0.4167,0.625,104,2.7167,0.1,0.05,0.55,5,lapse_rate,2.0,False,0.014,0,False,right,0.0,0.6261509589967318,0.6261509589967318,0.0,1.7930275420076214,2.2979378339950927,0.5049102919874713,
105,0.5,0.0,2,0.4167,0.4917,0.8333,105,2.2917,-0.9,-0.45,0.05,5,2U1D,2.0,False,0.016,6,False,right,0.0,1.7473948749830015,1.7473948749830015,0.0,0.41440241696545854,0.9124454999691807,0.49804308300372213,
106,0.5,0.0,1,0.6083,0.4417,0.7083,106,3.6,1.6762,0.8417,1.3417,5,2D1U,2.0,False,0.013,3,False,right,0.0,0.605259042000398,0.605259042000398,0.0,2.6510957080172375,3.151087499980349,0.4999917919631116,
107,0.5,0.0,2,0.475,0.5667,0.4333,107,2.5,0.05,0.025,0.525,5,lapse_rate,2.0,True,0.029,0,False,right,0.0,1.407957500021439,1.407957500021439,0.0,0.47482912498526275,0.9746555829769932,0.4998264579917304,
108,0.5,0.0,2,0.575,0.625,0.4917,108,2.2417,-0.9,-0.45,0.05,5,2U1D,1.0,True,0.029,6,False,left,0.0,1.5605854580062442,1.5605854580062442,0.0,0.573470333009027,1.073555207985919,0.500084874976892,
109,0.5,0.0,2,0.5833,0.5333,0.6333,109,2.2999,-0.9,-0.45,0.05,5,3U1D,1.0,True,0.01,0,False,left,0.0,1.7103356249863282,1.7103356249863282,0.0,0.5770659999689087,1.0765223339549266,0.49945633398601785,
110,0.5,0.0,2,0.5583,0.6,0.2167,110,3.2333,1.724,0.8583,1.3583,5,3D1U,1.0,False,0.013,2,False,left,0.0,1.2741789590218104,1.2741789590218104,0.0,0.557649084017612,1.0573384169838391,0.4996893329662271,
111,0.5,0.0,1,0.5083,0.6,0.6917,111,3.6833,1.766,0.8833,1.3833,5,2D1U,1.0,True,0.01,4,True,left,0.0,0.5083992499858141,0.5083992499858141,0.0,2.574954291980248,3.075140916975215,0.5001866249949671,
112,0.5,0.0,2,0.55,0.5917,0.2833,112,3.3333,1.8138,0.9083,1.4083,5,3D1U,2.0,True,0.013,2,False,right,0.0,1.3352334590163082,1.3352334590163082,0.0,0.5511751670273952,1.0583887500106357,0.5072135829832405,
113,0.5,0.0,2,0.625,0.5083,0.275,113,3.2916,1.766,0.8833,1.3833,5,2D1U,2.0,True,0.012,4,True,right,0.0,1.397175165999215,1.397175165999215,0.0,0.6292821659590118,1.129180832998827,0.49989866703981534,
114,0.5,0.0,2,0.5333,0.525,0.85,114,2.4583,-0.9,-0.45,0.05,5,2U1D,1.0,True,0.016,6,False,left,0.0,1.8980512919952162,1.8980512919952162,0.0,0.545037042000331,1.0499155420111492,0.5048785000108182,
115,0.5,0.0,1,0.575,0.425,0.0167,115,1.5667,-0.9,-0.45,0.05,5,3U1D,2.0,True,0.013,0,False,right,0.0,0.5698824579594657,0.5698824579594657,0.0,0.634198582964018,1.1343250829959288,0.5001265000319108,
116,0.5,0.0,1,0.65,0.4333,0.1417,116,2.175,-0.1,-0.05,0.45,5,lapse_rate,2.0,True,0.029,0,False,right,0.0,0.6464468750054948,0.6464468750054948,0.0,1.2291923749726266,1.7305447090184316,0.501352334045805,
117,0.5,0.0,2,0.4167,0.4333,0.0583,117,2.8166,1.8138,0.9083,1.4083,5,3D1U,1.0,False,0.014,2,False,left,0.0,0.9750579579849727,0.9750579579849727,0.0,0.4127690420136787,0.9126475829980336,0.4998785409843549,
118,0.5,0.0,2,0.4417,0.525,0.0917,118,1.6501,-0.8102,-0.4083,0.0917,5,2U1D,1.0,True,0.014,7,True,left,0.0,1.0436508340062574,1.0436508340062574,0.0,0.4473787500173785,0.9473506250069477,0.4999718749895692,
119,0.5,0.0,2,0.625,0.5667,0.6167,119,2.8584,0.1,0.05,0.55,5,lapse_rate,1.0,False,0.006,0,False,left,0.0,1.7458581660175696,1.7458581660175696,0.0,0.6295171660021879,1.129442416015081,0.49992525001289323,
120,0.5,0.0,2,0.5333,0.5083,0.5667,120,2.1583,-0.9,-0.45,0.05,5,3U1D,2.0,False,0.016,0,False,right,0.0,1.5924249999807216,1.5924249999807216,0.0,0.5258201250107959,1.0260852500214241,0.5002651250106283,
121,0.5,0.0,2,0.5917,0.6,0.85,121,3.8834,1.6762,0.8417,1.3417,5,2D1U,1.0,False,0.014,5,True,left,0.0,1.9378013329696842,1.9378013329696842,0.0,0.5871511249570176,1.0880601249518804,0.5009089999948628,
122,0.5,0.0,1,0.5417,0.55,0.8667,122,2.8584,-0.2,-0.1,0.4,5,lapse_rate,2.0,True,0.012,0,False,right,0.0,0.5425519589916803,0.5425519589916803,0.0,1.7963366250041872,2.2978356669773348,0.5014990419731475,
123,0.5,0.0,2,0.55,0.5333,0.1667,123,3.2,1.9,0.95,1.45,5,3D1U,2.0,True,0.013,2,False,right,0.0,1.210373707988765,1.210373707988765,0.0,0.5434544999734499,1.0452154999948107,0.5017610000213608,
124,0.5,0.0,1,0.5917,0.5667,0.5333,124,3.575,1.766,0.8833,1.3833,5,2D1U,2.0,False,0.014,6,True,right,0.0,0.5960088749998249,0.5960088749998249,0.0,2.4998289159848355,2.997422499989625,0.4975935840047896,
125,0.5,0.0,2,0.55,0.6167,0.0167,125,1.7751,-0.8102,-0.4083,0.0917,5,2U1D,2.0,False,0.014,7,True,right,0.0,1.0621660839533433,1.0621660839533433,0.0,0.5449282089830376,1.045012249960564,0.5000840409775265,
126,0.5,0.0,1,0.4167,0.4167,0.8667,126,2.2501,-0.9,-0.45,0.05,5,3U1D,2.0,True,0.014,0,False,right,0.0,0.41349275002721697,0.41349275002721697,0.0,1.3260606660041958,1.8265295409946702,0.5004688749904744,
127,0.5,0.0,2,0.5583,0.4583,0.1167,127,3.0833,1.9,0.95,1.45,5,3D1U,1.0,False,0.014,2,False,left,0.0,1.1755262500373647,1.1755262500373647,0.0,0.5588832920184359,1.0594804580323398,0.5005971660139039,
128,0.5,0.0,1,0.45,0.4417,0.825,128,2.2667,-0.9,-0.45,0.05,5,2U1D,1.0,False,0.013,8,True,left,0.0,0.4472099579870701,0.4472099579870701,0.0,1.313327667012345,1.8138704170123674,0.5005427500000224,
129,0.5,0.0,1,0.5583,0.5583,0.175,129,3.2166,1.8558,0.925,1.425,5,2D1U,2.0,False,0.014,6,False,right,0.0,0.5599987920140848,0.5599987920140848,0.0,2.1468383339815773,2.6475213749799877,0.5006830409984104,
130,0.5,0.0,1,0.6083,0.4417,0.45,130,2.4,-0.2,-0.1,0.4,5,lapse_rate,2.0,True,0.014,0,False,right,0.0,0.6074198330170475,0.6074198330170475,0.0,1.4550007910002023,1.9585189160425216,0.5035181250423193,
131,0.5,0.0,2,0.425,0.5417,0.8,131,2.3167,-0.9,-0.45,0.05,5,3U1D,2.0,False,0.013,0,False,right,0.0,1.728714958007913,1.728714958007913,0.0,0.427993040997535,0.9279568750062026,0.4999638340086676,
132,0.5,0.0,2,0.4417,0.425,0.5083,132,1.925,-0.9,-0.45,0.05,5,3U1D,1.0,True,0.016,0,False,left,0.0,1.4478279169998132,1.4478279169998132,0.0,0.44433795800432563,0.94395883299876,0.4996208749944344,
133,0.5,0.0,1,0.6167,0.6333,0.4333,133,3.6333,1.9,0.95,1.45,5,2D1U,2.0,False,0.01,6,False,right,0.0,0.6176686250255443,0.6176686250255443,0.0,2.504589542048052,3.017723000026308,0.513133457978256,
134,0.5,0.0,1,0.6417,0.45,0.325,134,2.4417,0.05,0.025,0.525,5,lapse_rate,2.0,False,0.016,0,False,right,0.0,0.6478460000362247,0.6478460000362247,0.0,1.4848347920342349,1.9859065840137191,0.5010717919794843,
135,0.5,0.0,2,0.425,0.5417,0.8833,135,2.4,-0.9,-0.45,0.05,5,2U1D,2.0,False,0.016,8,False,right,0.0,1.8343977499753237,1.8343977499753237,0.0,0.434531666978728,0.9343955829972401,0.4998639160185121,
136,0.5,0.0,2,0.4,0.575,0.7333,136,3.6583,1.9,0.95,1.45,5,3D1U,2.0,True,0.011,2,False,right,0.0,1.6427130000083707,1.6427130000083707,0.0,0.39550250000320375,0.8971327079925686,0.5016302079893649,
137,0.5,0.0,2,0.5917,0.65,0.1833,137,1.975,-0.9,-0.45,0.05,5,2U1D,2.0,False,0.013,8,False,right,0.0,1.2814929999876767,1.2814929999876767,0.0,0.5961072500213049,1.0978849590173922,0.5017777089960873,
138,0.5,0.0,2,0.6333,0.4833,0.35,138,2.5166,0.1,0.05,0.55,5,lapse_rate,1.0,False,0.015,0,False,left,0.0,1.4809847080032341,1.4809847080032341,0.0,0.6309713749797083,1.13217454100959,0.5012031660298817,
139,0.5,0.0,2,0.6333,0.4333,0.8917,139,2.5083,-0.9,-0.45,0.05,5,3U1D,2.0,False,0.029,0,False,right,0.0,2.026344000012614,2.026344000012614,0.0,0.6314582910272293,1.1303557499777526,0.4988974589505233,
140,0.5,0.0,2,0.4667,0.6417,0.5417,140,3.6001,1.9,0.95,1.45,5,2D1U,2.0,True,0.012,6,False,right,0.0,1.5075745000503957,1.5075745000503957,0.0,0.46181512501789257,0.9607855830108747,0.4989704579929821,
141,0.5,0.0,1,0.4833,0.4667,0.8333,141,3.7333,1.9,0.95,1.45,5,3D1U,1.0,True,0.016,2,False,left,0.0,0.48133987496839836,0.48133987496839836,0.0,2.761127458012197,3.265126792015508,0.5039993340033107,
142,0.5,0.0,2,0.525,0.4583,0.5583,142,3.4916,1.9,0.95,1.45,5,2D1U,1.0,False,0.013,6,False,left,0.0,1.5843586249975488,1.5843586249975488,0.0,0.5213254580157809,1.0219483749824576,0.5006229169666767,
143,0.5,0.0,1,0.625,0.575,0.6917,143,2.9167,0.05,0.025,0.525,5,lapse_rate,2.0,False,0.005,0,False,right,0.0,0.6258787920232862,0.6258787920232862,0.0,1.8287892499938607,2.346343708981294,0.5175544589874335,
144,0.5,0.0,1,0.5333,0.5667,0.85,144,2.5,-0.9,-0.45,0.05,5,3U1D,2.0,True,0.016,0,False,right,0.0,0.5335070840083063,0.5335070840083063,0.0,1.4217164590372704,1.9219927500234917,0.5002762909862213,
145,0.5,0.0,2,0.5917,0.5417,0.025,145,3.1084,1.9,0.95,1.45,5,3D1U,2.0,True,0.004,2,False,right,0.0,1.1175019160145894,1.1175019160145894,0.0,0.587886499997694,1.0887777910102159,0.5008912910125218,
146,0.5,0.0,2,0.4167,0.4833,0.5417,146,1.9917,-0.9,-0.45,0.05,5,2U1D,2.0,False,0.014,8,False,right,0.0,1.4544411670067348,1.4544411670067348,0.0,0.4177590840263292,0.9173237920040265,0.49956470797769725,
147,0.5,0.0,2,0.6083,0.5583,0.1583,147,3.2332,1.8102,0.9083,1.4083,5,3D1U,1.0,False,0.016,3,True,left,0.0,1.2704242920153774,1.2704242920153774,0.0,0.6037780829938129,1.1085161669761874,0.5047380839823745,
148,0.5,0.0,1,0.5917,0.4833,0.5583,148,2.1833,-0.9,-0.45,0.05,5,2U1D,2.0,True,0.014,8,False,right,0.0,0.5880507080000825,0.5880507080000825,0.0,1.1878824580344371,1.6880364160169847,0.5001539579825476,
149,0.5,0.0,2,0.625,0.525,0.6,149,2.3,-0.9,-0.45,0.05,5,3U1D,2.0,False,0.014,0,False,right,0.0,1.7260557080153376,1.7260557080153376,0.0,0.6259462920133956,1.126104041992221,0.5001577499788254,
150,0.5,0.0,2,0.4417,0.65,0.35,150,3.3917,1.9,0.95,1.45,5,2D1U,2.0,True,0.014,6,False,right,0.0,1.2884642909630202,1.2884642909630202,0.0,0.4394919999758713,0.9396472909720615,0.5001552909961902,
151,0.5,0.0,1,0.45,0.5917,0.6667,151,2.9084,0.4,0.2,0.7,5,lapse_rate,2.0,False,0.015,0,False,right,0.0,0.446528667001985,0.446528667001985,0.0,1.8094459169660695,2.3098857500008307,0.5004398330347613,
152,0.5,0.0,1,0.4333,0.5083,0.2,152,3.0916,1.9,0.95,1.45,5,2D1U,2.0,False,0.029,6,False,right,0.0,0.4311805830220692,0.4311805830220692,0.0,2.0774006660212763,2.577101707982365,0.4997010419610888,
153,0.5,0.0,1,0.625,0.4417,0.4417,153,3.4584,1.9,0.95,1.45,5,3D1U,1.0,True,0.013,4,True,left,0.0,0.618053084006533,0.618053084006533,0.0,2.504662834049668,3.003559375007171,0.498896540957503,
154,0.5,0.0,2,0.5,0.5667,0.75,154,2.7917,-0.05,-0.025,0.475,5,lapse_rate,2.0,False,0.017,0,False,right,0.0,1.746950291970279,1.746950291970279,0.0,0.49675566697260365,0.9973840829916298,0.5006284160190262,
155,0.5,0.0,2,0.4,0.65,0.8833,155,2.4833,-0.9,-0.45,0.05,5,2U1D,1.0,True,0.016,8,False,left,0.0,1.7845553329680115,1.7845553329680115,0.0,0.4010704579995945,0.9008777909912169,0.4998073329916224,
156,0.5,0.0,1,0.5917,0.45,0.0917,156,1.6834,-0.9,-0.45,0.05,5,3U1D,2.0,True,0.015,0,False,right,0.0,0.588360957975965,0.588360957975965,0.0,0.7215501249884255,1.220582458015997,0.49903233302757144,
157,0.5,0.0,2,0.4833,0.4333,0.0667,157,1.575,-0.8102,-0.4083,0.0917,5,2U1D,1.0,True,0.014,9,True,left,0.0,1.0556347079691477,1.0556347079691477,0.0,0.4829124169773422,0.9832747919717804,0.5003623749944381,
158,0.5,0.0,1,0.5167,0.4333,0.3167,158,3.2167,1.9,0.95,1.45,5,3D1U,1.0,True,0.013,4,True,left,0.0,0.5222764580394141,0.5222764580394141,0.0,2.284401916025672,2.7842141250148416,0.49981220898916945,
159,0.5,0.0,1,0.625,0.55,0.2833,159,3.4083,1.9,0.95,1.45,5,2D1U,1.0,True,0.012,6,False,left,0.0,0.6358957909978926,0.6358957909978926,0.0,2.369112665997818,2.8684414580347948,0.49932879203697667,
160,0.5,0.0,2,0.6417,0.4083,0.6167,160,2.2167,-0.9,-0.45,0.05,5,3U1D,2.0,False,0.017,0,False,right,0.0,1.7521388749592006,1.7521388749592006,0.0,0.637241541990079,1.137115791963879,0.49987424997380003,
161,0.5,0.0,1,0.55,0.525,0.7417,161,2.7667,-0.1,-0.05,0.45,5,lapse_rate,1.0,False,0.014,0,False,left,0.0,0.551124790974427,0.551124790974427,0.0,1.7346217499580234,2.239070374984294,0.5044486250262707,
162,0.5,0.0,2,0.55,0.4417,0.3167,162,1.8584,-0.9,-0.45,0.05,5,3U1D,1.0,True,0.011,0,False,left,0.0,1.364380374958273,1.364380374958273,0.0,0.5475118340109475,1.0481254999758676,0.5006136659649201,
163,0.5,0.0,1,0.5167,0.45,0.75,163,2.3084,-0.8102,-0.4083,0.0917,5,2U1D,2.0,True,0.013,9,True,right,0.0,0.5176912500173785,0.5176912500173785,0.0,1.3510283750365488,1.8508756250375882,0.49984725000103936,
164,0.5,0.0,1,0.4333,0.6333,0.7833,164,2.8249,-0.05,-0.025,0.475,5,lapse_rate,1.0,False,0.017,0,False,left,0.0,0.43178449996048585,0.43178449996048585,0.0,1.6809565829462372,2.181599416944664,0.5006428339984268,
165,0.5,0.0,1,0.425,0.4917,0.0583,165,2.925,1.9,0.95,1.45,5,2D1U,2.0,False,0.004,6,False,right,0.0,0.42142237501684576,0.42142237501684576,0.0,1.9209840830299072,2.4209961669985205,0.5000120839686133,
166,0.5,0.0,1,0.5833,0.5833,0.825,166,3.9416,1.9,0.95,1.45,5,3D1U,1.0,True,0.017,4,True,left,0.0,0.5839567500515841,0.5839567500515841,0.0,2.851149499998428,3.3542234170017764,0.5030739170033485,
167,0.5,0.0,1,0.5583,0.625,0.3,167,2.5083,0.05,0.025,0.525,5,lapse_rate,1.0,True,0.013,0,False,left,0.0,0.5678690830245614,0.5678690830245614,0.0,1.3885242500109598,1.888951375032775,0.5004271250218153,
168,0.5,0.0,1,0.6083,0.4083,0.6917,168,3.6583,1.9,0.95,1.45,5,2D1U,2.0,False,0.009,6,False,right,0.0,0.6129632500233129,0.6129632500233129,0.0,2.7459688750095665,3.245112832984887,0.4991439579753205,
169,0.5,0.0,1,0.4083,0.4833,0.3167,169,1.7583,-0.9,-0.45,0.05,5,3U1D,1.0,False,0.013,0,False,left,0.0,0.4049565839814022,0.4049565839814022,0.0,0.7675507090170868,1.2675809169886634,0.5000302079715766,
170,0.5,0.0,2,0.6417,0.6083,0.7,170,3.8583,1.8102,0.9083,1.4083,5,3D1U,2.0,True,0.014,5,True,right,0.0,1.8466627919697203,1.8466627919697203,0.0,0.6434444169863127,1.1434223749674857,0.49997795798117295,
171,0.5,0.0,2,0.6,0.55,0.175,171,1.9667,-0.7204,-0.3583,0.1417,5,2U1D,2.0,False,0.015,9,False,right,0.0,1.2771078330115415,1.2771078330115415,0.0,0.5974879580317065,1.0960916670155711,0.49860370898386464,
172,0.5,0.0,1,0.425,0.4,0.65,172,3.3833,1.8102,0.9083,1.4083,5,3D1U,2.0,False,0.012,5,True,right,0.0,0.42389729199931026,0.42389729199931026,0.0,2.473615416965913,2.9730841249693185,0.4994687080034055,
173,0.5,0.0,2,0.6167,0.5083,0.6,173,2.3167,-0.8102,-0.4083,0.0917,5,2U1D,1.0,True,0.015,10,True,left,0.0,1.7153703749645501,1.7153703749645501,0.0,0.6157565409666859,1.1152883329777978,0.499531792011112,
174,0.5,0.0,2,0.6083,0.6333,0.4917,174,2.2833,-0.9,-0.45,0.05,5,3U1D,2.0,False,0.015,0,False,right,0.0,1.597239000024274,1.597239000024274,0.0,0.6108572920202278,1.1103904170449823,0.49953312502475455,
175,0.5,0.0,2,0.625,0.4917,0.25,175,2.3167,-0.1,-0.05,0.45,5,lapse_rate,2.0,False,0.015,0,False,right,0.0,1.377184542012401,1.377184542012401,0.0,0.6264147920301184,1.1272379170404747,0.5008231250103563,
176,0.5,0.0,2,0.55,0.65,0.4,176,3.55,1.9,0.95,1.45,5,2D1U,2.0,True,0.014,6,False,right,0.0,1.4453767079976387,1.4453767079976387,0.0,0.5463315829983912,1.0493981250328943,0.5030665420345031,
177,0.5,0.0,2,0.5,0.5583,0.2083,177,3.2166,1.9,0.95,1.45,5,3D1U,1.0,False,0.012,6,True,left,0.0,1.2105624160030857,1.2105624160030857,0.0,0.4971862079692073,0.9974436659831554,0.500257458013948,
178,0.5,0.0,2,0.6333,0.5917,0.4917,178,3.6667,1.9,0.95,1.45,5,2D1U,1.0,False,0.01,6,False,left,0.0,1.629597500024829,1.629597500024829,0.0,0.6340047090197913,1.134317167045083,0.5003124580252916,
179,0.5,0.0,2,0.6417,0.5583,0.275,179,2.0667,-0.8102,-0.4083,0.0917,5,2U1D,2.0,False,0.015,10,True,right,0.0,1.4330581249669194,1.4330581249669194,0.0,0.6625707919592969,1.1626747919945046,0.5001040000352077,
180,0.5,0.0,1,0.6,0.6,0.45,180,2.6,-0.1,-0.05,0.45,5,lapse_rate,1.0,False,0.016,0,False,left,0.0,0.5998107920167968,0.5998107920167968,0.0,1.4872617090004496,1.9886488749762066,0.5013871659757569,
181,0.5,0.0,2,0.425,0.6333,0.2583,181,1.8666,-0.9,-0.45,0.05,5,3U1D,1.0,True,0.013,0,False,left,0.0,1.1844817089731805,1.1844817089731805,0.0,0.42135187494568527,0.9222957089659758,0.5009438340202905,
182,0.5,0.0,2,0.5583,0.6167,0.2083,182,2.4333,0.1,0.05,0.55,5,lapse_rate,2.0,True,0.013,0,False,right,0.0,1.2660457079764456,1.2660457079764456,0.0,0.5626844170037657,1.061531167011708,0.4988467500079423,
183,0.5,0.0,2,0.5583,0.5,0.0167,183,3.025,1.9,0.95,1.45,5,3D1U,2.0,True,0.016,6,False,right,0.0,1.0721907499828376,1.0721907499828376,0.0,0.5558832499664277,1.0558551249559969,0.4999718749895692,
184,0.5,0.0,1,0.5917,0.475,0.45,184,2.0667,-0.9,-0.45,0.05,5,3U1D,1.0,False,0.03,0,False,left,0.0,0.5851434170035645,0.5851434170035645,0.0,1.0845729170250706,1.584348125034012,0.49977520800894126,
185,0.5,0.0,2,0.45,0.5,0.7083,185,3.6083,1.9,0.95,1.45,5,2D1U,1.0,False,0.03,6,False,left,0.0,1.6576993750059046,1.6576993750059046,0.0,0.44241029204567894,0.9435299590113573,0.5011196669656783,
186,0.5,0.0,2,0.525,0.4333,0.5583,186,2.0666,-0.9,-0.45,0.05,5,2U1D,1.0,True,0.016,10,False,left,0.0,1.5899682079907507,1.5899682079907507,0.0,0.5265161659917794,1.025850540958345,0.4993343749665655,
187,0.5,0.0,2,0.4333,0.5083,0.5667,187,2.0583,-0.9,-0.45,0.05,5,3U1D,1.0,True,0.015,0,False,left,0.0,1.52106287505012,1.52106287505012,0.0,0.4348147500422783,0.9371880000107922,0.5023732499685138,
188,0.5,0.0,1,0.4,0.6333,0.0083,188,2.9916,1.9,0.95,1.45,5,3D1U,1.0,True,0.009,6,False,left,0.0,0.4012389159761369,0.4012389159761369,0.0,1.8510379999643192,2.3508759579854086,0.49983795802108943,
189,0.5,0.0,1,0.5917,0.5,0.4667,189,3.5084,1.9,0.95,1.45,5,2D1U,1.0,True,0.016,6,False,left,0.0,0.5979587500332855,0.5979587500332855,0.0,2.4993977500125766,2.999952000041958,0.5005542500293814,
190,0.5,0.0,1,0.4667,0.5917,0.2583,190,1.8667,-0.9,-0.45,0.05,5,2U1D,2.0,True,0.013,10,False,right,0.0,0.46736866695573553,0.46736866695573553,0.0,0.7675172080053017,1.267103916965425,0.49958670896012336,
191,0.5,0.0,2,0.4917,0.5333,0.075,191,1.9,-0.4,-0.2,0.3,5,lapse_rate,1.0,True,0.013,0,False,left,0.0,1.0648320419713855,1.0648320419713855,0.0,0.49193666700739413,0.9916854999610223,0.49974883295362815,
192,0.5,0.0,2,0.4417,0.425,0.7833,192,3.6,1.9,0.95,1.45,5,3D1U,1.0,False,0.016,6,False,left,0.0,1.7257236660225317,1.7257236660225317,0.0,0.44250850001117215,0.9419988750014454,0.49949037499027327,
193,0.5,0.0,1,0.5,0.5667,0.7417,193,2.3584,-0.9,-0.45,0.05,5,3U1D,1.0,False,0.014,0,False,left,0.0,0.5008565419702791,0.5008565419702791,0.0,1.2841457079630345,1.7840945000061765,0.499948792043142,
194,0.5,0.0,1,0.425,0.55,0.2,194,3.125,1.9,0.95,1.45,5,2D1U,1.0,True,0.014,6,False,left,0.0,0.4269217920373194,0.4269217920373194,0.0,2.0638932500150986,2.576856833999045,0.5129635839839466,
195,0.5,0.0,1,0.6417,0.4333,0.325,195,2.2,-0.4,-0.2,0.3,5,lapse_rate,1.0,False,0.015,0,False,left,0.0,0.643843540980015,0.643843540980015,0.0,1.2605142910033464,1.7602037499891594,0.49968945898581296,
196,0.5,0.0,1,0.6167,0.55,0.8417,196,2.6001,-0.8102,-0.4083,0.0917,5,2U1D,2.0,True,0.014,11,True,right,0.0,0.6134799999999814,0.6134799999999814,0.0,1.544270290993154,2.044383124972228,0.5001128339790739,
197,0.5,0.0,1,0.6333,0.5083,0.35,197,3.4416,1.9,0.95,1.45,5,3D1U,2.0,False,0.014,6,False,right,0.0,0.6312000420293771,0.6312000420293771,0.0,2.4311795419780537,2.927739584003575,0.4965600420255214,
198,0.5,0.0,1,0.625,0.5583,0.175,198,1.9083,-0.9,-0.45,0.05,5,3U1D,1.0,False,0.015,0,False,left,0.0,0.6247122919885442,0.6247122919885442,0.0,0.8429811669629999,1.3452294589951634,0.5022482920321636,
199,0.5,0.0,1,0.6167,0.5583,0.1917,199,2.3167,-0.1,-0.05,0.45,5,lapse_rate,2.0,True,0.01,0,False,right,0.0,0.6103959999745712,0.6103959999745712,0.0,1.2464173749904148,1.7469686669646762,0.5005512919742614,
200,0.5,0.0,1,0.5667,0.575,0.5583,200,2.2917,-0.8102,-0.4083,0.0917,5,2U1D,1.0,False,0.015,11,True,left,0.0,0.5670373330358416,0.5670373330358416,0.0,1.2122079160180874,1.7124728750204667,0.5002649590023793,
201,0.5,0.0,2,0.5417,0.4,0.3333,201,3.1833,1.8102,0.9083,1.4083,5,2D1U,1.0,False,0.015,7,True,left,0.0,1.3749997909762897,1.3749997909762897,0.0,0.5415349999675527,1.0408287500031292,0.4992937500355765,
202,0.5,0.0,1,0.5333,0.5083,0.5833,202,2.4249,-0.4,-0.2,0.3,5,lapse_rate,2.0,True,0.03,0,False,right,0.0,0.5299221250461414,0.5299221250461414,0.0,1.4101930829929188,1.9097163330297917,0.4995232500368729,
203,0.5,0.0,1,0.6083,0.5083,0.35,203,2.0166,-0.9,-0.45,0.05,5,3U1D,1.0,False,0.016,0,False,left,0.0,0.6113439159817062,0.6113439159817062,0.0,1.007359874958638,1.5070737909991294,0.4997139160404913,
204,0.5,0.0,1,0.5167,0.6417,0.5,204,3.6084,1.9,0.95,1.45,5,3D1U,1.0,True,0.014,6,False,left,0.0,0.5176773329731077,0.5176773329731077,0.0,2.4714287919923663,2.9697712080087513,0.49834241601638496,
205,0.5,0.0,2,0.55,0.5917,0.1583,205,3.25,1.9,0.95,1.45,5,2D1U,2.0,True,0.03,8,True,right,0.0,1.2086973750265315,1.2086973750265315,0.0,0.5464641670114361,1.046029000019189,0.4995648330077529,
206,0.5,0.0,2,0.575,0.55,0.4667,206,2.1417,-0.9,-0.45,0.05,5,2U1D,2.0,False,0.029,12,True,right,0.0,1.5397922919946723,1.5397922919946723,0.0,0.5730049170088023,1.0729739170055836,0.49996899999678135,
207,0.5,0.0,2,0.525,0.6083,0.9,207,3.0583,0.05,0.025,0.525,5,lapse_rate,2.0,True,0.012,0,False,right,0.0,1.9272101250244305,1.9272101250244305,0.0,0.5266531250090338,1.0287651250255294,0.5021120000164956,
208,0.5,0.0,2,0.6333,0.425,0.2667,208,1.875,-0.9,-0.45,0.05,5,3U1D,1.0,True,0.03,0,False,left,0.0,1.401569583977107,1.401569583977107,0.0,0.6345560839981772,1.1330742919817567,0.4985182079835795,
209,0.5,0.0,1,0.4333,0.5083,0.1,209,2.9916,1.9,0.95,1.45,5,2D1U,1.0,True,0.008,8,True,left,0.0,0.4290777909918688,0.4290777909918688,0.0,1.9756342500331812,2.4801268330193125,0.5044925829861313,
210,0.5,0.0,2,0.5833,0.5833,0.3167,210,2.0333,-0.9,-0.45,0.05,5,2U1D,1.0,True,0.017,12,False,left,0.0,1.401099000009708,1.401099000009708,0.0,0.5844606250175275,1.0835911670001224,0.4991305419825949,
211,0.5,0.0,2,0.5833,0.5917,0.7917,211,3.9167,1.9,0.95,1.45,5,3D1U,1.0,False,0.012,6,False,left,0.0,1.870900082984008,1.870900082984008,0.0,0.5839596249861643,1.084071707969997,0.5001120829838328,
212,0.5,0.0,2,0.625,0.5,0.4667,212,2.5667,-0.05,-0.025,0.475,5,lapse_rate,2.0,False,0.013,0,False,right,0.0,1.59509049996268,1.59509049996268,0.0,0.628479624981992,1.1281825419864617,0.4997029170044698,
213,0.5,0.0,1,0.4917,0.625,0.85,213,2.5167,-0.9,-0.45,0.05,5,2U1D,2.0,True,0.013,12,False,right,0.0,0.4937475830083713,0.4937475830083713,0.0,1.393738790997304,1.8934652080060914,0.4997264170087874,
214,0.5,0.0,2,0.425,0.4583,0.5417,214,1.975,-0.9,-0.45,0.05,5,3U1D,1.0,True,0.03,0,False,left,0.0,1.4631272919941694,1.4631272919941694,0.0,0.42494574998272583,0.9259710839833133,0.5010253340005875,
215,0.5,0.0,2,0.6167,0.5167,0.8833,215,3.9667,1.9,0.95,1.45,5,3D1U,2.0,True,0.014,6,False,right,0.0,1.9931649580248632,1.9931649580248632,0.0,0.6095193329965696,1.1079039580072276,0.49838462501065806,
216,0.5,0.0,1,0.5833,0.625,0.475,216,3.5916,1.8102,0.9083,1.4083,5,2D1U,2.0,False,0.012,9,True,right,0.0,0.5807827499811538,0.5807827499811538,0.0,2.460119499999564,2.9594464999972843,0.4993269999977201,
217,0.5,0.0,1,0.4083,0.6333,0.8917,217,3.1333,0.4,0.2,0.7,5,lapse_rate,2.0,False,0.013,0,False,right,0.0,0.404663041990716,0.404663041990716,0.0,1.9880185420042835,2.488774041994475,0.5007554999901913,
218,0.5,0.0,2,0.6083,0.6,0.2,218,3.3583,1.9,0.95,1.45,5,3D1U,1.0,False,0.012,6,False,left,0.0,1.3072774999891408,1.3072774999891408,0.0,0.6069777500233613,1.1069935410050675,0.5000157909817062,
219,0.5,0.0,2,0.425,0.4333,0.0333,219,1.4833,-0.8102,-0.4083,0.0917,5,2U1D,2.0,False,0.015,13,True,right,0.0,0.9597799169714563,0.9597799169714563,0.0,0.4266400839551352,0.9263937919749878,0.49975370801985264,
220,0.5,0.0,2,0.5417,0.4667,0.8833,220,3.8417,1.9,0.95,1.45,5,2D1U,2.0,True,0.013,10,True,right,0.0,1.9261532500386238,1.9261532500386238,0.0,0.5430177500238642,1.0415621669963002,0.498544416972436,
221,0.5,0.0,1,0.4083,0.625,0.8,221,2.3833,-0.9,-0.45,0.05,5,3U1D,2.0,True,0.013,0,False,right,0.0,0.4071133329998702,0.4071133329998702,0.0,1.2736960420152172,1.7736896669957787,0.49999362498056144,
222,0.5,0.0,1,0.4833,0.5167,0.4083,222,2.025,-0.766,-0.3833,0.1167,5,3U1D,1.0,False,0.015,1,True,left,0.0,0.47915641602594405,0.47915641602594405,0.0,0.9956831249874085,1.5090240000281483,0.5133408750407398,
223,0.5,0.0,1,0.625,0.5167,0.1917,223,1.8834,-0.9,-0.45,0.05,5,2U1D,2.0,True,0.014,14,True,right,0.0,0.6287917909794487,0.6287917909794487,0.0,0.8622812909889035,1.3619362079771236,0.49965491698822007,
224,0.5,0.0,2,0.4917,0.625,0.3,224,2.6167,0.4,0.2,0.7,5,lapse_rate,2.0,True,0.014,0,False,right,0.0,1.2920566250104457,1.2920566250104457,0.0,0.4922587080509402,0.9921710829949006,0.49991237494396046,
225,0.5,0.0,1,0.45,0.55,0.4083,225,3.3583,1.9,0.95,1.45,5,2D1U,1.0,True,0.012,10,True,left,0.0,0.44691962498473004,0.44691962498473004,0.0,2.2965029169572517,2.795807499962393,0.49930458300514147,
226,0.5,0.0,1,0.5417,0.4917,0.2917,226,3.2751,1.9,0.95,1.45,5,3D1U,1.0,True,0.013,6,False,left,0.0,0.5478476249845698,0.5478476249845698,0.0,2.2797832919750363,2.7795802499749698,0.4997969579999335,
227,0.5,0.0,2,0.575,0.4583,0.6083,227,2.1916,-0.9,-0.45,0.05,5,2U1D,2.0,False,0.014,14,True,right,0.0,1.69399754202459,1.69399754202459,0.0,0.5772947920486331,1.0817720420309342,0.5044772499823011,
228,0.5,0.0,1,0.6167,0.45,0.8917,228,3.8667,1.8102,0.9083,1.4083,5,2D1U,2.0,False,0.015,11,True,right,0.0,0.6118924589827657,0.6118924589827657,0.0,2.9125246250187047,3.4129977920092642,0.5004731669905595,
229,0.5,0.0,2,0.425,0.45,0.3833,229,3.2083,1.9,0.95,1.45,5,3D1U,1.0,False,0.016,6,False,left,0.0,1.3068222499568947,1.3068222499568947,0.0,0.4231737499940209,0.9236310420092195,0.5004572920151986,
230,0.5,0.0,1,0.5083,0.4083,0.425,230,1.9166,-0.8558,-0.425,0.075,5,3U1D,1.0,False,0.03,2,True,left,0.0,0.5058843339793384,0.5058843339793384,0.0,1.001060292008333,1.5012751669855788,0.5002148749772459,
231,0.5,0.0,1,0.6,0.6333,0.55,231,2.7333,-0.1,-0.05,0.45,5,lapse_rate,1.0,False,0.015,0,False,left,0.0,0.594155749946367,0.594155749946367,0.0,1.590009415987879,2.0899418749613687,0.4999324589734897,
232,0.5,0.0,2,0.4333,0.6333,0.325,232,1.9416,-0.9,-0.45,0.05,5,2U1D,2.0,False,0.017,14,False,right,0.0,1.2605760000296868,1.2605760000296868,0.0,0.43037179100792855,0.9292972910334356,0.49892550002550706,
233,0.5,0.0,2,0.5417,0.625,0.075,233,3.1917,1.9,0.95,1.45,5,3D1U,1.0,False,0.011,6,False,left,0.0,1.1178526660078205,1.1178526660078205,0.0,0.5384008330293,1.039442749985028,0.5010419169557281,
234,0.5,0.0,2,0.6333,0.575,0.8917,234,2.65,-0.9,-0.45,0.05,5,3U1D,1.0,True,0.015,2,False,left,0.0,2.0285534579888918,2.0285534579888918,0.0,0.6311794579960406,1.1328246250050142,0.5016451670089737,
235,0.5,0.0,1,0.4167,0.4833,0.45,235,3.3,1.9,0.95,1.45,5,2D1U,1.0,True,0.03,12,True,left,0.0,0.41260549996513873,0.41260549996513873,0.0,2.3121617499855347,2.8134644589736126,0.5013027089880779,
236,0.5,0.0,2,0.4917,0.525,0.5417,236,2.5084,-0.1,-0.05,0.45,5,lapse_rate,2.0,False,0.016,0,False,right,0.0,1.54214445798425,1.54214445798425,0.0,0.4924494579900056,1.0051524579757825,0.5127029999857768,
237,0.5,0.0,1,0.55,0.4167,0.0667,237,2.9834,1.9,0.95,1.45,5,3D1U,1.0,True,0.015,6,False,left,0.0,0.5512786249746569,0.5512786249746569,0.0,2.0678316669655032,2.571773958974518,0.5039422920090146,
238,0.5,0.0,2,0.5083,0.5083,0.225,238,1.7916,-0.9,-0.45,0.05,5,3U1D,1.0,True,0.013,2,False,left,0.0,1.2349370419979095,1.2349370419979095,0.0,0.5044707499910146,1.004939333011862,0.5004685830208473,
239,0.5,0.0,1,0.5917,0.5833,0.6917,239,2.4167,-0.9,-0.45,0.05,5,2U1D,2.0,True,0.013,14,False,right,0.0,0.5947772500221618,0.5947772500221618,0.0,1.3284036249970086,1.827581833989825,0.4991782089928165,
240,0.5,0.0,1,0.6167,0.5,0.4167,240,3.4834,1.9,0.95,1.45,5,2D1U,1.0,True,0.015,12,True,left,0.0,0.6178756249719299,0.6178756249719299,0.0,2.484580249991268,2.9838101670029573,0.4992299170116894,
241,0.5,0.0,2,0.5,0.4833,0.7833,241,2.8666,0.2,0.1,0.6,5,lapse_rate,2.0,True,0.006,0,False,right,0.0,1.7789958330104128,1.7789958330104128,0.0,0.49393854197114706,0.9956957919639535,0.5017572499928065,
242,0.5,0.0,2,0.5,0.5583,0.8917,242,3.8583,1.8102,0.9083,1.4083,5,2D1U,2.0,True,0.015,13,True,right,0.0,1.8943459590082057,1.8943459590082057,0.0,0.4968640000442974,0.9959560840507038,0.49909208400640637,
243,0.5,0.0,2,0.4167,0.4583,0.85,243,2.275,-0.9,-0.45,0.05,5,3U1D,1.0,True,0.016,2,False,left,0.0,1.7775296670151874,1.7775296670151874,0.0,0.4276497500250116,0.9274326250306331,0.49978287500562146,
244,0.5,0.0,1,0.525,0.5583,0.275,244,1.9083,-0.9,-0.45,0.05,5,2U1D,2.0,True,0.016,14,False,right,0.0,0.5264370840159245,0.5264370840159245,0.0,0.8431471670046449,1.3431532920221798,0.5000061250175349,
245,0.5,0.0,2,0.5833,0.5,0.4,245,2.5333,0.1,0.05,0.55,5,lapse_rate,2.0,True,0.029,0,False,right,0.0,1.484285665967036,1.484285665967036,0.0,0.5843598750070669,1.0843620829982683,0.5000022079912014,
246,0.5,0.0,1,0.5167,0.4,0.425,246,3.2917,1.9,0.95,1.45,5,3D1U,2.0,False,0.015,6,False,right,0.0,0.5084061250090599,0.5084061250090599,0.0,2.3751965829869732,2.87973545800196,0.5045388750149868,
247,0.5,0.0,2,0.525,0.4583,0.7083,247,3.5999,1.8102,0.9083,1.4083,5,2D1U,2.0,True,0.013,13,True,right,0.0,1.7344005000195466,1.7344005000195466,0.0,0.5214235829771496,1.0217548750224523,0.5003312920453027,
248,0.5,0.0,1,0.5,0.4667,0.8333,248,3.75,1.9,0.95,1.45,5,3D1U,1.0,True,0.014,6,False,left,0.0,0.5021294169710018,0.5021294169710018,0.0,2.7722492089960724,3.2864114999538288,0.5141622909577563,
249,0.5,0.0,2,0.5417,0.5,0.575,249,2.2084,-0.8102,-0.4083,0.0917,5,3U1D,2.0,False,0.016,3,True,right,0.0,1.6228073329548351,1.6228073329548351,0.0,0.5432667079730891,1.0438543749623932,0.5005876669893041,
250,0.5,0.0,2,0.45,0.4583,0.4667,250,2.4,0.05,0.025,0.525,5,lapse_rate,2.0,True,0.012,0,False,right,0.0,1.4208218750427477,1.4208218750427477,0.0,0.45464704104233533,0.9555743749951944,0.500927333952859,
251,0.5,0.0,1,0.4917,0.65,0.0833,251,1.8167,-0.8102,-0.4083,0.0917,5,2U1D,2.0,True,0.013,15,True,right,0.0,0.4945044170017354,0.4945044170017354,0.0,0.6611546670319512,1.1610754589783028,0.49992079194635153,
252,0.5,0.0,2,0.6083,0.5833,0.5083,252,2.2916,-0.8102,-0.4083,0.0917,5,2U1D,1.0,True,0.015,15,True,left,0.0,1.6303142909891903,1.6303142909891903,0.0,0.6097136659664102,1.1143436249694787,0.5046299590030685,
253,0.5,0.0,1,0.6417,0.5333,0.0833,253,2.3083,0.1,0.05,0.55,5,lapse_rate,1.0,True,0.014,0,False,left,0.0,0.6516357919899747,0.6516357919899747,0.0,1.2842291670385748,1.7879026249866001,0.5036734579480253,
254,0.5,0.0,1,0.6167,0.4583,0.0833,254,1.7083,-0.9,-0.45,0.05,5,3U1D,1.0,False,0.017,4,True,left,0.0,0.6113629160099663,0.6113629160099663,0.0,0.7414387910393998,1.241182166035287,0.4997433749958873,
255,0.5,0.0,2,0.65,0.5417,0.7583,255,3.9,1.9,0.95,1.45,5,3D1U,1.0,False,0.016,6,False,left,0.0,1.903916792012751,1.903916792012751,0.0,0.6505191670148633,1.1502932499861345,0.4997740829712711,
256,0.5,0.0,1,0.45,0.4667,0.7333,256,3.5083,1.7204,0.8583,1.3583,5,2D1U,2.0,False,0.029,13,False,right,0.0,0.45087320904713124,0.45087320904713124,0.0,2.550056125037372,3.072016792022623,0.521960666985251,
257,0.5,0.0,2,0.4833,0.4167,0.375,257,2.075,-0.4,-0.2,0.3,5,lapse_rate,2.0,False,0.011,0,False,right,0.0,1.3543904169928282,1.3543904169928282,0.0,0.4843451250344515,0.9840868330211379,0.4997417079866864,
258,0.5,0.0,1,0.6167,0.6,0.1167,258,1.8834,-0.9,-0.45,0.05,5,3U1D,2.0,True,0.005,4,False,right,0.0,0.6181405420065857,0.6181405420065857,0.0,0.7813905000220984,1.2816954579902813,0.5003049579681829,
259,0.5,0.0,2,0.5333,0.475,0.1583,259,3.1166,1.9,0.95,1.45,5,3D1U,2.0,True,0.014,6,False,right,0.0,1.1887264580000192,1.1887264580000192,0.0,0.5343457499984652,1.034483666997403,0.5001379169989377,
260,0.5,0.0,1,0.4167,0.5667,0.2,260,1.8251,-0.7204,-0.3583,0.1417,5,2U1D,2.0,True,0.014,15,False,right,0.0,0.4152539169881493,0.4152539169881493,0.0,0.7485542499925941,1.249197083991021,0.5006428339984268,
261,0.5,0.0,2,0.4083,0.5,0.3167,261,3.1333,1.8102,0.9083,1.4083,5,2D1U,2.0,True,0.014,14,True,right,0.0,1.226736750046257,1.226736750046257,0.0,0.41008750000037253,0.910018167051021,0.4999306670506485,
262,0.5,0.0,2,0.4667,0.425,0.0583,262,1.5,-0.9,-0.45,0.05,5,3U1D,2.0,False,0.021,4,False,right,0.0,1.027726917003747,1.027726917003747,0.0,0.46504133398411795,0.9660179589991458,0.5009766250150278,
263,0.5,0.0,1,0.4917,0.5833,0.0667,263,3.0917,1.9,0.95,1.45,5,3D1U,1.0,True,0.012,6,False,left,0.0,0.49497924995375797,0.49497924995375797,0.0,2.01275595795596,2.5122390000033192,0.49948304204735905,
264,0.5,0.0,2,0.475,0.4083,0.1583,264,1.6833,-0.7204,-0.3583,0.1417,5,2U1D,2.0,False,0.014,15,False,right,0.0,1.1260501670185477,1.1260501670185477,0.0,0.4735756670124829,0.9725031249690801,0.4989274579565972,
265,0.5,0.0,2,0.5417,0.5917,0.0833,265,3.125,1.8102,0.9083,1.4083,5,2D1U,2.0,True,0.013,14,True,right,0.0,1.125400166027248,1.125400166027248,0.0,0.5415281250025146,1.0413882079883479,0.4998600829858333,
266,0.5,0.0,2,0.5333,0.6083,0.875,266,3.1166,0.2,0.1,0.6,5,lapse_rate,1.0,False,0.012,0,False,left,0.0,1.907666208979208,1.907666208979208,0.0,0.5271280839806423,1.0271952499751933,0.500067165994551,
267,0.5,0.0,2,0.4583,0.6167,0.3,267,1.9667,-0.8102,-0.4083,0.0917,5,2U1D,1.0,True,0.015,16,True,left,0.0,1.2596500419895165,1.2596500419895165,0.0,0.45984383299946785,0.9596192080061883,0.4997753750067204,
268,0.5,0.0,1,0.525,0.4667,0.0667,268,1.6084,-0.9,-0.45,0.05,5,3U1D,1.0,False,0.028,4,False,left,0.0,0.528237332997378,0.528237332997378,0.0,0.6316412499872968,1.1310217499849387,0.4993804999976419,
269,0.5,0.0,2,0.5083,0.5667,0.6833,269,2.6583,-0.2,-0.1,0.4,5,lapse_rate,1.0,True,0.014,0,False,left,0.0,1.6924671250162646,1.6924671250162646,0.0,0.5087180419941433,1.0089528340031393,0.500234792008996,
270,0.5,0.0,1,0.65,0.475,0.3667,270,3.35,1.7204,0.8583,1.3583,5,2D1U,1.0,True,0.015,15,True,left,0.0,0.6506550420308486,0.6506550420308486,0.0,2.367131417035125,2.875493291998282,0.5083618749631569,
271,0.5,0.0,2,0.5583,0.4667,0.0167,271,2.9917,1.9,0.95,1.45,5,3D1U,2.0,True,0.011,6,False,right,0.0,1.0716029169852845,1.0716029169852845,0.0,0.5546273329528049,1.0560890829656273,0.5014617500128224,
272,0.5,0.0,1,0.55,0.6,0.5,272,3.5583,1.8102,0.9083,1.4083,5,3D1U,2.0,False,0.013,7,True,right,0.0,0.5504225839977153,0.5504225839977153,0.0,2.4501496250159107,2.9470735840150155,0.4969239589991048,
273,0.5,0.0,2,0.4417,0.6417,0.1083,273,1.7834,-0.8102,-0.4083,0.0917,5,2U1D,2.0,False,0.016,16,True,right,0.0,1.0455177080002613,1.0455177080002613,0.0,0.4425457500037737,0.942293250001967,0.49974749999819323,
274,0.5,0.0,2,0.5833,0.475,0.4583,274,2.5666,0.1,0.05,0.55,5,lapse_rate,2.0,True,0.014,0,False,right,0.0,1.5430201660492457,1.5430201660492457,0.0,0.5797590410220437,1.0787294160109013,0.49897037498885766,
275,0.5,0.0,2,0.4333,0.5333,0.6667,275,2.1833,-0.9,-0.45,0.05,5,3U1D,2.0,False,0.014,4,False,right,0.0,1.5985330839757808,1.5985330839757808,0.0,0.4313188749947585,0.9319355419720523,0.5006166669772938,
276,0.5,0.0,2,0.4167,0.4333,0.8833,276,3.5916,1.7204,0.8583,1.3583,5,2D1U,2.0,True,0.016,15,True,right,0.0,1.796369916992262,1.796369916992262,0.0,0.4126118329586461,0.9123499169945717,0.49973808403592557,
277,0.5,0.0,2,0.5833,0.6,0.5583,277,2.2916,-0.9,-0.45,0.05,5,3U1D,1.0,True,0.017,4,False,left,0.0,1.6503277909941971,1.6503277909941971,0.0,0.5893666660413146,1.0887943330453709,0.4994276670040563,
278,0.5,0.0,2,0.6167,0.5167,0.3083,278,1.9917,-0.9,-0.45,0.05,5,2U1D,2.0,False,0.017,16,False,right,0.0,1.421838917012792,1.421838917012792,0.0,0.6177442499902099,1.1175781670026481,0.4998339170124382,
279,0.5,0.0,1,0.5167,0.5417,0.175,279,3.1834,1.9,0.95,1.45,5,3D1U,2.0,False,0.013,8,True,right,0.0,0.517554750025738,0.517554750025738,0.0,2.13775983301457,2.638704792014323,0.500944958999753,
280,0.5,0.0,2,0.5083,0.6,0.5,280,2.6333,0.05,0.025,0.525,5,lapse_rate,2.0,True,0.014,0,False,right,0.0,1.511272584029939,1.511272584029939,0.0,0.5114490420091897,1.0113457920379005,0.4998967500287108,
281,0.5,0.0,1,0.4083,0.6083,0.75,281,3.5833,1.6307,0.8167,1.3167,5,2D1U,1.0,True,0.03,15,False,left,0.0,0.4125339590245858,0.4125339590245858,0.0,2.475820959021803,2.9745377500075847,0.4987167909857817,
282,0.5,0.0,2,0.4333,0.45,0.1333,282,1.5666,-0.9,-0.45,0.05,5,3U1D,2.0,False,0.013,4,False,right,0.0,1.065249458013568,1.065249458013568,0.0,0.4269165419973433,0.9264529169886373,0.499536374991294,
283,0.5,0.0,2,0.575,0.4333,0.9,283,3.725,1.6307,0.8167,1.3167,5,2D1U,1.0,False,0.014,15,False,left,0.0,1.9739879160188138,1.9739879160188138,0.0,0.5740709580131806,1.0739304160233587,0.49985945801017806,
284,0.5,0.0,1,0.5917,0.6,0.4583,284,3.6,1.9,0.95,1.45,5,3D1U,1.0,True,0.031,8,False,left,0.0,0.5905072499881499,0.5905072499881499,0.0,2.490821584011428,2.9900778339942917,0.49925624998286366,
285,0.5,0.0,2,0.5917,0.45,0.2833,285,1.875,-0.9,-0.45,0.05,5,2U1D,2.0,False,0.014,16,False,right,0.0,1.3711096250335686,1.3711096250335686,0.0,0.5874577080248855,1.0871606669970788,0.4997029589721933,
286,0.5,0.0,2,0.4333,0.425,0.8333,286,2.7166,0.05,0.025,0.525,5,lapse_rate,2.0,True,0.011,0,False,right,0.0,1.7650297079817392,1.7650297079817392,0.0,0.43158279097406194,0.933466500020586,0.501883709046524,
287,0.5,0.0,1,0.55,0.5,0.5083,287,2.1083,-0.9,-0.45,0.05,5,2U1D,1.0,False,0.028,16,False,left,0.0,0.5473497920320369,0.5473497920320369,0.0,1.0971134999999776,1.596841000020504,0.49972750002052635,
288,0.5,0.0,1,0.6417,0.65,0.1667,288,2.4084,-0.1,-0.05,0.45,5,lapse_rate,2.0,True,0.015,0,False,right,0.0,0.641947333002463,0.641947333002463,0.0,1.2588663329952396,1.7586523329955526,0.4997860000003129,
289,0.5,0.0,2,0.4167,0.5583,0.1167,289,3.0417,1.9,0.95,1.45,5,3D1U,2.0,True,0.006,8,False,right,0.0,1.0281158330035396,1.0281158330035396,0.0,0.4109596249763854,0.9113802500069141,0.5004206250305288,
290,0.5,0.0,1,0.4083,0.5333,0.575,290,3.3749,1.7204,0.8583,1.3583,5,2D1U,2.0,False,0.013,16,True,right,0.0,0.4055625000037253,0.4055625000037253,0.0,2.3346532919676974,2.834586333949119,0.4999330419814214,
291,0.5,0.0,2,0.5417,0.575,0.1083,291,1.775,-0.9,-0.45,0.05,5,3U1D,1.0,True,0.014,4,False,left,0.0,1.1487912919837981,1.1487912919837981,0.0,0.545675500005018,1.0450746249989606,0.4993991249939427,
292,0.5,0.0,2,0.4667,0.4167,0.5417,292,3.3334,1.8102,0.9083,1.4083,5,2D1U,1.0,False,0.03,16,False,left,0.0,1.5084333749837242,1.5084333749837242,0.0,0.4617996659944765,0.9610382079845294,0.4992385419900529,
293,0.5,0.0,2,0.4,0.5333,0.3333,293,3.2166,1.9,0.95,1.45,5,3D1U,1.0,False,0.016,8,False,left,0.0,1.223690541984979,1.223690541984979,0.0,0.39049883297411725,0.8912609999533743,0.500762166979257,
294,0.5,0.0,2,0.4333,0.4667,0.6917,294,2.1417,-0.9,-0.45,0.05,5,2U1D,2.0,False,0.015,16,False,right,0.0,1.6212707080412656,1.6212707080412656,0.0,0.4333739170106128,0.9338633750448935,0.5004894580342807,
295,0.5,0.0,2,0.5,0.6417,0.4917,295,2.4334,-0.4,-0.2,0.3,5,lapse_rate,2.0,False,0.029,0,False,right,0.0,1.4891011249856092,1.4891011249856092,0.0,0.5020619999850169,1.0018164590001106,0.49975445901509374,
296,0.5,0.0,1,0.475,0.4083,0.375,296,1.8083,-0.9,-0.45,0.05,5,3U1D,1.0,False,0.028,4,False,left,0.0,0.4707485829712823,0.4707485829712823,0.0,0.8878851669724099,1.3871147080208175,0.49922954104840755,
297,0.5,0.0,2,0.625,0.475,0.1333,297,2.4333,0.4,0.2,0.7,5,lapse_rate,1.0,False,0.015,0,False,left,0.0,1.2598549580434337,1.2598549580434337,0.0,0.6269109580316581,1.1270785410306416,0.5001675829989836,
298,0.5,0.0,2,0.5917,0.4083,0.025,298,1.575,-0.9,-0.45,0.05,5,3U1D,2.0,False,0.014,4,False,right,0.0,1.1138873330201022,1.1138873330201022,0.0,0.5928320829989389,1.0925285830162466,0.4996965000173077,
299,0.5,0.0,2,0.4417,0.4833,0.5417,299,3.4167,1.9,0.95,1.45,5,2D1U,2.0,True,0.013,16,False,right,0.0,1.4762481660000049,1.4762481660000049,0.0,0.43948945798911154,0.9393244999810122,0.49983504199190065,
300,0.5,0.0,1,0.525,0.55,0.7667,300,2.3917,-0.9,-0.45,0.05,5,2U1D,2.0,True,0.015,16,False,right,0.0,0.5217393329949118,0.5217393329949118,0.0,1.3335171249927953,1.8343373750103638,0.5008202500175685,
301,0.5,0.0,1,0.4167,0.4917,0.3083,301,3.1667,1.9,0.95,1.45,5,3D1U,2.0,False,0.03,8,False,right,0.0,0.413217541994527,0.413217541994527,0.0,2.176189332967624,2.676604166976176,0.5004148340085521,
302,0.5,0.0,2,0.65,0.575,0.8333,302,2.6083,-0.9,-0.45,0.05,5,3U1D,1.0,True,0.014,4,False,left,0.0,1.9895600409945473,1.9895600409945473,0.0,0.6415055000106804,1.1428487499943003,0.5013432499836199,
303,0.5,0.0,1,0.4833,0.45,0.325,303,3.2083,1.9,0.95,1.45,5,2D1U,2.0,False,0.015,16,False,right,0.0,0.4787746249930933,0.4787746249930933,0.0,2.2586564169614576,2.7583856669953093,0.4997292500338517,
304,0.5,0.0,2,0.525,0.475,0.2417,304,1.7917,-0.9,-0.45,0.05,5,2U1D,1.0,True,0.013,16,False,left,0.0,1.2633615409722552,1.2633615409722552,0.0,0.5254884999594651,1.0257035410031676,0.5002150410437025,
305,0.5,0.0,1,0.45,0.525,0.3333,305,3.2583,1.9,0.95,1.45,5,3D1U,1.0,True,0.013,8,False,left,0.0,0.4422202089917846,0.4422202089917846,0.0,2.2255925000063144,2.7251000839751214,0.499507583968807,
306,0.5,0.0,1,0.5,0.5333,0.65,306,2.6583,-0.05,-0.025,0.475,5,lapse_rate,2.0,True,0.015,0,False,right,0.0,0.49774504196830094,0.49774504196830094,0.0,1.6132311249966733,2.127882500004489,0.5146513750078157,
307,0.5,0.0,1,0.6333,0.5583,0.0083,307,3.1499,1.9,0.95,1.45,5,3D1U,2.0,False,0.013,8,False,right,0.0,0.6281907919910736,0.6281907919910736,0.0,2.076434666989371,2.5798107919981703,0.5033761250087991,
308,0.5,0.0,2,0.6333,0.5667,0.7,308,3.85,1.9,0.95,1.45,5,2D1U,2.0,True,0.007,16,False,right,0.0,1.8407874580007046,1.8407874580007046,0.0,0.6417481660027988,1.1408473330084234,0.4990991670056246,
309,0.5,0.0,2,0.6167,0.5833,0.4333,309,2.225,-0.8102,-0.4083,0.0917,5,2U1D,2.0,False,0.015,17,True,right,0.0,1.5509164580143988,1.5509164580143988,0.0,0.6177605830016546,1.1174600829835981,0.4996994999819435,
310,0.5,0.0,1,0.55,0.6417,0.0,310,1.7417,-0.9,-0.45,0.05,5,3U1D,1.0,False,0.014,4,False,left,0.0,0.5482817500014789,0.5482817500014789,0.0,0.5997136249789037,1.0989544169860892,0.4992407920071855,
311,0.5,0.0,2,0.575,0.4583,0.2,311,2.2833,0.1,0.05,0.55,5,lapse_rate,1.0,False,0.015,0,False,left,0.0,1.276405667013023,1.276405667013023,0.0,0.5756221669726074,1.075576999981422,0.4999548330088146,
312,0.5,0.0,2,0.5,0.5,0.075,312,1.625,-0.9,-0.45,0.05,5,3U1D,1.0,True,0.016,4,False,left,0.0,1.0792105420259759,1.0792105420259759,0.0,0.4968722090125084,1.0095300000393763,0.5126577910268679,
313,0.5,0.0,1,0.5083,0.575,0.1917,313,3.225,1.9,0.95,1.45,5,2D1U,1.0,True,0.013,16,False,left,0.0,0.5047874170122668,0.5047874170122668,0.0,2.137716959055979,2.638349417014979,0.500632457959,
314,0.5,0.0,1,0.4667,0.6083,0.425,314,2.05,-0.9,-0.45,0.05,5,2U1D,1.0,False,0.014,18,True,left,0.0,0.4629283749964088,0.4629283749964088,0.0,0.9297255839919671,1.4282724169897847,0.49854683299781755,
315,0.5,0.0,1,0.4917,0.5417,0.1833,315,2.1917,-0.05,-0.025,0.475,5,lapse_rate,2.0,True,0.016,0,False,right,0.0,0.48953775002155453,0.48953775002155453,0.0,1.1391592920408584,1.6390057500102557,0.4998464579693973,
316,0.5,0.0,1,0.6,0.6333,0.8833,316,4.0666,1.9,0.95,1.45,5,3D1U,1.0,True,0.014,8,False,left,0.0,0.6014791670022532,0.6014791670022532,0.0,2.936358459002804,3.4381926670321263,0.5018342080293223,
317,0.5,0.0,2,0.5083,0.4667,0.7667,317,2.5417,-0.4,-0.2,0.3,5,lapse_rate,1.0,True,0.015,0,False,left,0.0,1.7732604580232874,1.7732604580232874,0.0,0.5069282500189729,1.0068726250319742,0.49994437501300126,
318,0.5,0.0,2,0.5,0.4417,0.5083,318,3.3583,1.8102,0.9083,1.4083,5,2D1U,1.0,False,0.015,17,True,left,0.0,1.5046132080024108,1.5046132080024108,0.0,0.5012355420039967,1.001237458025571,0.5000019160215743,
319,0.5,0.0,1,0.5667,0.5917,0.35,319,2.0584,-0.9,-0.45,0.05,5,2U1D,2.0,True,0.014,18,False,right,0.0,0.5679537499672733,0.5679537499672733,0.0,0.9548978339880705,1.4554851669818163,0.5005873329937458,
320,0.5,0.0,1,0.4333,0.6083,0.7083,320,3.6999,1.9,0.95,1.45,5,3D1U,1.0,True,0.015,8,False,left,0.0,0.44170662498800084,0.44170662498800084,0.0,2.5916696669883095,3.0917268749908544,0.5000572080025449,
321,0.5,0.0,2,0.475,0.6333,0.825,321,2.4833,-0.9,-0.45,0.05,5,3U1D,2.0,False,0.016,4,False,right,0.0,1.8012070410186425,1.8012070410186425,0.0,0.4739064160385169,0.9735835409956053,0.4996771249570884,
322,0.5,0.0,1,0.625,0.55,0.5167,322,2.2417,-0.9,-0.45,0.05,5,3U1D,2.0,True,0.03,4,False,right,0.0,0.621453333995305,0.621453333995305,0.0,1.1844132089754567,1.6842545419931412,0.4998413330176845,
323,0.5,0.0,2,0.5083,0.5833,0.625,323,3.6666,1.9,0.95,1.45,5,2D1U,2.0,True,0.012,18,True,right,0.0,1.639406250033062,1.639406250033062,0.0,0.506032542034518,1.0058507500216365,0.4998182079871185,
324,0.5,0.0,2,0.525,0.6,0.5167,324,2.1917,-0.9,-0.45,0.05,5,2U1D,2.0,False,0.015,18,False,right,0.0,1.5452077919617295,1.5452077919617295,0.0,0.5282598749618046,1.0284441249677911,0.5001842500059865,
325,0.5,0.0,2,0.5833,0.6083,0.1167,325,2.3333,0.05,0.025,0.525,5,lapse_rate,1.0,False,0.03,0,False,left,0.0,1.2009539169957861,1.2009539169957861,0.0,0.5842790830065496,1.0842225829837844,0.49994349997723475,
326,0.5,0.0,1,0.45,0.6417,0.2917,326,3.3334,1.9,0.95,1.45,5,3D1U,2.0,False,0.013,8,False,right,0.0,0.44469412497710437,0.44469412497710437,0.0,2.193623208964709,2.6939953749533743,0.5003721659886651,
327,0.5,0.0,2,0.45,0.6167,0.8917,327,3.9084,1.9,0.95,1.45,5,3D1U,1.0,False,0.015,8,False,left,0.0,1.8360469579929486,1.8360469579929486,0.0,0.45201004098635167,0.9519880000152625,0.49997795902891085,
328,0.5,0.0,1,0.5583,0.5,0.6667,328,2.275,-0.9,-0.45,0.05,5,2U1D,2.0,True,0.028,18,False,right,0.0,0.5567162079969421,0.5567162079969421,0.0,1.2603105830494314,1.7593991660396568,0.4990885829902254,
329,0.5,0.0,2,0.4583,0.6083,0.625,329,3.6416,1.9,0.95,1.45,5,2D1U,1.0,False,0.011,18,True,left,0.0,1.5941474169958383,1.5941474169958383,0.0,0.4748495419626124,0.974156291980762,0.4993067500181496,
330,0.5,0.0,1,0.4,0.4333,0.7333,330,2.1166,-0.9,-0.45,0.05,5,3U1D,2.0,True,0.016,4,False,right,0.0,0.4009152500075288,0.4009152500075288,0.0,1.1704983329982497,1.689372375025414,0.5188740420271643,
331,0.5,0.0,1,0.4417,0.625,0.7667,331,2.6334,-0.4,-0.2,0.3,5,lapse_rate,2.0,True,0.014,0,False,right,0.0,0.4386186249903403,0.4386186249903403,0.0,1.5003722499823198,2.0005801250226796,0.5002078750403598,
332,0.5,0.0,1,0.6333,0.4333,0.325,332,1.9416,-0.9,-0.45,0.05,5,3U1D,1.0,False,0.014,4,False,left,0.0,0.6249097919790074,0.6249097919790074,0.0,0.9948604999808595,1.4940252079977654,0.49916470801690593,
333,0.5,0.0,2,0.5083,0.65,0.0333,333,1.7416,-0.9,-0.45,0.05,5,2U1D,1.0,True,0.015,18,False,left,0.0,1.039911583007779,1.039911583007779,0.0,0.5062345409533009,1.006241915980354,0.5000073750270531,
334,0.5,0.0,1,0.4083,0.4333,0.8167,334,3.6083,1.9,0.95,1.45,5,3D1U,1.0,True,0.013,8,False,left,0.0,0.40427520900266245,0.40427520900266245,0.0,2.66735958395293,3.1674415839952417,0.5000820000423118,
335,0.5,0.0,1,0.6083,0.6,0.8333,335,3.9916,1.9,0.95,1.45,5,2D1U,2.0,False,0.015,18,False,right,0.0,0.605502084014006,0.605502084014006,0.0,2.890101833967492,3.3922439999878407,0.5021421660203487,
336,0.5,0.0,2,0.475,0.4167,0.6167,336,2.7084,0.4,0.2,0.7,5,lapse_rate,1.0,False,0.014,0,False,left,0.0,1.58791891700821,1.58791891700821,0.0,0.4713673749938607,0.9720358339836821,0.5006684589898214,
337,0.5,0.0,1,0.4667,0.4667,0.8917,337,3.7751,1.9,0.95,1.45,5,3D1U,1.0,True,0.03,8,False,left,0.0,0.4627970000146888,0.4627970000146888,0.0,2.795099582988769,3.2958638329873793,0.5007642499986105,
338,0.5,0.0,1,0.5917,0.4667,0.7667,338,2.4168,-0.8102,-0.4083,0.0917,5,2U1D,1.0,False,0.016,19,True,left,0.0,0.5876752919866703,0.5876752919866703,0.0,1.4374272089917213,1.9377807499840856,0.5003535409923643,
339,0.5,0.0,1,0.5667,0.5917,0.875,339,3.0834,0.1,0.05,0.55,5,lapse_rate,2.0,False,0.014,0,False,right,0.0,0.5679877909715287,0.5679877909715287,0.0,1.9842659999849275,2.4842510409653187,0.4999850409803912,
340,0.5,0.0,1,0.6,0.4917,0.5167,340,3.5584,1.9,0.95,1.45,5,2D1U,2.0,False,0.015,18,False,right,0.0,0.5952639169991016,0.5952639169991016,0.0,2.5621705419616774,3.066639958997257,0.5044694170355797,
341,0.5,0.0,1,0.5,0.55,0.675,341,2.275,-0.9,-0.45,0.05,5,3U1D,2.0,True,0.014,4,False,right,0.0,0.49866720801219344,0.49866720801219344,0.0,1.2150753330206499,1.7153988330392167,0.5003235000185668,
342,0.5,0.0,2,0.4333,0.5,0.6583,342,3.5416,1.9,0.95,1.45,5,3D1U,1.0,False,0.014,8,False,left,0.0,1.589120750024449,1.589120750024449,0.0,0.4256310000200756,0.9259459160384722,0.5003149160183966,
343,0.5,0.0,2,0.5,0.4917,0.6,343,2.5417,-0.1,-0.05,0.45,5,lapse_rate,1.0,True,0.029,0,False,left,0.0,1.6019075000076555,1.6019075000076555,0.0,0.4960052089882083,0.9970606249989942,0.5010554160107858,
344,0.5,0.0,2,0.4167,0.5333,0.3167,344,3.2167,1.9,0.95,1.45,5,2D1U,1.0,False,0.013,18,False,left,0.0,1.2283399170264602,1.2283399170264602,0.0,0.41167545900680125,0.9112332499935292,0.4995577909867279,
345,0.5,0.0,1,0.5667,0.425,0.275,345,1.8167,-0.9,-0.45,0.05,5,3U1D,2.0,True,0.015,4,False,right,0.0,0.5618991249939427,0.5618991249939427,0.0,0.8785419589839876,1.378851916990243,0.5003099580062553,
346,0.5,0.0,1,0.4167,0.5083,0.4167,346,1.8917,-0.9,-0.45,0.05,5,2U1D,1.0,False,0.015,20,True,left,0.0,0.4134140000096522,0.4134140000096522,0.0,0.8759951660176739,1.3752148750354536,0.4992197090177797,
347,0.5,0.0,1,0.5583,0.4917,0.5167,347,2.1167,-0.9,-0.45,0.05,5,3U1D,2.0,True,0.013,4,False,right,0.0,0.5609373330371454,0.5609373330371454,0.0,1.11440537503222,1.615759375039488,0.501354000007268,
348,0.5,0.0,1,0.6167,0.5,0.3583,348,3.425,1.9,0.95,1.45,5,3D1U,1.0,True,0.015,8,False,left,0.0,0.6221750000258908,0.6221750000258908,0.0,2.4220716670388356,2.9214942500111647,0.4994225829723291,
349,0.5,0.0,1,0.65,0.5917,0.675,349,3.0167,0.2,0.1,0.6,5,lapse_rate,1.0,True,0.012,0,False,left,0.0,0.6553355830255896,0.6553355830255896,0.0,1.9381259169895202,2.4509277080069296,0.5128017910174094,
350,0.5,0.0,2,0.4083,0.6083,0.8417,350,2.4083,-0.9,-0.45,0.05,5,2U1D,1.0,True,0.03,20,False,left,0.0,1.7420018339762464,1.7420018339762464,0.0,0.40492116700625047,0.9038704590057023,0.4989492919994518,
351,0.5,0.0,1,0.6,0.5167,0.3917,351,3.4584,1.9,0.95,1.45,5,2D1U,1.0,True,0.014,18,False,left,0.0,0.5915892079938203,0.5915892079938203,0.0,2.438056332990527,2.939611457986757,0.50155512499623,
352,0.5,0.0,1,0.6,0.4417,0.3583,352,3.35,1.9,0.95,1.45,5,3D1U,2.0,False,0.017,8,False,right,0.0,0.6005459589650854,0.6005459589650854,0.0,2.4173815840040334,2.9167147499974817,0.49933316599344835,
353,0.5,0.0,2,0.5333,0.4833,0.425,353,1.9916,-0.9,-0.45,0.05,5,2U1D,2.0,False,0.013,20,False,right,0.0,1.4523304579779506,1.4523304579779506,0.0,0.5339334579766728,1.0338364579947665,0.49990300001809373,
354,0.5,0.0,2,0.55,0.4667,0.775,354,2.3834,-0.8102,-0.4083,0.0917,5,3U1D,2.0,False,0.014,5,True,right,0.0,1.8284632089780644,1.8284632089780644,0.0,0.548673624987714,1.0497774169780314,0.5011037919903174,
355,0.5,0.0,2,0.45,0.5167,0.525,355,2.3917,-0.2,-0.1,0.4,5,lapse_rate,2.0,False,0.014,0,False,right,0.0,1.4792142499936745,1.4792142499936745,0.0,0.45952716597821563,0.958721290982794,0.4991941250045784,
356,0.5,0.0,1,0.5333,0.5667,0.7917,356,3.8417,1.9,0.95,1.45,5,2D1U,2.0,False,0.015,18,False,right,0.0,0.5291331660118885,0.5291331660118885,0.0,2.761876333039254,3.2613981250324287,0.4995217919931747,
357,0.5,0.0,2,0.4417,0.5417,0.0833,357,1.6167,-0.9,-0.45,0.05,5,2U1D,1.0,True,0.015,20,False,left,0.0,1.0214329159935005,1.0214329159935005,0.0,0.43839424999896437,0.9382352909888141,0.4998410409898497,
358,0.5,0.0,1,0.5917,0.5167,0.3583,358,3.4167,1.9,0.95,1.45,5,2D1U,2.0,False,0.013,18,False,right,0.0,0.6006398749887012,0.6006398749887012,0.0,2.4011577909695916,2.899898665957153,0.49874087498756126,
359,0.5,0.0,2,0.4417,0.575,0.5167,359,2.0834,-0.9,-0.45,0.05,5,3U1D,2.0,False,0.029,6,True,right,0.0,1.4784864580142312,1.4784864580142312,0.0,0.44184475002111867,0.9423434580094181,0.5004987079882994,
360,0.5,0.0,1,0.6333,0.4917,0.6333,360,2.7833,0.05,0.025,0.525,5,lapse_rate,2.0,False,0.016,0,False,right,0.0,0.6342127909883857,0.6342127909883857,0.0,1.7845096249948256,2.2839675830327906,0.499457958037965,
