,standardDur,audNoise,order,preDur,postDur,isiDur,trial_num,totalDur,delta_dur_percents,deltaDurS,testDurS,intensities,current_stair,responses,is_correct,response_rts,stair_num_reversal,stair_is_reversal,response_keys,conflictDur,recordedOnsetAudioTest,recordedOffsetAudioTest,recordedDurAudioTest,recordedOnsetVisualStandard,recordedOffsetVisualStandard,recordedDurVisualStandard,modalityPostCueTest
0,0.5,1.2,2,0.3,0.45,0.625,0,2.825,0.9,0.45,0.95,5,1D1U,1.0,False,0.011,0,False,left,0.0,0.0002579169813543558,999,999,999,999,0,
1,0.5,0.1,2,0.275,0.25833,0.70833,1,2.69166,0.9,0.45,0.95,5,1D1U,2.0,True,0.016,0,False,right,0.0,0.00022979197092354298,999,999,999,999,0,
2,0.5,0.1,2,0.33333,0.3,0.64167,2,2.725,0.9,0.45,0.95,5,lapse_rate,1.0,False,0.017,0,False,left,0.0,0.00021045899484306574,999,999,999,999,0,
3,0.5,1.2,2,0.24167,0.275,0.64167,3,1.70834,-0.9,-0.45,0.05,5,1U1D,2.0,False,0.016,0,False,right,0.0,0.00023045804118737578,999,999,999,999,0,
4,0.5,0.1,2,0.24167,0.25,0.46667,4,1.50834,-0.9,-0.45,0.05,5,2D1U,2.0,False,0.017,0,False,right,0.0,0.00019916699966415763,999,999,999,999,0,
5,0.5,1.2,2,0.325,0.44167,0.775,5,2.09167,-0.9,-0.45,0.05,5,1D2U,2.0,False,0.017,0,False,right,0.0,0.00018875004025176167,999,999,999,999,0,
6,0.5,0.1,2,0.25833,0.325,0.59167,6,1.725,-0.9,-0.45,0.05,5,1D2U,2.0,False,0.016,0,False,right,0.0,0.00027408404275774956,999,999,999,999,0,
7,0.5,1.2,2,0.225,0.25833,0.78333,7,1.89999,-0.74,-0.36667,0.13333,5,1U1D,2.0,False,0.017,0,False,right,0.0,0.00028249999741092324,999,999,999,999,0,
8,0.5,0.1,2,0.425,0.44167,0.63333,8,2.95,0.9,0.45,0.95,5,lapse_rate,2.0,True,0.016,0,False,right,0.0,0.00030958402203395963,999,999,999,999,0,
9,0.5,0.1,2,0.35833,0.33333,0.83333,9,2.93332,0.82,0.40833,0.90833,5,1D1U,2.0,True,0.017,1,True,right,0.0,0.00023199996212497354,999,999,999,999,0,
10,0.5,1.2,1,0.425,0.26667,0.69167,10,1.93334,-0.9,-0.45,0.05,5,2D1U,1.0,False,0.016,0,False,left,0.0,0.00025512505089864135,999,999,999,999,0,
11,0.5,0.1,1,0.43333,0.38333,0.8,11,2.16666,-0.9,-0.45,0.05,5,1D2U,1.0,False,0.017,0,False,left,0.0,0.00022737501421943307,999,999,999,999,0,
12,0.5,1.2,1,0.3,0.275,0.73333,12,2.675,0.74,0.36667,0.86667,5,1D1U,1.0,True,0.017,1,False,left,0.0,0.00022333301603794098,999,999,999,999,0,
13,0.5,0.1,1,0.34167,0.39167,0.575,13,2.75834,0.9,0.45,0.95,5,lapse_rate,1.0,True,0.016,0,False,left,0.0,0.0002511669881641865,999,999,999,999,0,
14,0.5,0.1,1,0.24167,0.40833,0.46667,14,1.66667,-0.9,-0.45,0.05,5,2D1U,1.0,False,0.016,0,False,left,0.0,0.0002758749760687351,999,999,999,999,0,
15,0.5,1.2,1,0.34167,0.3,0.89167,15,2.24167,-0.58,-0.29167,0.20833,5,1U1D,1.0,False,0.016,0,False,left,0.0,0.0002608330105431378,999,999,999,999,0,
16,0.5,0.1,1,0.39167,0.375,0.475,16,2.575,0.66,0.33333,0.83333,5,1D1U,2.0,False,0.016,1,False,right,0.0,0.00031420798040926456,999,999,999,999,0,
17,0.5,1.2,1,0.33333,0.325,0.5,17,1.70833,-0.9,-0.45,0.05,5,lapse_rate,1.0,False,0.017,0,False,left,0.0,0.0002542500151321292,999,999,999,999,0,
18,0.5,1.2,1,0.35833,0.2,0.5,18,1.85,-0.42,-0.20833,0.29167,5,1U1D,2.0,True,0.017,0,False,right,0.0,0.0002346250112168491,999,999,999,999,0,
19,0.5,0.1,1,0.24167,0.275,0.81667,19,1.88334,-0.9,-0.45,0.05,5,2D1U,2.0,True,0.017,0,False,right,0.0,0.00020583299919962883,999,999,999,999,0,
20,0.5,1.2,2,0.3,0.21667,0.40833,20,1.475,-0.9,-0.45,0.05,5,1D2U,1.0,True,0.016,0,False,left,0.0,0.0002591669908724725,999,999,999,999,0,
21,0.5,0.1,2,0.21667,0.29167,0.4,21,1.45834,-0.9,-0.45,0.05,5,1D2U,1.0,True,0.016,0,False,left,0.0,0.00025329197524115443,999,999,999,999,0,
22,0.5,1.2,2,0.35,0.40833,0.825,22,2.175,-0.82,-0.40833,0.09167,5,2D1U,1.0,True,0.017,1,True,left,0.0,0.00023708399385213852,999,999,999,999,0,
23,0.5,0.1,2,0.275,0.30833,0.425,23,2.35833,0.7,0.35,0.85,5,1D1U,1.0,False,0.017,2,True,left,0.0,0.0002394999610260129,999,999,999,999,0,
24,0.5,1.2,2,0.275,0.30833,0.875,24,2.20833,-0.5,-0.25,0.25,5,1U1D,1.0,True,0.017,1,True,left,0.0,0.00023066700669005513,999,999,999,999,0,
25,0.5,1.2,2,0.2,0.31667,0.5,25,1.56667,-0.9,-0.45,0.05,5,lapse_rate,1.0,True,0.017,0,False,left,0.0,0.00025037501472979784,999,999,999,999,0,
26,0.5,0.1,2,0.40833,0.23333,0.54167,26,2.55,0.74,0.36667,0.86667,5,1D1U,2.0,True,0.016,2,False,right,0.0,0.0002581659937277436,999,999,999,999,0,
27,0.5,1.2,2,0.26667,0.4,0.46667,27,1.76667,-0.74,-0.36667,0.13333,5,2D1U,1.0,True,0.017,1,False,left,0.0,0.00021133397240191698,999,999,999,999,0,
28,0.5,0.1,2,0.225,0.35833,0.51667,28,1.65,-0.9,-0.45,0.05,5,lapse_rate,2.0,False,0.016,0,False,right,0.0,0.00020849995780736208,999,999,999,999,0,
29,0.5,0.1,2,0.20833,0.28333,0.40833,29,1.49166,-0.82,-0.40833,0.09167,5,1D2U,1.0,True,0.016,1,True,left,0.0,0.00020783295622095466,999,999,999,999,0,
30,0.5,1.2,1,0.44167,0.29167,0.41667,30,1.85834,-0.58,-0.29167,0.20833,5,1U1D,1.0,False,0.016,1,False,left,0.0,0.00021820899564772844,999,999,999,999,0,
31,0.5,1.2,1,0.28333,0.35833,0.5,31,1.69166,-0.9,-0.45,0.05,5,lapse_rate,1.0,False,0.017,0,False,left,0.0,0.00020000000949949026,999,999,999,999,0,
32,0.5,0.1,1,0.225,0.25833,0.40833,32,2.24166,0.7,0.35,0.85,5,1D1U,2.0,False,0.016,3,True,right,0.0,0.0002482919953763485,999,999,999,999,0,
33,0.5,1.2,1,0.21667,0.25833,0.83333,33,1.9,-0.82,-0.40833,0.09167,5,1D2U,1.0,False,0.016,1,True,left,0.0,0.00023549998877570033,999,999,999,999,0,
34,0.5,0.1,1,0.26667,0.20833,0.40833,34,1.55,-0.66,-0.33333,0.16667,5,2D1U,2.0,True,0.016,1,False,right,0.0,0.00019925000378862023,999,999,999,999,0,
35,0.5,1.2,1,0.23333,0.4,0.875,35,2.24166,-0.54,-0.26667,0.23333,5,1U1D,1.0,False,0.017,2,True,left,0.0,0.00020745903020724654,999,999,999,999,0,
36,0.5,0.1,1,0.40833,0.26667,0.6,36,2.025,-0.5,-0.25,0.25,5,1U1D,1.0,False,0.017,2,False,left,0.0,0.00019104097736999393,999,999,999,999,0,
37,0.5,0.1,1,0.31667,0.33333,0.89167,37,2.09167,-0.9,-0.45,0.05,5,lapse_rate,2.0,True,0.016,0,False,right,0.0,0.00016304204473271966,999,999,999,999,0,
38,0.5,1.2,1,0.25833,0.23333,0.45833,38,2.31666,0.74,0.36667,0.86667,5,1D1U,1.0,True,0.016,4,True,left,0.0,0.00017899996601045132,999,999,999,999,0,
39,0.5,0.1,1,0.225,0.31667,0.75833,39,2.00833,-0.58,-0.29167,0.20833,5,2D1U,2.0,True,0.016,1,False,right,0.0,0.00017795799067243934,999,999,999,999,0,
40,0.5,1.2,2,0.35,0.36667,0.88333,40,2.16667,-0.86,-0.43333,0.06667,5,1D2U,2.0,False,0.017,2,True,right,0.0,0.00019824999617412686,999,999,999,999,0,
41,0.5,0.1,2,0.275,0.3,0.81667,41,2.15834,-0.46,-0.23333,0.26667,5,1U1D,1.0,True,0.017,2,False,left,0.0,0.0001849159598350525,999,999,999,999,0,
42,0.5,1.2,2,0.21667,0.31667,0.65,42,2.53334,0.7,0.35,0.85,5,1D1U,1.0,False,0.017,5,True,left,0.0,0.00020395894534885883,999,999,999,999,0,
43,0.5,0.1,2,0.39167,0.425,0.55,43,2.11667,-0.5,-0.25,0.25,5,2D1U,1.0,True,0.017,1,False,left,0.0,0.00017933297203853726,999,999,999,999,0,
44,0.5,1.2,2,0.21667,0.34167,0.575,44,1.68334,-0.9,-0.45,0.05,5,lapse_rate,2.0,False,0.017,0,False,right,0.0,0.00019029201939702034,999,999,999,999,0,
45,0.5,1.2,2,0.41667,0.35,0.56667,45,1.88334,-0.9,-0.45,0.05,5,1D2U,2.0,False,0.017,2,False,right,0.0,0.00021587498486042023,999,999,999,999,0,
46,0.5,0.1,2,0.35,0.25833,0.5,46,2.475,0.74,0.36667,0.86667,5,1D1U,2.0,True,0.017,6,True,right,0.0,0.0001866249949671328,999,999,999,999,0,
47,0.5,1.2,2,0.43333,0.325,0.49167,47,2.7,0.9,0.45,0.95,5,lapse_rate,2.0,True,0.017,0,False,right,0.0,0.000166917045135051,999,999,999,999,0,
48,0.5,1.2,2,0.33333,0.275,0.53333,48,1.69166,-0.9,-0.45,0.05,5,1D2U,2.0,False,0.016,2,False,right,0.0,0.00019229203462600708,999,999,999,999,0,
49,0.5,0.1,2,0.20833,0.25,0.55,49,1.75833,-0.5,-0.25,0.25,5,1U1D,2.0,False,0.017,3,True,right,0.0,0.00019562500528991222,999,999,999,999,0,
50,0.5,1.2,1,0.275,0.43333,0.59167,50,2.09167,-0.42,-0.20833,0.29167,5,2D1U,1.0,False,0.018,1,False,left,0.0,0.00017929199384525418,999,999,999,999,0,
51,0.5,0.1,1,0.24167,0.21667,0.51667,51,1.76668,-0.42,-0.20833,0.29167,5,2D1U,2.0,True,0.017,1,False,right,0.0,0.00020054198103025556,999,999,999,999,0,
52,0.5,1.2,1,0.38333,0.25,0.83333,52,2.23333,-0.46,-0.23333,0.26667,5,1U1D,1.0,False,0.017,4,True,left,0.0,0.00019604101544246078,999,999,999,999,0,
53,0.5,0.1,1,0.35,0.29167,0.84167,53,2.83334,0.7,0.35,0.85,5,1D1U,2.0,False,0.016,7,True,right,0.0,0.00031924998620525,999,999,999,999,0,
54,0.5,1.2,1,0.40833,0.4,0.81667,54,2.175,-0.9,-0.45,0.05,5,1D2U,1.0,False,0.016,2,False,left,0.0,0.0001751669915392995,999,999,999,999,0,
55,0.5,1.2,1,0.35,0.425,0.8,55,2.125,-0.9,-0.45,0.05,5,lapse_rate,2.0,True,0.016,0,False,right,0.0,0.0001936250482685864,999,999,999,999,0,
56,0.5,0.1,1,0.4,0.325,0.65833,56,2.75,0.74,0.36667,0.86667,5,1D1U,1.0,True,0.017,8,True,left,0.0,0.00018849998014047742,999,999,999,999,0,
57,0.5,1.2,1,0.20833,0.26667,0.8,57,2.10833,-0.34,-0.16667,0.33333,5,2D1U,1.0,False,0.017,1,False,left,0.0,0.00018091697711497545,999,999,999,999,0,
58,0.5,0.1,1,0.25833,0.20833,0.50833,58,1.52499,-0.9,-0.45,0.05,5,1D2U,1.0,False,0.016,2,False,left,0.0,0.00017795799067243934,999,999,999,999,0,
59,0.5,0.1,1,0.41667,0.425,0.7,59,2.09167,-0.9,-0.45,0.05,5,lapse_rate,1.0,False,0.017,0,False,left,0.0,0.0001807080116122961,999,999,999,999,0,
60,0.5,1.2,2,0.325,0.34167,0.7,60,2.15834,-0.42,-0.20833,0.29167,5,1U1D,2.0,False,0.017,4,False,right,0.0,0.00019395799608901143,999,999,999,999,0,
61,0.5,0.1,2,0.35,0.24167,0.86667,61,2.26667,-0.38,-0.19167,0.30833,5,1U1D,1.0,True,0.016,4,False,left,0.0,0.00024145899806171656,999,999,999,999,0,
62,0.5,0.1,2,0.40833,0.34167,0.45833,62,1.75833,-0.9,-0.45,0.05,5,lapse_rate,1.0,True,0.016,0,False,left,0.0,0.0002772919833660126,999,999,999,999,0,
63,0.5,1.2,2,0.41667,0.33333,0.55833,63,2.14166,-0.34,-0.16667,0.33333,5,2D1U,2.0,False,0.017,1,False,right,0.0,0.00017912499606609344,999,999,999,999,0,
64,0.5,0.1,2,0.25,0.275,0.55,64,1.625,-0.9,-0.45,0.05,5,1D2U,1.0,True,0.016,2,False,left,0.0,0.00022129202261567116,999,999,999,999,0,
65,0.5,1.2,2,0.44167,0.29167,0.775,65,2.85834,0.7,0.35,0.85,5,1D1U,2.0,True,0.017,9,True,right,0.0,0.0001711250515654683,999,999,999,999,0,
66,0.5,1.2,2,0.34167,0.39167,0.84167,66,3.02501,0.9,0.45,0.95,5,lapse_rate,1.0,False,0.016,0,False,left,0.0,0.0002038750099018216,999,999,999,999,0,
67,0.5,0.1,2,0.21667,0.36667,0.64167,67,2.03334,-0.38,-0.19167,0.30833,5,2D1U,2.0,False,0.017,2,True,right,0.0,0.0001925000105984509,999,999,999,999,0,
68,0.5,1.2,2,0.225,0.28333,0.65833,68,1.71666,-0.9,-0.45,0.05,5,1D2U,2.0,False,0.017,2,False,right,0.0,0.00020008301362395287,999,999,999,999,0,
69,0.5,0.1,2,0.275,0.2,0.63333,69,1.9,-0.42,-0.20833,0.29167,5,1U1D,1.0,True,0.016,5,True,left,0.0,0.0002228330122306943,999,999,999,999,0,
70,0.5,1.2,1,0.275,0.29167,0.56667,70,2.46667,0.66,0.33333,0.83333,5,1D1U,2.0,False,0.016,9,False,right,0.0,0.00021537498105317354,999,999,999,999,0,
71,0.5,0.1,1,0.28333,0.375,0.575,71,2.58333,0.7,0.35,0.85,5,1D1U,2.0,False,0.017,10,True,right,0.0,0.00019820901798084378,999,999,999,999,0,
72,0.5,1.2,1,0.26667,0.375,0.425,72,1.83334,-0.46,-0.23333,0.26667,5,1U1D,1.0,False,0.016,5,False,left,0.0,0.0002132499939762056,999,999,999,999,0,
73,0.5,0.1,1,0.3,0.40833,0.51667,73,1.775,-0.9,-0.45,0.05,5,1D2U,2.0,True,0.017,2,False,right,0.0,0.00019520899513736367,999,999,999,999,0,
74,0.5,0.1,1,0.38333,0.24167,0.5,74,2.575,0.9,0.45,0.95,5,lapse_rate,1.0,True,0.017,0,False,left,0.0,0.00021191698033362627,999,999,999,999,0,
75,0.5,1.2,1,0.24167,0.3,0.875,75,2.225,-0.38,-0.19167,0.30833,5,2D1U,1.0,False,0.017,2,True,left,0.0,0.00017775001469999552,999,999,999,999,0,
76,0.5,0.1,1,0.25,0.4,0.55833,76,2.575,0.74,0.36667,0.86667,5,1D1U,1.0,True,0.017,10,False,left,0.0,0.00018983398331329226,999,999,999,999,0,
77,0.5,1.2,1,0.43333,0.21667,0.69167,77,2.13334,-0.42,-0.20833,0.29167,5,2D1U,1.0,False,0.017,2,False,left,0.0,0.00018816598458215594,999,999,999,999,0,
78,0.5,1.2,1,0.375,0.25,0.74167,78,1.91667,-0.9,-0.45,0.05,5,lapse_rate,1.0,False,0.017,0,False,left,0.0,0.0002055829972960055,999,999,999,999,0,
79,0.5,0.1,1,0.41667,0.40833,0.51667,79,2.13334,-0.42,-0.20833,0.29167,5,1U1D,1.0,False,0.017,6,True,left,0.0,0.0001949999714270234,999,999,999,999,0,
80,0.5,1.2,2,0.34167,0.33333,0.53333,80,1.75833,-0.9,-0.45,0.05,5,1D2U,1.0,True,0.016,2,False,left,0.0,0.00017812498845160007,999,999,999,999,0,
81,0.5,0.1,2,0.39167,0.31667,0.85,81,2.36667,-0.38,-0.19167,0.30833,5,1U1D,1.0,True,0.017,6,False,left,0.0,0.00017329095862805843,999,999,999,999,0,
82,0.5,1.2,2,0.25,0.375,0.825,82,2.24167,-0.42,-0.20833,0.29167,5,2D1U,2.0,False,0.016,2,False,right,0.0,0.0001829999964684248,999,999,999,999,0,
83,0.5,0.1,2,0.31667,0.225,0.89167,83,2.00001,-0.86,-0.43333,0.06667,5,1D2U,2.0,False,0.016,3,True,right,0.0,0.00018866703612729907,999,999,999,999,0,
84,0.5,1.2,2,0.25833,0.375,0.55833,84,1.74166,-0.9,-0.45,0.05,5,lapse_rate,2.0,False,0.017,0,False,right,0.0,0.00023845897521823645,999,999,999,999,0,
85,0.5,1.2,2,0.35,0.225,0.48333,85,2.40833,0.7,0.35,0.85,5,1D1U,2.0,True,0.017,11,True,right,0.0,0.0003273339825682342,999,999,999,999,0,
86,0.5,0.1,2,0.375,0.325,0.76667,86,2.23334,-0.46,-0.23333,0.26667,5,2D1U,2.0,False,0.017,2,False,right,0.0,0.00035604200093075633,999,999,999,999,0,
87,0.5,0.1,2,0.30833,0.44167,0.425,87,1.725,-0.9,-0.45,0.05,5,lapse_rate,1.0,True,0.015,0,False,left,0.0,0.0006089579546824098,999,999,999,999,0,
88,0.5,1.2,2,0.28333,0.4,0.63333,88,2.64999,0.66,0.33333,0.83333,5,1D1U,2.0,True,0.016,11,False,right,0.0,0.0003375830128788948,999,999,999,999,0,
89,0.5,0.1,2,0.26667,0.29167,0.54167,89,1.89168,-0.42,-0.20833,0.29167,5,1U1D,1.0,True,0.015,7,True,left,0.0,0.0005429579759947956,999,999,999,999,0,
90,0.5,1.2,1,0.23333,0.39167,0.79167,90,1.96667,-0.9,-0.45,0.05,5,1D2U,2.0,True,0.017,4,True,right,0.0,0.00025762501172721386,999,999,999,999,0,
91,0.5,0.1,1,0.39167,0.20833,0.78333,91,2.83333,0.9,0.45,0.95,5,lapse_rate,2.0,False,0.017,0,False,right,0.0,0.0002686660154722631,999,999,999,999,0,
92,0.5,0.1,1,0.28333,0.38333,0.51667,92,2.49166,0.62,0.30833,0.80833,5,1D1U,1.0,True,0.017,11,False,left,0.0,0.00020241597667336464,999,999,999,999,0,
93,0.5,1.2,1,0.35833,0.34167,0.675,93,2.14167,-0.46,-0.23333,0.26667,5,2D1U,2.0,True,0.016,2,False,right,0.0,0.00024675001623108983,999,999,999,999,0,
94,0.5,0.1,1,0.35833,0.39167,0.88333,94,2.4,-0.46,-0.23333,0.26667,5,1U1D,2.0,True,0.017,7,False,right,0.0,0.00017645797925069928,999,999,999,999,0,
95,0.5,1.2,1,0.275,0.31667,0.825,95,1.96667,-0.9,-0.45,0.05,5,1D2U,2.0,True,0.017,4,True,right,0.0,0.0001837079762481153,999,999,999,999,0,
96,0.5,0.1,1,0.29167,0.45,0.725,96,2.25834,-0.42,-0.20833,0.29167,5,2D1U,2.0,True,0.016,3,True,right,0.0,0.00021187501261010766,999,999,999,999,0,
97,0.5,1.2,1,0.28333,0.36667,0.825,97,2.04167,-0.86,-0.43333,0.06667,5,1D2U,2.0,True,0.017,5,True,right,0.0,0.00020775001030415297,999,999,999,999,0,
98,0.5,1.2,1,0.39167,0.29167,0.41667,98,2.55001,0.9,0.45,0.95,5,lapse_rate,2.0,False,0.017,0,False,right,0.0,0.00019208301091566682,999,999,999,999,0,
99,0.5,0.1,1,0.23333,0.275,0.55833,99,1.81666,-0.5,-0.25,0.25,5,1U1D,2.0,True,0.017,7,False,right,0.0,0.00022412498947232962,999,999,999,999,0,
100,0.5,1.2,2,0.30833,0.21667,0.725,100,2.54167,0.58,0.29167,0.79167,5,1D1U,1.0,False,0.016,11,False,left,0.0,0.0002324579982087016,999,999,999,999,0,
101,0.5,1.2,2,0.25,0.29167,0.68333,101,2.675,0.9,0.45,0.95,5,lapse_rate,2.0,True,0.017,0,False,right,0.0,0.00017512502381578088,999,999,999,999,0,
102,0.5,0.1,2,0.36667,0.425,0.71667,102,2.81667,0.62,0.30833,0.80833,5,1D1U,2.0,True,0.016,12,True,right,0.0,0.00018174998695030808,999,999,999,999,0,
103,0.5,1.2,2,0.25,0.20833,0.75,103,1.94166,-0.54,-0.26667,0.23333,5,1U1D,1.0,True,0.017,7,False,left,0.0,0.00022070802515372634,999,999,999,999,0,
104,0.5,0.1,2,0.39167,0.33333,0.65833,104,2.19166,-0.38,-0.19167,0.30833,5,2D1U,2.0,False,0.066,3,False,right,0.0,0.00020979199325665832,999,999,999,999,0,
105,0.5,1.2,2,0.3,0.41667,0.425,105,1.70834,-0.86,-0.43333,0.06667,5,1D2U,1.0,True,0.016,5,True,left,0.0,0.00021579203894361854,999,999,999,999,0,
106,0.5,0.1,2,0.39167,0.4,0.84167,106,3.08334,0.9,0.45,0.95,5,lapse_rate,2.0,True,0.017,0,False,right,0.0,0.00018770800670608878,999,999,999,999,0,
107,0.5,0.1,2,0.26667,0.34167,0.73333,107,2.15,-0.38,-0.19167,0.30833,5,2D1U,2.0,False,0.017,3,False,right,0.0,0.0001967499847523868,999,999,999,999,0,
108,0.5,1.2,2,0.4,0.43333,0.50833,108,1.93333,-0.82,-0.40833,0.09167,5,1D2U,1.0,True,0.017,5,False,left,0.0,0.00019987497944384813,999,999,999,999,0,
109,0.5,0.1,2,0.25833,0.35833,0.48333,109,1.80832,-0.58,-0.29167,0.20833,5,1U1D,2.0,False,0.017,7,False,right,0.0,0.000201582966838032,999,999,999,999,0,
110,0.5,1.2,1,0.35833,0.26667,0.55833,110,2.475,0.58,0.29167,0.79167,5,1D1U,2.0,False,0.017,13,True,right,0.0,0.00021033297525718808,999,999,999,999,0,
111,0.5,0.1,1,0.41667,0.30833,0.875,111,2.19167,-0.82,-0.40833,0.09167,5,1D2U,1.0,False,0.017,5,False,left,0.0,0.0001741250162012875,999,999,999,999,0,
112,0.5,1.2,1,0.25833,0.34167,0.8,112,2.85,0.9,0.45,0.95,5,lapse_rate,2.0,False,0.017,0,False,right,0.0,0.00021808402379974723,999,999,999,999,0,
113,0.5,1.2,1,0.325,0.36667,0.49167,113,2.49167,0.62,0.30833,0.80833,5,1D1U,1.0,True,0.017,14,True,left,0.0,0.00020595802925527096,999,999,999,999,0,
114,0.5,0.1,1,0.35833,0.375,0.84167,114,2.30833,-0.54,-0.26667,0.23333,5,1U1D,2.0,True,0.017,8,True,right,0.0,0.00017866701819002628,999,999,999,999,0,
115,0.5,1.2,1,0.39167,0.225,0.73333,115,2.14167,-0.42,-0.20833,0.29167,5,2D1U,2.0,True,0.017,4,True,right,0.0,0.00020116701489314437,999,999,999,999,0,
116,0.5,0.1,1,0.35833,0.31667,0.50833,116,1.99166,-0.38,-0.19167,0.30833,5,2D1U,2.0,True,0.017,5,True,right,0.0,0.00019870803225785494,999,999,999,999,0,
117,0.5,1.2,1,0.375,0.40833,0.7,117,2.19166,-0.58,-0.29167,0.20833,5,1U1D,1.0,False,0.017,9,True,left,0.0,0.00018400000408291817,999,999,999,999,0,
118,0.5,0.1,1,0.38333,0.43333,0.675,118,2.04166,-0.9,-0.45,0.05,5,lapse_rate,1.0,False,0.017,0,False,left,0.0,0.00020054203923791647,999,999,999,999,0,
119,0.5,0.1,1,0.4,0.28333,0.45833,119,1.70833,-0.86,-0.43333,0.06667,5,1D2U,2.0,True,0.017,6,True,right,0.0,0.0002120420103892684,999,999,999,999,0,
120,0.5,1.2,2,0.275,0.39167,0.875,120,2.83334,0.58,0.29167,0.79167,5,1D1U,1.0,False,0.016,15,True,left,0.0,0.00022929103579372168,999,999,999,999,0,
121,0.5,0.1,2,0.375,0.44167,0.45833,121,2.00833,-0.54,-0.26667,0.23333,5,1U1D,2.0,False,0.016,10,True,right,0.0,0.00026508403243497014,999,999,999,999,0,
122,0.5,1.2,2,0.28333,0.35,0.46667,122,1.66667,-0.86,-0.43333,0.06667,5,1D2U,1.0,True,0.017,6,True,left,0.0,0.0002287919633090496,999,999,999,999,0,
123,0.5,0.1,2,0.275,0.34167,0.6,123,2.525,0.62,0.30833,0.80833,5,1D1U,1.0,False,0.017,16,True,left,0.0,0.00022258301032707095,999,999,999,999,0,
124,0.5,1.2,2,0.4,0.29167,0.55,124,2.69167,0.9,0.45,0.95,5,lapse_rate,1.0,False,0.017,0,False,left,0.0,0.00018462497973814607,999,999,999,999,0,
125,0.5,1.2,2,0.375,0.25833,0.49167,125,1.95833,-0.34,-0.16667,0.33333,5,2D1U,1.0,True,0.017,5,False,left,0.0,0.00019287498435005546,999,999,999,999,0,
126,0.5,0.1,2,0.29167,0.28333,0.85,126,2.75833,0.66,0.33333,0.83333,5,1D1U,2.0,True,0.017,16,False,right,0.0,0.0001793340197764337,999,999,999,999,0,
127,0.5,0.1,2,0.21667,0.29167,0.56667,127,2.52501,0.9,0.45,0.95,5,lapse_rate,2.0,True,0.017,0,False,right,0.0,0.0001765410415828228,999,999,999,999,0,
128,0.5,1.2,2,0.20833,0.2,0.425,128,1.58333,-0.5,-0.25,0.25,5,1U1D,2.0,False,0.016,10,False,right,0.0,0.0002158329589292407,999,999,999,999,0,
129,0.5,0.1,2,0.35833,0.43333,0.625,129,2.00833,-0.82,-0.40833,0.09167,5,1D2U,1.0,True,0.017,7,True,left,0.0,0.00019904202781617641,999,999,999,999,0,
130,0.5,1.2,1,0.41667,0.23333,0.55,130,2.05,-0.3,-0.15,0.35,5,2D1U,1.0,False,0.017,5,False,left,0.0,0.00017245800700038671,999,999,999,999,0,
131,0.5,0.1,1,0.325,0.225,0.79167,131,2.10834,-0.46,-0.23333,0.26667,5,1U1D,2.0,True,0.016,10,False,right,0.0,0.00019670900655910373,999,999,999,999,0,
132,0.5,0.1,1,0.34167,0.325,0.69167,132,1.90834,-0.9,-0.45,0.05,5,lapse_rate,1.0,False,0.016,0,False,left,0.0,0.000254125043284148,999,999,999,999,0,
133,0.5,1.2,1,0.225,0.225,0.625,133,1.66667,-0.82,-0.40833,0.09167,5,1D2U,1.0,False,0.017,7,True,left,0.0,0.00026062497636303306,999,999,999,999,0,
134,0.5,0.1,1,0.275,0.4,0.425,134,2.40833,0.62,0.30833,0.80833,5,1D1U,2.0,False,0.017,17,True,right,0.0,0.00027370796306058764,999,999,999,999,0,
135,0.5,1.2,1,0.31667,0.36667,0.84167,135,2.37501,-0.3,-0.15,0.35,5,2D1U,2.0,True,0.016,5,False,right,0.0,0.0002591669908724725,999,999,999,999,0,
136,0.5,0.1,1,0.29167,0.39167,0.575,136,2.59167,0.66,0.33333,0.83333,5,1D1U,2.0,False,0.017,18,True,right,0.0,0.00020091701298952103,999,999,999,999,0,
137,0.5,1.2,1,0.43333,0.24167,0.44167,137,2.56667,0.9,0.45,0.95,5,lapse_rate,2.0,False,0.017,0,False,right,0.0,0.00016445800429210067,999,999,999,999,0,
138,0.5,1.2,1,0.40833,0.30833,0.85833,138,2.44166,-0.26,-0.13333,0.36667,5,2D1U,2.0,True,0.017,5,False,right,0.0,0.00018720899242907763,999,999,999,999,0,
139,0.5,0.1,1,0.29167,0.4,0.59167,139,1.85001,-0.86,-0.43333,0.06667,5,1D2U,2.0,True,0.016,8,True,right,0.0,0.0001961250090971589,999,999,999,999,0,
140,0.5,1.2,2,0.25,0.21667,0.51667,140,1.73334,-0.5,-0.25,0.25,5,1U1D,2.0,False,0.016,11,True,right,0.0,0.0002038749516941607,999,999,999,999,0,
141,0,0,0,0,0,0,0,0,0,0,0,0,0,0,0,0,0,0,0,0,0,0,0,0,0,0,0
142,0.5,0.1,2,0.29167,0.275,0.56667,142,2.48334,0.7,0.35,0.85,5,1D1U,1.0,False,0.016,18,False,left,0.0,0.00017583300359547138,999,999,999,999,0,
143,0.5,1.2,2,0.4,0.225,0.76667,143,2.28334,-0.22,-0.10833,0.39167,5,2D1U,1.0,True,0.017,5,False,left,0.0,0.00018504197942093015,999,999,999,999,0,
144,0.5,0.1,2,0.24167,0.21667,0.49167,144,1.51668,-0.86,-0.43333,0.06667,5,1D2U,1.0,True,0.016,8,True,left,0.0,0.00022350001381710172,999,999,999,999,0,
145,0.5,1.2,2,0.26667,0.28333,0.78333,145,2.1,-0.46,-0.23333,0.26667,5,1U1D,2.0,False,0.017,12,True,right,0.0,0.00019066600361838937,999,999,999,999,0,
146,0.5,0.1,2,0.23333,0.23333,0.775,146,1.83333,-0.82,-0.40833,0.09167,5,1D2U,1.0,True,0.016,9,True,left,0.0,0.00022945902310311794,999,999,999,999,0,
147,0.5,1.2,2,0.425,0.36667,0.78333,147,2.36667,-0.42,-0.20833,0.29167,5,1U1D,2.0,False,0.016,12,False,right,0.0,0.00019966700347140431,999,999,999,999,0,
148,0.5,0.1,2,0.45,0.29167,0.525,148,2.075,-0.38,-0.19167,0.30833,5,1U1D,1.0,True,0.017,12,False,left,0.0,0.0001770000089891255,999,999,999,999,0,
149,0.5,1.2,2,0.30833,0.3,0.71667,149,2.69167,0.74,0.36667,0.86667,5,1D1U,1.0,False,0.017,18,False,left,0.0,0.0001681669964455068,999,999,999,999,0,
150,0.5,0.1,1,0.225,0.4,0.625,150,2.15833,-0.18,-0.09167,0.40833,5,2D1U,2.0,True,0.016,5,False,right,0.0,0.00024512497475370765,999,999,999,999,0,
151,0.5,1.2,1,0.24167,0.4,0.475,151,1.70834,-0.82,-0.40833,0.09167,5,1D2U,2.0,True,0.017,9,True,right,0.0,0.00017275003483518958,999,999,999,999,0,
152,0.5,0.1,1,0.23333,0.40833,0.40833,152,1.65832,-0.78,-0.39167,0.10833,5,1D2U,1.0,False,0.017,9,False,left,0.0,0.00018629198893904686,999,999,999,999,0,
153,0.5,1.2,1,0.26667,0.44167,0.875,153,2.37501,-0.42,-0.20833,0.29167,5,1U1D,1.0,False,0.016,13,True,left,0.0,0.0001907499972730875,999,999,999,999,0,
154,0.5,0.1,1,0.34167,0.20833,0.75,154,2.23333,-0.14,-0.06667,0.43333,5,2D1U,1.0,False,0.017,5,False,left,0.0,0.00018366699805483222,999,999,999,999,0,
155,0.5,1.2,1,0.31667,0.325,0.83333,155,2.86667,0.78,0.39167,0.89167,5,1D1U,2.0,False,0.016,18,False,right,0.0,0.00019508297555148602,999,999,999,999,0,
156,0.5,0.1,1,0.21667,0.45,0.44167,156,1.70001,-0.82,-0.40833,0.09167,5,1D2U,1.0,False,0.017,10,True,left,0.0,0.00017845799447968602,999,999,999,999,0,
157,0.5,1.2,1,0.38333,0.31667,0.58333,157,2.69166,0.82,0.40833,0.90833,5,1D1U,2.0,False,0.016,18,False,right,0.0,0.00017508299788460135,999,999,999,999,0,
158,0.5,0.1,1,0.36667,0.325,0.725,158,2.85,0.86,0.43333,0.93333,5,1D1U,2.0,False,0.016,18,False,right,0.0,0.00020483299158513546,999,999,999,999,0,
159,0.5,1.2,1,0.39167,0.40833,0.75833,159,2.49166,-0.14,-0.06667,0.43333,5,2D1U,2.0,True,0.016,5,False,right,0.0,0.00016858300659805536,999,999,999,999,0,
160,0.5,0.1,2,0.33333,0.35,0.70833,160,2.19999,-0.38,-0.19167,0.30833,5,1U1D,2.0,False,0.017,14,True,right,0.0,0.00020541698904708028,999,999,999,999,0,
161,0.5,1.2,2,0.325,0.39167,0.86667,161,2.15001,-0.86,-0.43333,0.06667,5,1D2U,2.0,False,0.017,10,False,right,0.0,0.00018804200226441026,999,999,999,999,0,
162,0.5,0.1,2,0.40833,0.34167,0.73333,162,2.31666,-0.34,-0.16667,0.33333,5,1U1D,2.0,False,0.017,14,False,right,0.0,0.00017383397789672017,999,999,999,999,0,
163,0.5,1.2,2,0.25,0.43333,0.49167,163,2.625,0.9,0.45,0.95,5,1D1U,1.0,False,0.016,18,False,left,0.0,0.00018520798766985536,999,999,999,999,0,
164,0.5,0.1,2,0.31667,0.21667,0.55,164,2.03334,-0.1,-0.05,0.45,5,2D1U,1.0,True,0.016,5,False,left,0.0,0.00020745897199958563,999,999,999,999,0,
165,0.5,1.2,2,0.25,0.35,0.775,165,2.34167,-0.06,-0.03333,0.46667,5,2D1U,1.0,True,0.016,5,False,left,0.0,0.00017725001089274883,999,999,999,999,0,
166,0.5,0.1,2,0.34167,0.29167,0.88333,166,2.06667,-0.9,-0.45,0.05,5,1D2U,1.0,True,0.017,10,False,left,0.0,0.0002025419962592423,999,999,999,999,0,
167,0.5,1.2,2,0.3,0.26667,0.61667,167,1.73334,-0.9,-0.45,0.05,5,1D2U,2.0,False,0.017,10,False,right,0.0,0.00021358300000429153,999,999,999,999,0,
168,0.5,0.1,2,0.24167,0.24167,0.55833,168,2.50834,0.94,0.46667,0.96667,5,1D1U,2.0,True,0.017,18,False,right,0.0,0.00016791699454188347,999,999,999,999,0,
169,0.5,1.2,2,0.21667,0.275,0.55,169,1.89167,-0.3,-0.15,0.35,5,1U1D,1.0,True,0.016,14,False,left,0.0,0.00018541701138019562,999,999,999,999,0,
170,0.5,0.1,1,0.2,0.425,0.5,170,2.11667,-0.02,-0.00833,0.49167,5,2D1U,2.0,True,0.017,5,False,right,0.0,0.00017016701167449355,999,999,999,999,0,
171,0.5,1.2,1,0.34167,0.44167,0.84167,171,2.63334,0.02,0.00833,0.50833,5,2D1U,1.0,True,0.017,5,False,left,0.0,0.00016666698502376676,999,999,999,999,0,
172,0.5,0.1,1,0.33333,0.25,0.74167,172,2.33333,0.02,0.00833,0.50833,5,2D1U,2.0,False,0.017,5,False,right,0.0,0.00016641599358990788,999,999,999,999,0,
173,0.5,1.2,1,0.31667,0.275,0.64167,173,2.06667,-0.34,-0.16667,0.33333,5,1U1D,1.0,False,0.016,15,True,left,0.0,0.00016254204092547297,999,999,999,999,0,
174,0.5,0.1,1,0.375,0.2,0.6,174,1.725,-0.9,-0.45,0.05,5,1D2U,1.0,False,0.017,10,False,left,0.0,0.00016125000547617674,999,999,999,999,0,
175,0.5,1.2,1,0.30833,0.20833,0.89167,175,2.85833,0.9,0.45,0.95,5,1D1U,1.0,True,0.016,19,True,left,0.0,0.0002478749956935644,999,999,999,999,0,
176,0.5,0.1,1,0.45,0.34167,0.625,176,1.96667,-0.9,-0.45,0.05,5,1D2U,1.0,False,0.016,10,False,left,0.0,0.0002293750294484198,999,999,999,999,0,
177,0.5,1.2,1,0.35833,0.225,0.84167,177,1.975,-0.9,-0.45,0.05,5,1D2U,1.0,False,0.016,10,False,left,0.0,0.00020429096184670925,999,999,999,999,0,
178,0.5,0.1,1,0.25833,0.44167,0.48333,178,2.21666,0.06,0.03333,0.53333,5,2D1U,2.0,False,0.016,5,False,right,0.0,0.000196165987290442,999,999,999,999,0,
179,0.5,1.2,1,0.41667,0.36667,0.58333,179,2.21667,-0.3,-0.15,0.35,5,1U1D,1.0,False,0.017,16,True,left,0.0,0.00019450002582743764,999,999,999,999,0,
180,0.5,0.1,2,0.23333,0.325,0.5,180,2.49166,0.86,0.43333,0.93333,5,1D1U,2.0,True,0.017,19,False,right,0.0,0.00019808398792520165,999,999,999,999,0,
181,0.5,1.2,2,0.225,0.25833,0.45,181,1.48333,-0.9,-0.45,0.05,5,1D2U,1.0,True,0.016,10,False,left,0.0,0.00020650000078603625,999,999,999,999,0,
182,0.5,0.1,2,0.39167,0.35833,0.675,182,1.975,-0.9,-0.45,0.05,5,1D2U,1.0,True,0.016,10,False,left,0.0,0.0002561250003054738,999,999,999,999,0,
183,0.5,1.2,2,0.34167,0.2,0.65,183,2.6,0.82,0.40833,0.90833,5,1D1U,2.0,True,0.016,19,False,right,0.0,0.00017854198813438416,999,999,999,999,0,
184,0.5,0.1,2,0.43333,0.41667,0.825,184,2.54167,-0.26,-0.13333,0.36667,5,1U1D,2.0,False,0.017,16,False,right,0.0,0.00019387499196454883,999,999,999,999,0,
185,0.5,1.2,2,0.35833,0.375,0.475,185,2.25833,0.1,0.05,0.55,5,2D1U,2.0,True,0.017,5,False,right,0.0,0.000164708006195724,999,999,999,999,0,
186,0.5,0.1,2,0.24167,0.26667,0.65833,186,2.21667,0.1,0.05,0.55,5,2D1U,2.0,True,0.016,5,False,right,0.0,0.00017558399122208357,999,999,999,999,0,
187,0.5,1.2,2,0.29167,0.23333,0.76667,187,2.68334,0.78,0.39167,0.89167,5,1D1U,1.0,False,0.016,19,False,left,0.0,0.00020154204685240984,999,999,999,999,0,
188,0.5,0.1,2,0.29167,0.21667,0.475,188,1.55001,-0.86,-0.43333,0.06667,5,1D2U,2.0,False,0.017,11,True,right,0.0,0.00022799998987466097,999,999,999,999,0,
189,0.5,1.2,2,0.29167,0.3,0.475,189,1.95834,-0.22,-0.10833,0.39167,5,1U1D,1.0,True,0.016,16,False,left,0.0,0.00018824997823685408,999,999,999,999,0,
190,0.5,0.1,1,0.25,0.34167,0.50833,190,1.96667,-0.26,-0.13333,0.36667,5,1U1D,1.0,False,0.017,17,True,left,0.0,0.00018383300630375743,999,999,999,999,0,
191,0.5,1.2,1,0.325,0.275,0.825,191,1.975,-0.9,-0.45,0.05,5,1D2U,1.0,False,0.017,12,True,left,0.0,0.00017600000137463212,999,999,999,999,0,
192,0.5,0.1,1,0.36667,0.45,0.63333,192,2.34167,-0.22,-0.10833,0.39167,5,1U1D,2.0,True,0.017,18,True,right,0.0,0.00017179199494421482,999,999,999,999,0,
193,0.5,1.2,1,0.33333,0.38333,0.85833,193,2.44166,-0.26,-0.13333,0.36667,5,1U1D,1.0,False,0.017,19,True,left,0.0,0.0001852919813245535,999,999,999,999,0,
194,0.5,0.1,1,0.26667,0.40833,0.88333,194,2.96666,0.82,0.40833,0.90833,5,1D1U,1.0,True,0.016,20,True,left,0.0,0.00018641696078702807,999,999,999,999,0,
195,0.5,1.2,1,0.36667,0.4,0.56667,195,2.36667,0.06,0.03333,0.53333,5,2D1U,2.0,False,0.017,6,True,right,0.0,0.000188250036444515,999,999,999,999,0,
196,0.5,0.1,1,0.3,0.40833,0.53333,196,2.29166,0.1,0.05,0.55,5,2D1U,1.0,True,0.017,7,True,left,0.0,0.00017791701247915626,999,999,999,999,0,
197,0.5,1.2,1,0.28333,0.30833,0.55833,197,2.19999,0.1,0.05,0.55,5,2D1U,2.0,False,0.016,7,True,right,0.0,0.0001735410187393427,999,999,999,999,0,
198,0.5,0.1,1,0.45,0.30833,0.70833,198,2.35833,-0.22,-0.10833,0.39167,5,1U1D,2.0,True,0.016,20,True,right,0.0,0.0001930830185301602,999,999,999,999,0,
199,0.5,1.2,1,0.21667,0.44167,0.725,199,1.93334,-0.9,-0.45,0.05,5,1D2U,2.0,True,0.017,12,False,right,0.0,0.00017308298265561461,999,999,999,999,0,
200,0.5,0.1,2,0.33333,0.40833,0.725,200,2.85833,0.78,0.39167,0.89167,5,1D1U,2.0,True,0.017,21,True,right,0.0,0.00018291600281372666,999,999,999,999,0,
201,0.5,1.2,2,0.24167,0.225,0.4,201,2.23334,0.74,0.36667,0.86667,5,1D1U,1.0,False,0.016,21,False,left,0.0,0.00022029102547094226,999,999,999,999,0,
202,0.5,0.1,2,0.24167,0.25833,0.70833,202,1.75833,-0.9,-0.45,0.05,5,1D2U,1.0,True,0.016,12,False,left,0.0,0.00017866602865979075,999,999,999,999,0,
203,0.5,1.2,2,0.3,0.25833,0.78333,203,1.90833,-0.86,-0.43333,0.06667,5,1D2U,1.0,True,0.016,13,True,left,0.0,0.00023691600654274225,999,999,999,999,0,
204,0.5,0.1,2,0.2,0.30833,0.79167,204,2.36667,0.14,0.06667,0.56667,5,2D1U,2.0,True,0.016,7,False,right,0.0,0.00022441695909947157,999,999,999,999,0,
205,0.5,1.2,2,0.43333,0.225,0.55833,205,2.08333,-0.26,-0.13333,0.36667,5,1U1D,1.0,True,0.016,21,True,left,0.0,0.00021629099501296878,999,999,999,999,0,
206,0.5,0.1,2,0.43333,0.25,0.84167,206,2.91667,0.78,0.39167,0.89167,5,1D1U,2.0,True,0.016,22,True,right,0.0,0.00021595804719254375,999,999,999,999,0,
207,0.5,1.2,2,0.375,0.2,0.55833,207,1.7,-0.86,-0.43333,0.06667,5,1D2U,2.0,False,0.016,13,True,right,0.0,0.00023333303397521377,999,999,999,999,0,
208,0.5,0.1,2,0.40833,0.425,0.44167,208,2.34167,0.14,0.06667,0.56667,5,2D1U,1.0,False,0.016,7,False,left,0.0,0.00017758301692083478,999,999,999,999,0,
209,0.5,1.2,2,0.3,0.44167,0.85,209,2.68334,0.18,0.09167,0.59167,5,2D1U,1.0,False,0.017,7,False,left,0.0,0.00018687499687075615,999,999,999,999,0,
210,0.5,0.1,1,0.2,0.29167,0.625,210,1.96667,-0.3,-0.15,0.35,5,1U1D,1.0,False,0.016,21,False,left,0.0,0.00016479101032018661,999,999,999,999,0,
211,0.5,1.2,1,0.325,0.2,0.66667,211,2.05834,-0.26,-0.13333,0.36667,5,1U1D,2.0,True,0.016,22,True,right,0.0,0.00017745798686519265,999,999,999,999,0,
212,0.5,0.1,1,0.375,0.325,0.65833,212,2.725,0.74,0.36667,0.86667,5,1D1U,2.0,False,0.016,23,True,right,0.0,0.00018245895626023412,999,999,999,999,0,
213,0.5,1.2,1,0.4,0.39167,0.80833,213,2.15,-0.9,-0.45,0.05,5,1D2U,1.0,False,0.016,14,True,left,0.0,0.0001747080241329968,999,999,999,999,0,
214,0.5,0.1,1,0.30833,0.41667,0.41667,214,1.69167,-0.9,-0.45,0.05,5,1D2U,1.0,False,0.016,14,False,left,0.0,0.00020791601855307817,999,999,999,999,0,
215,0.5,1.2,1,0.38333,0.23333,0.79167,215,2.51666,0.22,0.10833,0.60833,5,2D1U,2.0,False,0.016,7,False,right,0.0,0.00016416696598753333,999,999,999,999,0,
216,0.5,0.1,1,0.44167,0.425,0.56667,216,2.82501,0.78,0.39167,0.89167,5,1D1U,1.0,True,0.016,24,True,left,0.0,0.00018370902398601174,999,999,999,999,0,
217,0.5,1.2,1,0.275,0.225,0.575,217,1.625,-0.9,-0.45,0.05,5,1D2U,2.0,True,0.016,14,False,right,0.0,0.0001806250074878335,999,999,999,999,0,
218,0.5,0.1,1,0.4,0.25,0.76667,218,2.55,0.26,0.13333,0.63333,5,2D1U,1.0,True,0.03,7,False,left,0.0,0.00017858401406556368,999,999,999,999,0,
219,0.5,1.2,1,0.28333,0.43333,0.475,219,2.04166,-0.3,-0.15,0.35,5,1U1D,1.0,False,0.017,23,True,left,0.0,0.00019058299949392676,999,999,999,999,0,
220,0.5,0.1,2,0.325,0.20833,0.45833,220,1.85833,-0.26,-0.13333,0.36667,5,1U1D,1.0,True,0.016,24,True,left,0.0,0.00021829199977219105,999,999,999,999,0,
221,0.5,1.2,2,0.375,0.41667,0.775,221,2.41667,-0.3,-0.15,0.35,5,1U1D,1.0,True,0.016,25,True,left,0.0,0.00016358302673324943,999,999,999,999,0,
222,0.5,0.1,2,0.3,0.44167,0.49167,222,2.60001,0.74,0.36667,0.86667,5,1D1U,2.0,True,0.016,25,True,right,0.0,0.00018766598077490926,999,999,999,999,0,
223,0.5,1.2,2,0.30833,0.26667,0.85833,223,1.98333,-0.9,-0.45,0.05,5,1D2U,2.0,False,0.016,14,False,right,0.0,0.00016466702800244093,999,999,999,999,0,
224,0.5,0.1,2,0.275,0.225,0.46667,224,2.1,0.26,0.13333,0.63333,5,2D1U,2.0,True,0.017,7,False,right,0.0,0.00018037500558421016,999,999,999,999,0,
225,0.5,1.2,2,0.3,0.35,0.76667,225,2.25,-0.34,-0.16667,0.33333,5,1U1D,1.0,True,0.016,25,False,left,0.0,0.00018833298236131668,999,999,999,999,0,
226,0.5,0.1,2,0.2,0.44167,0.675,226,2.66667,0.7,0.35,0.85,5,1D1U,1.0,False,0.016,25,False,left,0.0,0.00016612501349300146,999,999,999,999,0,
227,0.5,1.2,2,0.38333,0.21667,0.53333,227,1.68333,-0.9,-0.45,0.05,5,1D2U,2.0,False,0.017,14,False,right,0.0,0.00015600002370774746,999,999,999,999,0,
228,0.5,0.1,2,0.34167,0.30833,0.78333,228,2.24166,-0.38,-0.19167,0.30833,5,1U1D,2.0,False,0.017,25,False,right,0.0,0.00015637499745935202,999,999,999,999,0,
229,0.5,1.2,2,0.33333,0.3,0.625,229,2.36666,0.22,0.10833,0.60833,5,2D1U,1.0,False,0.017,8,True,left,0.0,0.00017262500477954745,999,999,999,999,0,
230,0.5,0.1,1,0.31667,0.39167,0.88333,230,2.725,0.26,0.13333,0.63333,5,2D1U,1.0,True,0.017,9,True,left,0.0,0.00020700000459328294,999,999,999,999,0,
231,0.5,1.2,1,0.34167,0.425,0.58333,231,2.18333,-0.34,-0.16667,0.33333,5,1U1D,1.0,False,0.017,26,True,left,0.0,0.0001865419908426702,999,999,999,999,0,
232,0.5,0.1,1,0.25833,0.4,0.69167,232,1.9,-0.9,-0.45,0.05,5,1D2U,1.0,False,0.017,14,False,left,0.0,0.0001961660454981029,999,999,999,999,0,
233,0.5,1.2,1,0.40833,0.20833,0.475,233,2.22499,0.26,0.13333,0.63333,5,2D1U,2.0,False,0.017,9,True,right,0.0,0.00019483297364786267,999,999,999,999,0,
234,0.5,0.1,1,0.425,0.33333,0.85833,234,2.98333,0.74,0.36667,0.86667,5,1D1U,1.0,True,0.017,26,True,left,0.0,0.00017783301882445812,999,999,999,999,0,
235,0.5,1.2,1,0.20833,0.26667,0.41667,235,1.74167,-0.3,-0.15,0.35,5,1U1D,2.0,True,0.016,26,False,right,0.0,0.00023079203674569726,999,999,999,999,0,
236,0.5,0.1,1,0.44167,0.26667,0.80833,236,2.35,-0.34,-0.16667,0.33333,5,1U1D,2.0,True,0.017,27,True,right,0.0,0.00018154195277020335,999,999,999,999,0,
237,0.5,1.2,1,0.41667,0.275,0.64167,237,2.68334,0.7,0.35,0.85,5,1D1U,2.0,False,0.017,27,True,right,0.0,0.00016925000818446279,999,999,999,999,0,
238,0.5,0.1,1,0.21667,0.24167,0.86667,238,2.69168,0.74,0.36667,0.86667,5,1D1U,1.0,True,0.017,28,True,left,0.0,0.00019333302043378353,999,999,999,999,0,
239,0.5,1.2,1,0.38333,0.45,0.725,239,2.10833,-0.9,-0.45,0.05,5,1D2U,1.0,False,0.017,14,False,left,0.0,0.00019045796943828464,999,999,999,999,0,
240,0.5,0.1,2,0.31667,0.3,0.9,240,2.66667,0.3,0.15,0.65,5,2D1U,1.0,False,0.016,9,False,left,0.0,0.0001991249737329781,999,999,999,999,0,
241,0.5,1.2,2,0.41667,0.23333,0.75,241,2.75,0.7,0.35,0.85,5,1D1U,2.0,True,0.017,29,True,right,0.0,0.00019112497102469206,999,999,999,999,0,
242,0.5,0.1,2,0.275,0.28333,0.41667,242,1.78333,-0.38,-0.19167,0.30833,5,1U1D,2.0,False,0.017,27,False,right,0.0,0.00018445804016664624,999,999,999,999,0,
243,0.5,1.2,2,0.20833,0.4,0.51667,243,2.29167,0.34,0.16667,0.66667,5,2D1U,2.0,True,0.016,9,False,right,0.0,0.0002922920393757522,999,999,999,999,0,
244,0.5,0.1,2,0.23333,0.43333,0.49167,244,1.70833,-0.9,-0.45,0.05,5,1D2U,2.0,False,0.016,14,False,right,0.0,0.00031649996526539326,999,999,999,999,0,
245,0.5,1.2,2,0.44167,0.28333,0.80833,245,2.08333,-0.9,-0.45,0.05,5,1D2U,2.0,False,0.017,14,False,right,0.0,0.0002513750223442912,999,999,999,999,0,
246,0.5,0.1,2,0.21667,0.29167,0.49167,246,1.83334,-0.34,-0.16667,0.33333,5,1U1D,2.0,False,0.016,28,True,right,0.0,0.0006205000099726021,999,999,999,999,0,
247,0.5,1.2,2,0.375,0.29167,0.85,247,2.68334,0.34,0.16667,0.66667,5,2D1U,2.0,True,0.016,9,False,right,0.0,0.00019608397269621491,999,999,999,999,0,
248,0.5,0.1,2,0.31667,0.40833,0.66667,248,2.725,0.66,0.33333,0.83333,5,1D1U,1.0,False,0.017,29,False,left,0.0,0.00016729201888665557,999,999,999,999,0,
249,0.5,1.2,2,0.375,0.30833,0.86667,249,2.1,-0.9,-0.45,0.05,5,1D2U,2.0,False,0.017,14,False,right,0.0,0.00019766599871218204,999,999,999,999,0,
250,0.5,0.1,1,0.25833,0.3,0.44167,250,1.55,-0.9,-0.45,0.05,5,1D2U,1.0,False,0.016,14,False,left,0.0,0.00018558301962912083,999,999,999,999,0,
251,0.5,1.2,1,0.43333,0.30833,0.41667,251,2.50833,0.7,0.35,0.85,5,1D1U,1.0,True,0.017,30,True,left,0.0,0.0001771249808371067,999,999,999,999,0,
252,0.5,0.1,1,0.35833,0.30833,0.74167,252,2.74166,0.66,0.33333,0.83333,5,1D1U,2.0,False,0.017,31,True,right,0.0,0.00019587500719353557,999,999,999,999,0,
253,0.5,1.2,1,0.25,0.25,0.475,253,1.825,-0.3,-0.15,0.35,5,1U1D,1.0,False,0.017,28,False,left,0.0,0.00018275005277246237,999,999,999,999,0,
254,0.5,0.1,1,0.38333,0.38333,0.83333,254,2.74999,0.3,0.15,0.65,5,2D1U,1.0,True,0.017,10,True,left,0.0,0.00018970802193507552,999,999,999,999,0,
255,0.5,1.2,1,0.39167,0.375,0.41667,255,1.73334,-0.9,-0.45,0.05,5,1D2U,2.0,True,0.016,14,False,right,0.0,0.0002722499775700271,999,999,999,999,0,
256,0.5,0.1,1,0.23333,0.41667,0.41667,256,2.41667,0.7,0.35,0.85,5,1D1U,1.0,True,0.016,32,True,left,0.0,0.0002211249666288495,999,999,999,999,0,
257,0.5,1.2,1,0.35833,0.325,0.775,257,2.00833,-0.9,-0.45,0.05,5,1D2U,2.0,True,0.016,14,False,right,0.0,0.0001895420136861503,999,999,999,999,0,
258,0.5,0.1,1,0.25,0.21667,0.68333,258,2.3,0.3,0.15,0.65,5,2D1U,2.0,False,0.017,10,True,right,0.0,0.0001846670056693256,999,999,999,999,0,
259,0.5,1.2,1,0.38333,0.275,0.80833,259,2.33333,-0.26,-0.13333,0.36667,5,1U1D,2.0,True,0.016,28,False,right,0.0,0.00021833402570337057,999,999,999,999,0,
260,0.5,0.1,2,0.38333,0.275,0.88333,260,2.87499,0.66,0.33333,0.83333,5,1D1U,1.0,False,0.016,33,True,left,0.0,0.00021741603268310428,999,999,999,999,0,
261,0.5,1.2,2,0.25,0.36667,0.68333,261,1.86667,-0.86,-0.43333,0.06667,5,1D2U,1.0,True,0.017,15,True,left,0.0,0.00018679100321605802,999,999,999,999,0,
262,0.5,0.1,2,0.325,0.38333,0.43333,262,1.70833,-0.86,-0.43333,0.06667,5,1D2U,1.0,True,0.017,15,True,left,0.0,0.00017820904031395912,999,999,999,999,0,
263,0.5,1.2,2,0.3,0.43333,0.54167,263,2.125,-0.3,-0.15,0.35,5,1U1D,2.0,False,0.017,29,True,right,0.0,0.0002024589921347797,999,999,999,999,0,
264,0.5,0.1,2,0.36667,0.36667,0.75833,264,2.65834,0.34,0.16667,0.66667,5,2D1U,1.0,False,0.017,11,True,left,0.0,0.00018254201859235764,999,999,999,999,0,
265,0.5,1.2,2,0.39167,0.31667,0.51667,265,2.57501,0.7,0.35,0.85,5,1D1U,1.0,False,0.017,34,True,left,0.0,0.00017383298836648464,999,999,999,999,0,
266,0.5,0.1,2,0.2,0.24167,0.575,266,1.88334,-0.26,-0.13333,0.36667,5,1U1D,1.0,True,0.017,30,True,left,0.0,0.00019279099069535732,999,999,999,999,0,
267,0.5,1.2,2,0.225,0.325,0.45,267,2.19167,0.38,0.19167,0.69167,5,2D1U,1.0,False,0.016,11,False,left,0.0,0.00017662503523752093,999,999,999,999,0,
268,0.5,0.1,2,0.38333,0.24167,0.71667,268,2.70834,0.74,0.36667,0.86667,5,1D1U,1.0,False,0.017,34,False,left,0.0,0.00017670902889221907,999,999,999,999,0,
269,0.5,1.2,2,0.33333,0.31667,0.80833,269,2.05,-0.82,-0.40833,0.09167,5,1D2U,2.0,False,0.017,15,False,right,0.0,0.00019212497863918543,999,999,999,999,0,
270,0.5,0.1,1,0.36667,0.3,0.6,270,2.11667,-0.3,-0.15,0.35,5,1U1D,1.0,False,0.016,31,True,left,0.0,0.00020879099611192942,999,999,999,999,0,
271,0.5,1.2,1,0.33333,0.31667,0.73333,271,1.95,-0.86,-0.43333,0.06667,5,1D2U,2.0,True,0.017,16,True,right,0.0,0.00017808395205065608,999,999,999,999,0,
