,standardDur,audNoise,order,preDur,postDur,isiDur,trial_num,totalDur,delta_dur_percents,deltaDurS,testDurS,intensities,current_stair,responses,is_correct,response_rts,stair_num_reversal,stair_is_reversal,response_keys,conflictDur,recordedOnsetAudioTest,recordedOffsetAudioTest,recordedDurAudioTest,recordedOnsetVisualStandard,recordedOffsetVisualStandard,recordedDurVisualStandard,modalityPostCueTest
0,0.50134,1.2,2,0.39271,0.35094,0.68516,0,2.75736,0.65,0.32587,0.82721,5,2D1U,2.0,True,0.657,0,False,right,0.0,0.0007798001170158386,2.7569256997667253,2.7561458996497095,0.38185949996113777,0.8815057999454439,0.4996462999843061,
1,0.50134,0.1,2,0.39271,0.21725,0.83556,1,2.12233,-0.65,-0.32587,0.17547,5,1U1D,1.0,True,10.103,0,False,left,0.0,0.0007275003008544445,2.1241378001868725,2.123410299886018,0.38228469993919134,0.8818760002031922,0.4995913002640009,
2,0.50134,1.2,2,0.4512,0.35929,0.77707,2,2.91611,0.65,0.32587,0.82721,5,1D1U,2.0,True,0.306,0,False,right,0.0,0.0007147002033889294,2.9242060002870858,2.923491300083697,0.44093240005895495,0.9407574003562331,0.49982500029727817,
3,0.50134,0.1,2,0.26738,0.43449,0.42614,3,1.80482,-0.65,-0.32587,0.17547,5,2U1D,1.0,True,0.708,0,False,left,0.0,0.0007403995841741562,1.8164796000346541,1.81573920045048,0.25782749988138676,0.7576890997588634,0.4998615998774767,
4,0.50134,1.2,2,0.21725,0.40107,0.79378,4,2.86598,0.9,0.4512,0.95254,5,lapse_rate,2.0,True,0.537,0,False,right,0.0,0.0007678000256419182,2.8741641002707183,2.8733963002450764,0.20717439986765385,0.7072737999260426,0.5000994000583887,
5,0.50134,1.2,2,0.26738,0.32587,0.80214,5,2.72394,0.65,0.32587,0.82721,5,2D1U,2.0,True,0.702,0,False,right,0.0,0.00027660001069307327,2.7306412998586893,2.7303646998479962,0.25571230007335544,0.756073399912566,0.5003610998392105,
6,0.50134,0.1,2,0.32587,0.21725,0.62667,6,1.8466,-0.65,-0.32587,0.17547,5,2U1D,1.0,True,0.779,0,False,left,0.0,0.0008084997534751892,1.8480817000381649,1.8472732002846897,0.31477890023961663,0.8150088000111282,0.5002298997715116,
7,0.50134,1.2,2,0.32587,0.35929,0.68516,7,2.09726,-0.55,-0.27574,0.2256,5,1U1D,1.0,True,2.824,0,False,left,0.0,0.0007552001625299454,2.099904699716717,2.099149499554187,0.3165023000910878,0.8166493000462651,0.5001469999551773,
8,0.50134,1.2,2,0.35929,0.376,0.76872,8,2.05548,-0.9,-0.4512,0.05013,5,lapse_rate,2.0,False,3.88,0,False,right,0.0,0.0007266001775860786,2.065148400142789,2.064421799965203,0.34824270009994507,0.8477223999798298,0.4994796998798847,
9,0.50134,0.1,2,0.2256,0.44285,0.72694,9,2.6738,0.55,0.27574,0.77707,5,2D1U,2.0,True,0.573,0,False,right,0.0,0.0007615000940859318,2.6823785002343357,2.6816170001402497,0.21547070005908608,0.7157111000269651,0.5002403999678791,
10,0.50134,1.2,1,0.41778,0.27574,0.44285,10,2.41478,0.55,0.27574,0.77707,5,1D1U,1.0,True,0.74,0,False,left,0.0,0.0006174002774059772,2.424137699883431,2.423520299606025,1.623765700031072,2.123797900043428,0.500032200012356,
11,0.50134,0.1,1,0.26738,0.20053,0.43449,11,2.13068,0.45,0.2256,0.72694,5,1D1U,1.0,True,1.617,0,False,left,0.0,0.0006671999581158161,2.139988999813795,2.1393217998556793,1.4150884998962283,1.9151622001081705,0.5000737002119422,
12,0.50134,1.2,1,0.27574,0.43449,0.66845,12,2.10562,-0.55,-0.27574,0.2256,5,2U1D,1.0,False,1.347,0,False,left,0.0,0.000627799890935421,2.1067707003094256,2.10614290041849,1.1565837003290653,1.6565372999757528,0.4999535996466875,
13,0.50134,0.1,1,0.25902,0.27574,0.46791,13,1.55414,-0.9,-0.4512,0.05013,5,lapse_rate,2.0,True,1.007,0,False,right,0.0,0.0007319003343582153,1.566108400002122,1.5653764996677637,0.76549920020625,1.2657671002671123,0.5002679000608623,
14,0.50134,0.1,1,0.21725,0.39271,0.71023,14,2.5986,0.55,0.27574,0.77707,5,2D1U,2.0,False,0.238,0,False,right,0.0,0.0007515000179409981,2.599316000007093,2.598564499989152,1.6903387000784278,2.190795599948615,0.500456899870187,
15,0.50134,1.2,1,0.44285,0.27574,0.8857,15,2.38137,-0.45,-0.2256,0.27574,5,1U1D,1.0,False,2.291,0,False,left,0.0,0.0008048997260630131,2.389872800093144,2.389067900367081,1.5895878002047539,2.089835500344634,0.5002477001398802,
16,0.50134,0.1,1,0.40107,0.26738,0.85227,16,2.69887,0.35,0.17547,0.67681,5,1D1U,1.0,True,1.182,0,False,left,0.0,0.0004023001529276371,2.6992148999124765,2.698812599759549,1.9158774996176362,2.416137599851936,0.5002601002342999,
17,0.50134,1.2,1,0.4512,0.26738,0.41778,17,1.88001,-0.51,-0.25902,0.24231,5,1U1D,1.0,False,1.524,1,True,left,0.0,0.0007369001396000385,1.8909656000323594,1.8902286998927593,1.0996216000057757,1.59979119990021,0.5001695998944342,
18,0.50134,0.1,1,0.36765,0.30916,0.78543,18,2.15576,-0.61,-0.30916,0.19218,5,2U1D,2.0,True,0.249,1,True,right,0.0,0.0007440997287631035,2.1657120999880135,2.1649680002592504,1.3321207002736628,1.8318413002416492,0.49972059996798635,
19,0.50134,1.2,1,0.4512,0.24231,0.71023,19,2.70722,0.61,0.30916,0.80214,5,2D1U,1.0,True,1.14,1,True,left,0.0,0.0007541999220848083,2.715550399851054,2.714796199928969,1.948934799991548,2.4482936998829246,0.4993588998913765,
20,0.50134,0.1,2,0.36765,0.41778,0.79378,20,3.03309,0.9,0.4512,0.95254,5,lapse_rate,2.0,True,1.255,0,False,right,0.0,0.0003368002362549305,3.039174599573016,3.0388377993367612,0.3555398997850716,0.8554599997587502,0.4999200999736786,
21,0.50134,0.1,2,0.2256,0.40107,0.6016,21,1.92179,-0.61,-0.30916,0.19218,5,2U1D,1.0,True,0.46,1,True,left,0.0,0.0007956000044941902,1.9322122000157833,1.9314166000112891,0.2156118997372687,0.7157394997775555,0.5001276000402868,
22,0.50134,0.1,2,0.25902,0.44285,0.71023,22,1.96357,-0.9,-0.4512,0.05013,5,lapse_rate,1.0,True,0.933,0,False,left,0.0,0.0007877000607550144,1.973110600374639,1.972322900313884,0.2486225999891758,0.7486368999816477,0.5000142999924719,
23,0.50134,1.2,2,0.25902,0.40943,0.51805,23,2.31451,0.25,0.12533,0.62667,5,1D1U,2.0,True,0.643,0,False,right,0.0,0.0007635001093149185,2.316124999895692,2.315361499786377,0.2491561002098024,0.7493508001789451,0.5001946999691427,
24,0.50134,0.1,2,0.40943,0.27574,0.64338,24,2.63203,0.61,0.30916,0.80214,5,2D1U,1.0,False,2.759,1,True,left,0.0,0.0007482999935746193,2.640771500300616,2.6400232003070414,0.39882929995656013,0.8986768000759184,0.4998475001193583,
25,0.50134,1.2,2,0.27574,0.2256,0.57654,25,1.79647,-0.57,-0.28409,0.21725,5,1U1D,2.0,False,6.089,1,False,right,0.0,0.0007565999403595924,1.8050616001710296,1.80430500023067,0.264037299901247,0.7636319003067911,0.49959460040554404,
26,0.50134,0.1,2,0.21725,0.43449,0.46791,26,1.80481,-0.63,-0.31751,0.18382,5,1U1D,1.0,True,3.334,1,False,left,0.0,0.0006979000754654408,1.8078592997044325,1.807161399628967,0.20741889998316765,0.7074520997703075,0.5000331997871399,
27,0.50134,1.2,2,0.36765,0.41778,0.61832,27,2.48163,0.15,0.0752,0.57654,5,1D1U,2.0,True,2.512,0,False,right,0.0,0.0004469999112188816,2.482473200187087,2.482026200275868,0.35741550009697676,0.857560200151056,0.5001447000540793,
28,0.50134,0.1,2,0.38436,0.38436,0.79378,28,2.27273,-0.574,-0.28409,0.20889,5,2U1D,1.0,True,0.925,2,True,left,0.0,0.0007640998810529709,2.2826959998346865,2.2819318999536335,0.3745814999565482,0.8739232998341322,0.499341799877584,
29,0.50134,1.2,2,0.30916,0.27574,0.45956,29,2.49834,0.9,0.4512,0.95254,5,lapse_rate,2.0,True,34.266,0,False,right,0.0,0.0007702996954321861,2.498013499658555,2.4972431999631226,0.2973305997438729,0.7975435997359455,0.5002129999920726,
30,0.50134,1.2,1,0.30916,0.28409,0.48463,30,2.41478,0.67,0.33422,0.83556,5,2D1U,1.0,True,0.918,1,False,left,0.0,0.0008117998950183392,2.4157159002497792,2.414904100354761,1.6149102002382278,2.1153625999577343,0.5004523997195065,
31,0.50134,0.1,1,0.21725,0.21725,0.73529,31,1.87166,-0.594,-0.3008,0.20053,5,1U1D,2.0,True,0.292,2,True,right,0.0,0.0007247999310493469,1.882387399673462,1.8816625997424126,1.1407745997421443,1.6414745999500155,0.5007000002078712,
32,0.50134,1.2,1,0.28409,0.3008,0.80214,32,2.09726,-0.574,-0.28409,0.20889,5,2U1D,1.0,False,1.705,2,True,left,0.0,0.0006475998088717461,2.106152500025928,2.1055049002170563,1.281637900043279,1.7811849997378886,0.49954709969460964,
33,0.50134,0.1,1,0.29245,0.40943,0.5264,33,2.56518,0.67,0.33422,0.83556,5,2D1U,2.0,False,0.746,1,False,right,0.0,0.000753999687731266,2.574362500105053,2.573608500417322,1.6409482997842133,2.140703300014138,0.4997550002299249,
34,0.50134,1.2,1,0.28409,0.29245,0.75201,34,2.35629,0.05,0.02507,0.5264,5,1D1U,1.0,True,0.73,0,False,left,0.0,0.0007601999677717686,2.364360800012946,2.3636006000451744,1.5483952998183668,2.0482779000885785,0.4998826002702117,
35,0.50134,0.1,1,0.30916,0.25902,0.55147,35,2.57353,0.9,0.4512,0.95254,5,lapse_rate,2.0,False,0.31,0,False,right,0.0,0.0003806999884545803,2.572962200269103,2.5725815002806485,1.7979535004124045,2.2974783000536263,0.49952479964122176,
36,0.50134,0.1,1,0.27574,0.20889,0.61832,36,1.82154,-0.558,-0.27574,0.21725,5,1U1D,2.0,True,0.331,2,False,right,0.0,0.0007313997484743595,1.831824399996549,1.8310930002480745,1.0991735998541117,1.598851399961859,0.4996778001077473,
37,0.50134,1.2,1,0.31751,0.33422,0.85227,37,2.48161,-0.05,-0.02507,0.47627,5,1D1U,1.0,False,1.108,0,False,left,0.0,0.0007511996664106846,2.489566399715841,2.48881520004943,1.630844600033015,2.1321184998378158,0.5012738998048007,
38,0.50134,1.2,1,0.25902,0.20053,0.82721,38,1.83823,-0.9,-0.4512,0.05013,5,lapse_rate,1.0,False,1.145,0,False,left,0.0,0.0007358998991549015,1.840841299854219,1.840105399955064,1.1240823999978602,1.6238171001896262,0.499734700191766,
39,0.50134,0.1,1,0.28409,0.36765,0.76872,39,2.11398,-0.61,-0.30916,0.19218,5,2U1D,2.0,True,0.339,3,True,right,0.0,0.0007243999280035496,2.1226221998222172,2.1218977998942137,1.2314593000337481,1.731359699741006,0.49990039970725775,
40,0.50134,1.2,2,0.29245,0.41778,0.86898,40,2.94953,0.73,0.36765,0.86898,5,2D1U,2.0,True,1.624,1,False,right,0.0,0.0007663001306355,2.9496732000261545,2.948906899895519,0.28239590022712946,0.7818943001329899,0.4994983999058604,
41,0.50134,0.1,2,0.34258,0.27574,0.89405,41,2.20589,-0.61,-0.30916,0.19218,5,2U1D,1.0,True,0.608,3,True,left,0.0,0.0007239999249577522,2.207655900157988,2.2069319002330303,0.33244080003350973,0.8326372001320124,0.5001964000985026,
42,0.50134,1.2,2,0.376,0.34258,0.86063,42,2.94953,0.73,0.36765,0.86898,5,2D1U,2.0,True,0.622,1,False,right,0.0,0.000745600089430809,2.9488146998919547,2.948069099802524,0.36562860012054443,0.8649090002290905,0.499280400108546,
43,0.50134,0.1,2,0.376,0.43449,0.89405,43,2.64873,-0.11,-0.05849,0.44285,5,1D1U,1.0,True,1.337,1,True,left,0.0,0.0008155000396072865,2.6432449999265373,2.64242949988693,0.36698679998517036,0.8671063003130257,0.5001195003278553,
44,0.50134,1.2,2,0.23396,0.39271,0.73529,44,2.10561,-0.522,-0.25902,0.24231,5,1U1D,2.0,False,0.518,2,False,right,0.0,0.0007341001182794571,2.1068462999537587,2.1061121998354793,0.22379849990829825,0.722846900112927,0.4990484002046287,
45,0.50134,1.2,2,0.35094,0.43449,0.40943,45,1.74633,-0.9,-0.4512,0.05013,5,lapse_rate,2.0,False,3.151,0,False,right,0.0,0.00038240011781454086,1.7486203997395933,1.7482379996217787,0.33994939969852567,0.8401848999783397,0.500235500279814,
46,0.50134,0.1,2,0.24231,0.44285,0.43449,46,2.46491,0.694,0.35094,0.84392,5,2D1U,2.0,True,1.659,2,True,right,0.0,0.0007482999935746193,2.4656642000190914,2.4649159000255167,0.23269460024312139,0.7324632001109421,0.49976859986782074,
47,0.50134,1.2,2,0.376,0.20889,0.61832,47,1.9218,-0.558,-0.27574,0.21725,5,1U1D,2.0,False,3.549,3,True,right,0.0,0.0007654000073671341,1.9310711999423802,1.930305799935013,0.3729073000140488,0.8724179998971522,0.49951069988310337,
48,0.50134,1.2,2,0.20889,0.43449,0.54312,48,1.73797,-0.9,-0.4512,0.05013,5,lapse_rate,1.0,True,0.397,0,False,left,0.0,0.0008124997839331627,1.7398624001070857,1.7390499003231525,0.1971505000256002,0.6980910999700427,0.5009405999444425,
49,0.50134,0.1,2,0.28409,0.27574,0.45956,49,1.72962,-0.574,-0.28409,0.20889,5,2U1D,1.0,True,0.959,4,True,left,0.0,0.0007186997681856155,1.7306520999409258,1.7299334001727402,0.2729933001101017,0.7729906002059579,0.4999973000958562,
50,0.50134,1.2,1,0.39271,0.25902,0.48463,50,2.09726,-0.074,-0.03342,0.45956,5,1D1U,1.0,False,0.545,2,True,left,0.0,0.0008185999467968941,2.105975399725139,2.1051567997783422,1.3223761999979615,1.8223907998763025,0.500014599878341,
51,0.50134,1.2,1,0.38436,0.41778,0.70187,51,2.95789,0.9,0.4512,0.95254,5,lapse_rate,1.0,True,0.595,0,False,left,0.0,0.0007811998948454857,2.965931599959731,2.9651504000648856,2.0242157001048326,2.524195000063628,0.4999792999587953,
52,0.50134,0.1,1,0.38436,0.38436,0.70187,52,2.18082,-0.574,-0.28409,0.20889,5,2U1D,2.0,True,0.112,4,True,right,0.0,0.0007988996803760529,2.1900585000403225,2.1892596003599465,1.2824174002744257,1.7821219000034034,0.4997044997289777,
53,0.50134,1.2,1,0.23396,0.30916,0.8105,53,2.29781,-0.11,-0.05849,0.44285,5,1D1U,1.0,False,1.642,3,True,left,0.0,0.0004417998716235161,2.2987489998340607,2.298307199962437,1.4737089998088777,1.9735452001914382,0.4998362003825605,
54,0.50134,0.1,1,0.23396,0.25902,0.51805,54,1.7129,-0.594,-0.3008,0.20053,5,1U1D,2.0,True,0.313,3,False,right,0.0,0.000853199977427721,1.7237317003309727,1.722878500353545,0.9399185003712773,1.440482800360769,0.5005642999894917,
55,0.50134,1.2,1,0.35094,0.27574,0.64338,55,2.61532,0.694,0.35094,0.84392,5,2D1U,1.0,True,0.284,2,True,left,0.0,0.0007792999967932701,2.6141864000819623,2.613407100085169,1.8228205000050366,2.3224504999816418,0.4996299999766052,
56,0.50134,0.1,1,0.29245,0.43449,0.71023,56,2.17247,-0.538,-0.26738,0.23396,5,2U1D,2.0,True,2.628,4,False,right,0.0,0.0008228998631238937,2.1752980002202094,2.1744751003570855,1.2250902000814676,1.72527310019359,0.5001829001121223,
57,0.50134,1.2,1,0.25067,0.42614,0.55147,57,1.94687,-0.558,-0.27574,0.21725,5,1U1D,1.0,False,0.588,4,True,left,0.0,0.0007531996816396713,1.9557753996923566,1.955022200010717,1.0138705000281334,1.5138620999641716,0.49999159993603826,
58,0.50134,0.1,1,0.28409,0.25902,0.89405,58,2.76571,0.658,0.32587,0.82721,5,2D1U,1.0,True,1.606,2,False,left,0.0,0.0007604998536407948,2.7737179999239743,2.7729575000703335,1.989680899772793,2.49003029987216,0.5003494000993669,
59,0.50134,1.2,1,0.25067,0.39271,0.83556,59,2.40642,-0.146,-0.0752,0.42614,5,1D1U,1.0,False,0.495,3,False,left,0.0,0.0007797996513545513,2.4160667001269758,2.4152869004756212,1.4989034002646804,1.998815500177443,0.49991209991276264,
60,0.50134,0.1,2,0.23396,0.29245,0.64338,60,1.72126,-0.9,-0.4512,0.05013,5,lapse_rate,1.0,True,1.288,0,False,left,0.0,0.0008898000232875347,1.73132020002231,1.7304303999990225,0.22279610019177198,0.7228818000294268,0.5000856998376548,
61,0.50134,0.1,2,0.35094,0.40943,0.51805,61,2.18919,-0.182,-0.09191,0.40943,5,1D1U,2.0,False,1.053,3,False,right,0.0,0.0008298000320792198,2.1920610000379384,2.191231200005859,0.3421152997761965,0.8417896996252239,0.4996743998490274,
62,0.50134,1.2,2,0.38436,0.36765,0.66009,62,2.86598,0.9,0.4512,0.95254,5,lapse_rate,2.0,True,0.537,0,False,right,0.0,0.0008029001764953136,2.874023299664259,2.8732203994877636,0.37517459969967604,0.8740699999034405,0.49889540020376444,
63,0.50134,1.2,2,0.31751,0.26738,0.70187,63,1.98863,-0.594,-0.3008,0.20053,5,1U1D,2.0,False,0.417,5,True,right,0.0,0.0013381000608205795,1.9906178996898234,1.9892797996290028,0.3069306998513639,0.8074409998953342,0.5005103000439703,
64,0.50134,0.1,2,0.21725,0.25902,0.79378,64,2.00535,-0.538,-0.26738,0.23396,5,2U1D,1.0,True,0.492,4,False,left,0.0,0.0007573999464511871,2.0076509001664817,2.0068935002200305,0.20663650007918477,0.7070078002288938,0.500371300149709,
65,0.50134,1.2,2,0.24231,0.33422,0.47627,65,2.38135,0.658,0.32587,0.82721,5,2D1U,2.0,True,0.725,2,False,right,0.0,0.0007413998246192932,2.391784700099379,2.3910433002747595,0.23278459999710321,0.7332194000482559,0.5004348000511527,
66,0.50134,0.1,2,0.41778,0.38436,0.45956,66,1.94686,-0.63,-0.31751,0.18382,5,1U1D,1.0,True,0.413,5,False,left,0.0,0.0007217996753752232,1.948286000173539,1.9475642004981637,0.40629300009459257,0.9062487999908626,0.49995579989627004,
67,0.50134,1.2,2,0.43449,0.23396,0.73529,67,2.71558,0.622,0.30916,0.8105,5,2D1U,2.0,True,2.736,2,False,right,0.0,0.0007360996678471565,2.7165345000103116,2.7157984003424644,0.4248061999678612,0.9250218998640776,0.5002156998962164,
68,0.50134,0.1,2,0.27574,0.42614,0.50969,68,2.10562,-0.218,-0.10862,0.39271,5,1D1U,1.0,True,0.678,3,False,left,0.0,0.000803300179541111,2.115742899943143,2.114939599763602,0.26466420013457537,0.7655906998552382,0.5009264997206628,
69,0.50134,1.2,2,0.31751,0.44285,0.58489,69,2.79913,0.9,0.4512,0.95254,5,lapse_rate,2.0,True,0.588,0,False,right,0.0,0.0007469002157449722,2.800035399850458,2.799288499634713,0.30845639994367957,0.8082046997733414,0.49974829982966185,
70,0.50134,1.2,1,0.40107,0.3008,0.77707,70,2.23095,-0.502,-0.25067,0.25067,5,2U1D,2.0,True,2.517,4,False,right,0.0,0.0007918998599052429,2.240089699625969,2.2392977997660637,1.4150294996798038,1.9152742000296712,0.5002447003498673,
71,0.50134,0.1,1,0.33422,0.35094,0.87734,71,2.31451,-0.502,-0.25067,0.25067,5,2U1D,2.0,True,0.305,4,False,right,0.0,0.000783899798989296,2.3161789998412132,2.315395100042224,1.4491020999848843,1.9491702001541853,0.500068100169301,
72,0.50134,1.2,1,0.34258,0.3008,0.46791,72,1.81316,-0.594,-0.3008,0.20053,5,1U1D,1.0,False,1.879,6,True,left,0.0,0.000456799753010273,1.8158130003139377,1.8153562005609274,0.9987641000188887,1.4991802000440657,0.500416100025177,
73,0.50134,1.2,1,0.25067,0.3008,0.4512,73,2.45655,0.9,0.4512,0.95254,5,lapse_rate,1.0,True,0.313,0,False,left,0.0,0.0007945001125335693,2.466016700025648,2.4652221999131143,1.6413760003633797,2.141569100320339,0.5001930999569595,
74,0.50134,0.1,1,0.20889,0.40107,0.81885,74,2.74065,0.622,0.30916,0.8105,5,2D1U,1.0,True,1.891,2,False,left,0.0,0.0008107000030577183,2.748061000369489,2.7472503003664315,1.8224067999981344,2.322948600165546,0.5005418001674116,
75,0.50134,1.2,1,0.26738,0.40943,0.72694,75,2.31452,-0.182,-0.09191,0.40943,5,1D1U,1.0,False,0.715,4,True,left,0.0,0.0007267999462783337,2.324047800153494,2.3233210002072155,1.3903457000851631,1.8903629002161324,0.5000172001309693,
76,0.50134,0.1,1,0.29245,0.40107,0.76872,76,2.91612,0.9,0.4512,0.95254,5,lapse_rate,2.0,False,0.259,0,False,right,0.0,0.000512000173330307,2.916030999738723,2.9155189995653927,1.999468700028956,2.4991715997457504,0.4997028997167945,
77,0.50134,0.1,1,0.35094,0.31751,0.79378,77,2.14739,-0.63,-0.31751,0.18382,5,1U1D,2.0,True,0.266,7,True,right,0.0,0.0007500001229345798,2.1486837002448738,2.147933700121939,1.315838800277561,1.8158929999917746,0.5000541997142136,
78,0.50134,1.2,1,0.31751,0.29245,0.83556,78,2.21424,-0.466,-0.23396,0.26738,5,2U1D,1.0,False,2.29,4,False,left,0.0,0.00026879971846938133,2.2232332001440227,2.2229644004255533,1.4063015999272466,1.9065498001873493,0.5002482002601027,
79,0.50134,0.1,1,0.27574,0.44285,0.63503,79,2.24767,-0.218,-0.10862,0.39271,5,1D1U,2.0,True,0.573,5,True,right,0.0,0.0007524997927248478,2.2488902998156846,2.2481378000229597,1.290712199639529,1.7908063996583223,0.5000942000187933,
80,0.50134,1.2,2,0.33422,0.376,0.79378,80,2.79912,0.586,0.29245,0.79378,5,2D1U,2.0,True,0.362,2,False,right,0.0,0.000678500160574913,2.7997195003554225,2.7990410001948476,0.3241086001507938,0.8234021002426744,0.49929350009188056,
81,0.50134,0.1,2,0.32587,0.43449,0.82721,81,2.33958,-0.502,-0.25067,0.25067,5,2U1D,1.0,True,0.412,5,True,left,0.0,0.0007780999876558781,2.3403820996172726,2.3396039996296167,0.31521179992705584,0.8152330997399986,0.5000212998129427,
82,0.50134,1.2,2,0.38436,0.29245,0.45956,82,2.43149,0.586,0.29245,0.79378,5,2D1U,2.0,True,0.321,2,False,right,0.0,0.001009299885481596,2.4401806998066604,2.439171399921179,0.37349609984084964,0.8737225998193026,0.5002264999784529,
83,0.50134,0.1,2,0.29245,0.43449,0.86898,83,2.14739,-0.9,-0.4512,0.05013,5,lapse_rate,1.0,True,0.555,0,False,left,0.0,0.0008961004205048084,2.148756999988109,2.147860899567604,0.28226849995553493,0.78172089997679,0.499452400021255,
84,0.50134,0.1,2,0.3008,0.29245,0.49298,84,1.7881,-0.594,-0.3008,0.20053,5,1U1D,1.0,True,0.624,8,True,left,0.0,0.0007269000634551048,1.7889086003415287,1.7881817002780735,0.288720500189811,0.7891309000551701,0.5004103998653591,
85,0.50134,1.2,2,0.41778,0.2256,0.60996,85,2.16411,-0.182,-0.09191,0.40943,5,1D1U,2.0,False,0.866,6,True,right,0.0,0.0007731001824140549,2.1736981999129057,2.1729250997304916,0.40734140016138554,0.9069623001851141,0.4996209000237286,
86,0.50134,0.1,2,0.32587,0.21725,0.48463,86,2.30616,0.55,0.27574,0.77707,5,2D1U,2.0,True,0.371,2,False,right,0.0,0.0008311998099088669,2.314868400339037,2.3140372005291283,0.31518519995734096,0.8149256003089249,0.49974040035158396,
87,0.50134,1.2,2,0.376,0.40943,0.66009,87,2.19753,-0.502,-0.25067,0.25067,5,2U1D,2.0,False,0.526,5,True,right,0.0,0.0007428000681102276,2.1969685000367463,2.196225699968636,0.37156270025298,0.871823700144887,0.500260999891907,
88,0.50134,0.1,2,0.376,0.20889,0.54312,88,1.8466,-0.558,-0.27574,0.21725,5,1U1D,1.0,True,0.583,8,False,left,0.0,0.0007826997898519039,1.8474950999952853,1.8467124002054334,0.3642245000228286,0.8641134998761117,0.49988899985328317,
89,0.50134,1.2,2,0.25067,0.28409,0.8857,89,2.87434,0.9,0.4512,0.95254,5,lapse_rate,2.0,True,0.352,0,False,right,0.0,0.0007772999815642834,2.87386990012601,2.873092600144446,0.24024130031466484,0.7392627000808716,0.49902139976620674,
90,0.50134,1.2,1,0.25902,0.23396,0.78543,90,2.17246,-0.218,-0.10862,0.39271,5,1D1U,1.0,False,0.258,7,True,left,0.0,0.0007360996678471565,2.1826054002158344,2.1818693005479872,1.4239388001151383,1.9243571003898978,0.5004183002747595,
91,0.50134,0.1,1,0.28409,0.27574,0.65174,91,2.66545,0.9,0.4512,0.95254,5,lapse_rate,2.0,False,0.662,0,False,right,0.0,0.000722699798643589,2.6660206001251936,2.66529790032655,1.8744668997824192,2.3741716002114117,0.4997047004289925,
92,0.50134,0.1,1,0.30916,0.376,0.6016,92,2.56517,0.55,0.27574,0.77707,5,2D1U,1.0,True,3.97,2,False,left,0.0,0.0007319999858736992,2.5643964000046253,2.5636644000187516,1.6728288000449538,2.1725710998289287,0.4997422997839749,
93,0.50134,1.2,1,0.40107,0.41778,0.8857,93,2.43985,-0.538,-0.26738,0.23396,5,2U1D,1.0,False,0.417,5,False,left,0.0,0.0002951999194920063,2.447557299863547,2.447262099944055,1.5056750997900963,2.0056644999422133,0.499989400152117,
94,0.50134,0.1,1,0.40107,0.38436,0.51805,94,2.18082,-0.254,-0.12533,0.376,5,1D1U,2.0,True,2.817,7,False,right,0.0,0.00035900017246603966,2.1885867998935282,2.188227799721062,1.2807745998725295,1.7800158997997642,0.49924129992723465,
95,0.50134,1.2,1,0.28409,0.33422,0.66009,95,2.02205,-0.522,-0.25902,0.24231,5,1U1D,1.0,False,2.173,8,False,left,0.0,0.0007392000406980515,2.0236840997822583,2.02294489974156,1.1732258996926248,1.673593099694699,0.5003672000020742,
96,0.50134,0.1,1,0.38436,0.21725,0.53476,96,2.39807,0.514,0.25902,0.76036,5,2D1U,2.0,False,0.373,2,False,right,0.0,0.00029289955273270607,2.396989199798554,2.3966963002458215,1.663659599609673,2.1638721995987,0.5002125999890268,
97,0.50134,1.2,1,0.35929,0.28409,0.76872,97,2.30615,-0.218,-0.10862,0.39271,5,1D1U,1.0,False,1.305,8,True,left,0.0,0.0004655001685023308,2.313948799856007,2.3134832996875048,1.505718800239265,2.0059138000942767,0.5001949998550117,
98,0.50134,0.1,1,0.26738,0.36765,0.4512,98,2.54011,0.9,0.4512,0.95254,5,lapse_rate,2.0,False,0.208,0,False,right,0.0,0.00028880033642053604,2.5567793999798596,2.556490599643439,1.6575250001624227,2.157770600169897,0.5002456000074744,
99,0.50134,0.1,1,0.32587,0.41778,0.84392,99,2.2978,-0.574,-0.28409,0.20889,5,2U1D,2.0,True,0.289,5,False,right,0.0,0.0007451996207237244,2.2982401000335813,2.2974949004128575,1.3653560997918248,1.8647277001291513,0.4993716003373265,
100,0.50134,1.2,2,0.25902,0.25902,0.62667,100,1.8633,-0.558,-0.27574,0.21725,5,1U1D,2.0,False,0.448,9,True,right,0.0,0.0002880999818444252,1.8724521999247372,1.8721640999428928,0.24757920019328594,0.7484184000641108,0.5008391998708248,
101,0.50134,0.1,2,0.42614,0.33422,0.84392,101,2.31451,-0.574,-0.28409,0.20889,5,2U1D,1.0,True,0.472,5,False,left,0.0,0.0002669999375939369,2.322937599848956,2.322670599911362,0.41449940018355846,0.9144136998802423,0.4999142996966839,
102,0.50134,1.2,2,0.34258,0.33422,0.8857,102,2.26437,-0.594,-0.3008,0.20053,5,1U1D,2.0,False,0.626,9,False,right,0.0,0.0002564997412264347,2.265489200130105,2.2652327003888786,0.3322438998147845,0.8328639999963343,0.5006201001815498,
103,0.50134,0.1,2,0.34258,0.33422,0.76036,103,2.71557,0.55,0.27574,0.77707,5,2D1U,2.0,True,1.52,3,True,right,0.0,0.000300500076264143,2.723064699675888,2.7227641995996237,0.33209839975461364,0.8312384998425841,0.4991401000879705,
104,0.50134,1.2,2,0.40943,0.24231,0.71023,104,2.23931,-0.254,-0.12533,0.376,5,1D1U,2.0,False,0.427,9,True,right,0.0,0.0002749003469944,2.2412999998778105,2.241025099530816,0.3990993998013437,0.8987268996424973,0.4996274998411536,
105,0.50134,1.2,2,0.40943,0.40943,0.83556,105,2.20589,-0.9,-0.4512,0.05013,5,lapse_rate,2.0,False,0.527,0,False,right,0.0,0.00033849989995360374,2.207284700125456,2.2069462002255023,0.39931910019367933,0.8995207003317773,0.500201600138098,
106,0.50134,0.1,2,0.39271,0.44285,0.67681,106,2.79078,0.55,0.27574,0.77707,5,2D1U,1.0,False,0.608,3,True,left,0.0,0.000737400259822607,2.806673000101,2.8059355998411775,0.38171730004251003,0.8820655001327395,0.5003482000902295,
107,0.50134,1.2,2,0.41778,0.41778,0.73529,107,2.25601,-0.63,-0.31751,0.18382,5,1U1D,2.0,False,2.507,9,False,right,0.0,0.00024150032550096512,2.2650675997138023,2.2648260993883014,0.4067295999266207,0.9069473999552429,0.5002178000286222,
108,0.50134,0.1,2,0.2256,0.29245,0.66009,108,2.03042,-0.29,-0.14205,0.35094,5,1D1U,1.0,True,2.057,9,False,left,0.0,0.0002557002007961273,2.0388107001781464,2.0385549999773502,0.21368130017071962,0.7144948001950979,0.5008135000243783,
109,0.50134,1.2,2,0.39271,0.32587,0.44285,109,1.7129,-0.9,-0.4512,0.05013,5,lapse_rate,1.0,True,1.238,0,False,left,0.0,0.0002649002708494663,1.7157024997286499,1.7154375994578004,0.38276249961927533,0.8821112997829914,0.4993488001637161,
110,0.50134,1.2,1,0.4512,0.33422,0.46791,110,1.98863,-0.538,-0.26738,0.23396,5,2U1D,1.0,False,0.919,6,True,left,0.0,0.0002905000001192093,1.9896773002110422,1.989386800210923,1.1400131001137197,1.6394048002548516,0.4993917001411319,
111,0.50134,0.1,1,0.27574,0.29245,0.8105,111,2.67381,0.586,0.29245,0.79378,5,2D1U,2.0,False,0.251,3,False,right,0.0,0.00043290015310049057,2.6737352004274726,2.673302300274372,1.8654771000146866,2.3647495000623167,0.49927240004763007,
112,0.50134,1.2,1,0.42614,0.25902,0.82721,112,2.38971,-0.254,-0.12533,0.376,5,1D1U,2.0,True,2.165,10,True,right,0.0,0.0006578001193702221,2.391919099725783,2.3912612996064126,1.6168917999602854,2.116314099635929,0.49942229967564344,
113,0.50134,0.1,1,0.27574,0.20889,0.77707,113,2.71558,0.9,0.4512,0.95254,5,lapse_rate,2.0,False,0.333,0,False,right,0.0,0.00027849990874528885,2.7142237997613847,2.7139452998526394,1.9894679998978972,2.48936179978773,0.49989379988983274,
114,0.50134,0.1,1,0.376,0.23396,0.57654,114,1.89673,-0.574,-0.28409,0.20889,5,2U1D,2.0,True,0.23,7,True,right,0.0,0.0007772999815642834,1.8983141002245247,1.8975368002429605,1.1480438001453876,1.647802600171417,0.49975880002602935,
115,0.50134,1.2,1,0.34258,0.40943,0.54312,115,1.96358,-0.666,-0.33422,0.16711,5,1U1D,1.0,False,0.779,9,False,left,0.0,0.0002709999680519104,1.9638282000087202,1.9635572000406682,1.0388412000611424,1.5387152996845543,0.4998740996234119,
116,0.50134,0.1,1,0.40943,0.376,0.47627,116,2.57354,0.622,0.30916,0.8105,5,2D1U,1.0,True,3.931,3,False,left,0.0,0.0002696998417377472,2.574269000440836,2.573999300599098,1.6825231001712382,2.1822073999792337,0.49968429980799556,
117,0.50134,1.2,1,0.2256,0.376,0.66009,117,2.15574,-0.218,-0.10862,0.39271,5,1D1U,1.0,False,0.598,10,False,left,0.0,0.0007524001412093639,2.166529200039804,2.1657767998985946,1.266216500196606,1.7663770001381636,0.5001604999415576,
118,0.50134,0.1,1,0.36765,0.25902,0.85227,118,2.18917,-0.574,-0.28409,0.20889,5,2U1D,1.0,False,2.273,7,True,left,0.0,0.00025569973513484,2.1904837996698916,2.1902280999347568,1.4163037999533117,1.9160295999608934,0.4997258000075817,
119,0.50134,1.2,1,0.42614,0.36765,0.8105,119,2.25603,-0.702,-0.35094,0.1504,5,1U1D,1.0,False,0.529,9,False,left,0.0,0.0005147997289896011,2.264464700128883,2.2639499003998935,1.3731698002666235,1.8727456000633538,0.4995757997967303,
120,0.50134,0.1,2,0.40107,0.28409,0.44285,120,1.67948,-0.9,-0.4512,0.05013,5,lapse_rate,1.0,True,0.813,0,False,left,0.0,0.0007442999631166458,1.680188899859786,1.6794445998966694,0.3890229999087751,0.889185399748385,0.5001623998396099,
121,0.50134,0.1,2,0.43449,0.44285,0.65174,121,2.98296,0.9,0.4512,0.95254,5,lapse_rate,2.0,True,0.362,0,False,right,0.0,0.000779199879616499,2.9914130000397563,2.99063380016014,0.4245310998521745,0.9244308997876942,0.4998997999355197,
122,0.50134,0.1,2,0.38436,0.27574,0.63503,122,1.93016,-0.738,-0.36765,0.13369,5,1U1D,1.0,True,0.592,9,False,left,0.0,0.001109799835830927,1.939815599936992,1.938705800101161,0.3815933996811509,0.880982699804008,0.4993893001228571,
123,0.50134,1.2,2,0.40943,0.39271,0.58489,123,2.69887,0.622,0.30916,0.8105,5,2D1U,2.0,True,0.28,3,False,right,0.0,0.0002756998874247074,2.698736300226301,2.6984606003388762,0.39874689979478717,0.8981960997916758,0.49944919999688864,
124,0.50134,0.1,2,0.23396,0.39271,0.8105,124,2.31451,-0.254,-0.12533,0.376,5,1D1U,1.0,True,0.904,11,True,left,0.0,0.0007249996997416019,2.3150618001818657,2.314336800482124,0.22320189978927374,0.7230400000698864,0.4998381002806127,
125,0.50134,1.2,2,0.30916,0.20053,0.51805,125,1.72126,-0.61,-0.30916,0.19218,5,2U1D,1.0,True,1.147,7,False,left,0.0,0.0007536998018622398,1.7233810001052916,1.7226273003034294,0.2982021002098918,0.7984380000270903,0.5002358998171985,
126,0.50134,1.2,2,0.28409,0.24231,0.8105,126,1.88837,-0.9,-0.4512,0.05013,5,lapse_rate,1.0,True,1.587,0,False,left,0.0,0.0007635997608304024,1.8965949998237193,1.8958314000628889,0.27236719988286495,0.7730290996842086,0.5006618998013437,
127,0.50134,0.1,2,0.26738,0.40943,0.67681,127,2.00536,-0.702,-0.35094,0.1504,5,1U1D,1.0,True,1.524,10,True,left,0.0,0.0007289000786840916,2.0074609997682273,2.0067320996895432,0.256984899751842,0.7571872998960316,0.5002024001441896,
128,0.50134,1.2,2,0.28409,0.41778,0.51805,128,2.11397,-0.218,-0.10862,0.39271,5,1D1U,2.0,False,1.764,12,True,right,0.0,0.000722500029951334,2.1158994999714196,2.1151769999414682,0.2739128996618092,0.7744366000406444,0.5005237003788352,
129,0.50134,0.1,2,0.26738,0.36765,0.49298,129,2.42313,0.586,0.29245,0.79378,5,2D1U,2.0,True,2.529,4,True,right,0.0,0.0007421998307108879,2.423452800139785,2.422710600309074,0.25626219995319843,0.7565779001452029,0.5003157001920044,
130,0.50134,1.2,1,0.23396,0.25902,0.46791,130,1.65441,-0.61,-0.30916,0.19218,5,2U1D,1.0,False,0.626,7,False,left,0.0,0.0007495000027120113,1.656759100034833,1.656009600032121,0.8816903000697494,1.3820040002465248,0.5003137001767755,
131,0.50134,0.1,1,0.2256,0.27574,0.74365,131,1.79646,-0.9,-0.4512,0.05013,5,lapse_rate,2.0,True,0.839,0,False,right,0.0,0.0007513999007642269,1.8065565000288188,1.8058051001280546,1.0065668001770973,1.5059181000106037,0.49935129983350635,
132,0.50134,0.1,1,0.27574,0.40107,0.82721,132,2.18083,-0.646,-0.32587,0.17547,5,2U1D,2.0,True,0.283,7,False,right,0.0,0.0007757996208965778,2.191586200147867,2.1908104005269706,1.266704199835658,1.7666298002004623,0.49992560036480427,
133,0.50134,1.2,1,0.32587,0.2256,0.84392,133,2.27273,-0.254,-0.12533,0.376,5,1D1U,1.0,False,0.59,13,True,left,0.0,0.0008418001234531403,2.279892699792981,2.279050899669528,1.538500899914652,2.037958700209856,0.4994578002952039,
134,0.50134,0.1,1,0.30916,0.33422,0.72694,134,2.03877,-0.666,-0.33422,0.16711,5,1U1D,2.0,True,0.248,10,False,right,0.0,0.0002634003758430481,2.03938930016011,2.039125899784267,1.1893943999893963,1.6892623999156058,0.49986799992620945,
135,0.50134,1.2,1,0.20889,0.31751,0.73529,135,2.55681,0.586,0.29245,0.79378,5,2D1U,1.0,True,0.434,4,True,left,0.0,0.0007794997654855251,2.557301000226289,2.5565215004608035,1.7238247003406286,2.2238138001412153,0.4999890998005867,
136,0.50134,0.1,1,0.39271,0.2256,0.58489,136,1.75467,-0.9,-0.4512,0.05013,5,lapse_rate,2.0,True,2.706,0,False,right,0.0,0.0007476001046597958,1.7661811001598835,1.7654335000552237,1.0160719002597034,1.5156564000062644,0.49958449974656105,
137,0.50134,0.1,1,0.41778,0.32587,0.43449,137,1.8633,-0.63,-0.31751,0.18382,5,1U1D,2.0,True,0.297,10,False,right,0.0,0.0007171998731791973,1.8743775999173522,1.873660400044173,1.024193000048399,1.5240617003291845,0.49986870028078556,
138,0.50134,1.2,1,0.20889,0.35929,0.41778,138,2.26437,0.55,0.27574,0.77707,5,2D1U,1.0,True,1.622,4,False,left,0.0,0.000806800089776516,2.2665762999095023,2.2657694998197258,1.3919697999954224,1.8918638001196086,0.4998940001241863,
139,0.50134,0.1,1,0.40107,0.38436,0.84392,139,2.30616,-0.646,-0.32587,0.17547,5,2U1D,2.0,True,1.641,7,False,right,0.0,0.000745799858123064,2.306636600289494,2.3058908004313707,1.406969000119716,1.9074629000388086,0.5004938999190927,
140,0.50134,1.2,2,0.25902,0.41778,0.8105,140,2.33958,-0.29,-0.14205,0.35094,5,1D1U,2.0,False,0.355,13,False,right,0.0,0.0007507000118494034,2.339045099914074,2.3382943999022245,0.25581480003893375,0.7551607000641525,0.4993459000252187,
141,0.50134,0.1,2,0.43449,0.2256,0.60996,141,2.10561,-0.326,-0.16711,0.33422,5,1D1U,1.0,True,0.393,13,False,left,0.0,0.0002762000076472759,2.105582299642265,2.1053060996346176,0.4228459997102618,0.9229863998480141,0.5001404001377523,
142,0.50134,1.2,2,0.24231,0.25067,0.49298,142,2.26437,0.55,0.27574,0.77707,5,2D1U,2.0,True,0.526,4,False,right,0.0,0.0007326998747885227,2.2656640000641346,2.264931300189346,0.2321895002387464,0.7321314001455903,0.4999418999068439,
143,0.50134,0.1,2,0.27574,0.34258,0.75201,143,2.06385,-0.61,-0.30916,0.19218,5,2U1D,1.0,True,0.287,8,True,left,0.0,0.0008064000867307186,2.0722729000262916,2.071466499939561,0.2638989998959005,0.7638428998179734,0.4999438999220729,
144,0,0,0,0,0,0,0,0,0,0,0,0,0,0,0,0,0,0,0,0,0,0,0,0,0,0,0
145,0.50134,1.2,2,0.33422,0.38436,0.73529,145,2.15574,-0.594,-0.3008,0.20053,5,1U1D,2.0,False,2.553,10,False,right,0.0,0.0007184003479778767,2.1642765002325177,2.16355809988454,0.3234530002810061,0.8232073001563549,0.4997542998753488,
146,0.50134,0.1,2,0.33422,0.25067,0.55147,146,1.98864,-0.29,-0.14205,0.35094,5,1D1U,1.0,True,0.356,14,True,left,0.0,0.00025959964841604233,1.9818435995839536,1.9815839999355376,0.3234296999871731,0.8235611999407411,0.500131499953568,
147,0.50134,1.2,2,0.42614,0.38436,0.69352,147,2.38136,-0.254,-0.12533,0.376,5,1D1U,2.0,False,0.299,14,False,right,0.0,0.0007186997681856155,2.388927400112152,2.3882087003439665,0.41456700023263693,0.9144739001058042,0.4999068998731673,
148,0.50134,0.1,2,0.28409,0.23396,0.72694,148,2.50669,0.514,0.25902,0.76036,5,2D1U,2.0,True,0.461,4,False,right,0.0,0.0007322998717427254,2.5153499003499746,2.514617600478232,0.27284600026905537,0.7738759000785649,0.5010298998095095,
149,0.50134,1.2,2,0.31751,0.39271,0.72694,149,2.12232,-0.63,-0.31751,0.18382,5,1U1D,2.0,False,0.37,11,True,right,0.0,0.0007345001213252544,2.1242551002651453,2.12352060014382,0.3087609000504017,0.8082653000019491,0.4995043999515474,
150,0.50134,0.1,1,0.25902,0.40107,0.72694,150,2.08055,-0.61,-0.30916,0.19218,5,2U1D,2.0,True,0.501,8,True,right,0.0,0.0005261995829641819,2.089879299979657,2.0893531003966928,1.1645418000407517,1.6646519000642002,0.5001101000234485,
151,0.50134,1.2,1,0.35929,0.38436,0.73529,151,2.18917,-0.574,-0.28409,0.20889,5,2U1D,1.0,False,0.673,8,False,left,0.0,0.0007748999632894993,2.1826180000789464,2.181843100115657,1.2914207000285387,1.7907344000414014,0.4993137000128627,
152,0.50134,0.1,1,0.20053,0.25902,0.61832,152,2.33957,0.514,0.25902,0.76036,5,2D1U,2.0,False,0.346,4,False,right,0.0,0.0007302998565137386,2.340121100191027,2.339390800334513,1.5654714000411332,2.066083800047636,0.5006124000065029,
153,0.50134,1.2,1,0.31751,0.31751,0.46791,153,1.95521,-0.29,-0.14205,0.35094,5,1D1U,1.0,False,1.82,15,True,left,0.0,0.00026670005172491074,1.9560119002126157,1.9557452001608908,1.1228232998400927,1.6226877998560667,0.49986450001597404,
154,0.50134,0.1,1,0.36765,0.44285,0.40943,154,2.05549,-0.326,-0.16711,0.33422,5,1D1U,2.0,True,0.268,15,False,right,0.0,0.0005729999393224716,2.0564203998073936,2.055847399868071,1.098241399973631,1.5984509997069836,0.5002095997333527,
155,0.50134,1.2,1,0.35929,0.32587,0.44285,155,1.79646,-0.666,-0.33422,0.16711,5,1U1D,1.0,False,0.475,11,False,left,0.0,0.00036579975858330727,1.7987881996668875,1.7984223999083042,0.9576013996265829,1.4572696997784078,0.49966830015182495,
156,0.50134,0.1,1,0.31751,0.31751,0.80214,156,2.28944,-0.29,-0.14205,0.35094,5,1D1U,2.0,True,0.129,16,True,right,0.0,0.00029979972168803215,2.2891163998283446,2.2888166001066566,1.4557977002114058,1.9559619999490678,0.5001642997376621,
157,0.50134,1.2,1,0.26738,0.40107,0.71858,157,2.66544,0.55,0.27574,0.77707,5,2D1U,1.0,True,0.636,5,True,left,0.0,0.00042029982432723045,2.6740581998601556,2.6736379000358284,1.7483092001639307,2.248572399839759,0.5002631996758282,
158,0.50134,0.1,1,0.3008,0.25902,0.50134,158,2.33957,0.55,0.27574,0.77707,5,2D1U,1.0,True,2.713,5,True,left,0.0,0.0007369997911155224,2.3404622999951243,2.339725300204009,1.5657158000394702,2.0657978001981974,0.5000820001587272,
159,0.50134,1.2,1,0.40107,0.40107,0.66009,159,2.11397,-0.702,-0.35094,0.1504,5,1U1D,1.0,False,1.633,11,False,left,0.0,0.00025480007752776146,2.123633499722928,2.1233786996454,1.1985909999348223,1.6982234995812178,0.49963249964639544,
160,0.50134,0.1,2,0.44285,0.44285,0.73529,160,2.31451,-0.61,-0.30916,0.19218,5,2U1D,1.0,True,0.299,9,True,left,0.0,0.0002460000105202198,2.315993499942124,2.3157474999316037,0.43228850001469254,0.9320298000238836,0.49974130000919104,
161,0.50134,1.2,2,0.43449,0.34258,0.61832,161,2.03042,-0.738,-0.36765,0.13369,5,1U1D,2.0,False,0.334,11,False,right,0.0,0.00028140004724264145,2.0402543996460736,2.039972999598831,0.4236514000222087,0.9238177998922765,0.5001663998700678,
162,0.50134,0.1,2,0.33422,0.3008,0.86063,162,2.37299,-0.254,-0.12533,0.376,5,1D1U,1.0,True,2.182,16,False,left,0.0,0.0002543996088206768,2.3823561002500355,2.382101700641215,0.3238971000537276,0.8240530998446047,0.5001559997908771,
163,0.50134,1.2,2,0.34258,0.35094,0.60996,163,2.56518,0.514,0.25902,0.76036,5,2D1U,2.0,True,1.826,6,True,right,0.0,0.0003125998191535473,2.5647014998830855,2.564388900063932,0.33172120014205575,0.8316374998539686,0.49991629971191287,
164,0.50134,0.1,2,0.23396,0.27574,0.54312,164,1.74634,-0.61,-0.30916,0.19218,5,2U1D,1.0,True,0.806,9,True,left,0.0,0.00028529996052384377,1.7567296996712685,1.7564443997107446,0.22402889980003238,0.7236468996852636,0.49961799988523126,
165,0.50134,1.2,2,0.32587,0.35094,0.89405,165,2.18918,-0.774,-0.38436,0.11698,5,1U1D,2.0,False,0.856,11,False,right,0.0,0.0003427998162806034,2.190927099902183,2.190584300085902,0.31515510007739067,0.8160660997964442,0.5009109997190535,
166,0.50134,0.1,2,0.38436,0.38436,0.67681,166,2.70723,0.514,0.25902,0.76036,5,2D1U,2.0,True,0.817,6,True,right,0.0,0.0007265997119247913,2.7078084996901453,2.7070818999782205,0.37481649965047836,0.8745757997967303,0.4997593001462519,
167,0.50134,1.2,2,0.25067,0.20053,0.76872,167,1.93015,-0.574,-0.28409,0.20889,5,2U1D,2.0,False,1.324,10,True,right,0.0,0.0007572001777589321,1.941463100258261,1.940705900080502,0.2413506000302732,0.7412483999505639,0.4998977999202907,
168,0.50134,0.1,2,0.34258,0.2256,0.69352,168,1.85495,-0.81,-0.40107,0.09191,5,1U1D,1.0,True,0.399,11,False,left,0.0,0.0007172999903559685,1.8650894002057612,1.8643721002154052,0.3313232003711164,0.8310970002785325,0.4997737999074161,
169,0.50134,1.2,2,0.27574,0.39271,0.50969,169,2.07219,-0.218,-0.10862,0.39271,5,1D1U,1.0,True,3.498,16,False,left,0.0,0.0007194997742772102,2.082876500207931,2.0821570004336536,0.2659183000214398,0.7658362002111971,0.49991790018975735,
170,0.50134,0.1,1,0.2256,0.44285,0.64338,170,2.2226,-0.182,-0.09191,0.40943,5,1D1U,2.0,True,0.115,16,False,right,0.0,0.0004512001760303974,2.2321986998431385,2.231747499667108,1.264941199682653,1.765393499750644,0.500452300067991,
171,0.50134,1.2,1,0.34258,0.35929,0.43449,171,2.06384,-0.146,-0.0752,0.42614,5,1D1U,1.0,False,0.455,16,False,left,0.0,0.0007275999523699284,2.0737173999659717,2.072989800013602,1.190371099859476,1.690530200023204,0.500159100163728,
172,0.50134,0.1,1,0.35929,0.21725,0.58489,172,1.85495,-0.61,-0.30916,0.19218,5,2U1D,2.0,True,0.254,11,True,right,0.0,0.0006713001057505608,1.857750200200826,1.8570789000950754,1.1241883002221584,1.6242440002970397,0.5000557000748813,
173,0.50134,1.2,1,0.25902,0.3008,0.65174,173,1.82988,-0.774,-0.38436,0.11698,5,1U1D,1.0,False,2.175,12,True,left,0.0,0.0007349997758865356,1.840700900182128,1.8399659004062414,1.0156700001098216,1.5153863998129964,0.49971639970317483,
174,0.50134,0.1,1,0.40107,0.35929,0.43449,174,2.43148,0.478,0.24231,0.73529,5,2D1U,2.0,False,0.859,6,False,right,0.0,0.0007573999464511871,2.440462800208479,2.439705400262028,1.5568086998537183,2.057211000006646,0.5004023001529276,
175,0.50134,1.2,1,0.36765,0.2256,0.42614,175,1.93016,-0.182,-0.09191,0.40943,5,1D1U,1.0,False,0.708,17,True,left,0.0,0.0007205000147223473,1.9407759997993708,1.9400554997846484,1.1908412999473512,1.6905634999275208,0.49972219998016953,
176,0.50134,0.1,1,0.27574,0.26738,0.63503,176,2.0722,-0.218,-0.10862,0.39271,5,1D1U,2.0,True,0.167,17,False,right,0.0,0.00026739994063973427,2.08105059992522,2.0807831999845803,1.2897551995702088,1.7902887999080122,0.5005336003378034,
177,0.50134,1.2,1,0.36765,0.34258,0.81885,177,2.43985,-0.182,-0.09191,0.40943,5,1D1U,1.0,False,0.342,18,True,left,0.0,0.00044659990817308426,2.4476677998900414,2.4472211999818683,1.5813076999038458,2.0813390999101102,0.5000314000062644,
178,0.50134,0.1,1,0.42614,0.29245,0.61832,178,2.03043,-0.61,-0.30916,0.19218,5,2U1D,2.0,True,0.333,11,True,right,0.0,0.0007593999616801739,2.0409689000807703,2.04020950011909,1.224246199708432,1.724445799831301,0.500199600122869,
179,0.50134,1.2,1,0.30916,0.24231,0.89405,179,2.03877,-0.81,-0.40107,0.09191,5,1U1D,1.0,False,2.859,13,True,left,0.0,0.0002991999499499798,2.038819700013846,2.038520500063896,1.2807963001541793,1.780585200060159,0.49978889990597963,
180,0.50134,0.1,2,0.25067,0.376,0.55147,180,2.43984,0.514,0.25902,0.76036,5,2D1U,1.0,False,1.276,7,True,left,0.0,0.000723700039088726,2.4472586000338197,2.446534899994731,0.239206800237298,0.7392171998508275,0.5000103996135294,
181,0.50134,1.2,2,0.35929,0.376,0.48463,181,2.49833,0.55,0.27574,0.77707,5,2D1U,2.0,True,0.266,7,False,right,0.0,0.0007795998826622963,2.498652399983257,2.4978728001005948,0.3482292997650802,0.8482564999721944,0.5000272002071142,
182,0.50134,0.1,2,0.30916,0.44285,0.48463,182,2.13069,-0.218,-0.10862,0.39271,5,1D1U,1.0,True,0.375,19,True,left,0.0,0.0007346998900175095,2.139286800287664,2.1385521003976464,0.29744810005649924,0.7972755003720522,0.49982740031555295,
183,0.50134,1.2,2,0.27574,0.35094,0.79378,183,2.33123,-0.182,-0.09191,0.40943,5,1D1U,2.0,False,0.342,20,True,right,0.0,0.0006649000570178032,2.3407993000000715,2.3401343999430537,0.2654873998835683,0.7657301998697221,0.5002427999861538,
184,0.50134,0.1,2,0.43449,0.39271,0.74365,184,2.28108,-0.574,-0.28409,0.20889,5,2U1D,1.0,True,0.658,12,True,left,0.0,0.000691200140863657,2.2905775997787714,2.2898863996379077,0.42402749974280596,0.924424699973315,0.500397200230509,
185,0.50134,1.2,2,0.36765,0.21725,0.49298,185,1.65442,-0.846,-0.42614,0.0752,5,1U1D,1.0,True,1.605,13,False,left,0.0,0.0007792999967932701,1.6571336998604238,1.6563543998636305,0.35734139988198876,0.8568654996342957,0.49952409975230694,
186,0.50134,0.1,2,0.44285,0.25902,0.6016,186,2.19752,-0.218,-0.10862,0.39271,5,1D1U,1.0,True,0.353,21,True,left,0.0,0.0007101004011929035,2.197278799954802,2.196568699553609,0.4308902998454869,0.9304516999982297,0.49956140015274286,
187,0.50134,1.2,2,0.29245,0.23396,0.78543,187,2.02207,-0.574,-0.28409,0.20889,5,2U1D,2.0,False,0.355,12,True,right,0.0,0.0007653003558516502,2.023307400289923,2.0225420999340713,0.28119090013206005,0.7814013003371656,0.5002104002051055,
188,0.50134,0.1,2,0.43449,0.24231,0.62667,188,1.89672,-0.81,-0.40107,0.09191,5,1U1D,1.0,True,0.438,14,True,left,0.0,0.0008340002968907356,1.8993714000098407,1.89853739971295,0.42442179983481765,0.9239166001789272,0.49949480034410954,
189,0.50134,1.2,2,0.35929,0.26738,0.64338,189,1.88837,-0.774,-0.38436,0.11698,5,1U1D,2.0,False,0.781,14,False,right,0.0,0.0007184999994933605,1.8905725996010005,1.8898540996015072,0.34944619983434677,0.849420899990946,0.4999747001565993,
190,0.50134,0.1,1,0.32587,0.28409,0.8857,190,2.77407,0.55,0.27574,0.77707,5,2D1U,2.0,False,0.246,7,False,right,0.0,0.000703099649399519,2.7818553997203708,2.7811523000709713,1.9734042999334633,2.4736635996960104,0.500259299762547,
191,0.50134,1.2,1,0.41778,0.25067,0.43449,191,1.79646,-0.61,-0.30916,0.19218,5,2U1D,1.0,False,0.431,13,True,left,0.0,0.0007522003725171089,1.7913981000892818,1.7906458997167647,1.0323568996973336,1.532434499822557,0.5000776001252234,
192,0.50134,0.1,1,0.33422,0.3008,0.46791,192,2.0137,-0.182,-0.09191,0.40943,5,1D1U,2.0,True,0.213,22,True,right,0.0,0.0006581996567547321,2.0165417003445327,2.015883500687778,1.199809200130403,1.6996647003106773,0.49985550018027425,
193,0.50134,1.2,1,0.42614,0.42614,0.58489,193,2.73229,0.586,0.29245,0.79378,5,2D1U,1.0,True,2.99,7,False,left,0.0,0.000797799788415432,2.7409647000022233,2.740166900213808,1.7909383000805974,2.290539300069213,0.4996009999886155,
194,0.50134,0.1,1,0.40107,0.42614,0.46791,194,1.88837,-0.81,-0.40107,0.09191,5,1U1D,2.0,True,0.216,15,True,right,0.0,0.0005634999834001064,1.8900675000622869,1.8895040000788867,0.9487936999648809,1.4484202000312507,0.49962650006636977,
195,0.50134,1.2,1,0.33422,0.28409,0.46791,195,1.70454,-0.774,-0.38436,0.11698,5,1U1D,1.0,False,0.243,16,True,left,0.0,0.0007414999417960644,1.7071402999572456,1.7063988000154495,0.9067106996662915,1.4069819999858737,0.5002713003195822,
196,0.50134,0.1,1,0.38436,0.29245,0.49298,196,1.76304,-0.81,-0.40107,0.09191,5,1U1D,2.0,True,0.303,17,True,right,0.0,0.0006221998482942581,1.7651363001205027,1.7645141002722085,0.9572319001890719,1.4571948000229895,0.4999628998339176,
197,0.50134,1.2,1,0.36765,0.24231,0.76036,197,1.98864,-0.774,-0.38436,0.11698,5,1U1D,1.0,False,0.294,18,True,left,0.0,0.0007724002934992313,1.9901900999248028,1.9894176996313035,1.2320706997998059,1.731801699846983,0.4997310000471771,
198,0.50134,0.1,1,0.376,0.21725,0.49298,198,2.01371,-0.146,-0.0752,0.42614,5,1D1U,2.0,True,0.274,22,False,right,0.0,0.0006647002883255482,2.0233124000951648,2.0226476998068392,1.2815462998114526,1.7816852000541985,0.5001389002427459,
199,0.50134,1.2,1,0.30916,0.28409,0.4512,199,2.33957,0.586,0.29245,0.79378,5,2D1U,1.0,True,0.918,7,False,left,0.0,0.0007084999233484268,2.3387969001196325,2.338088400196284,1.5386776002123952,2.038587700109929,0.49991009989753366,
200,0.50134,0.1,2,0.39271,0.41778,0.60996,200,2.09726,-0.646,-0.32587,0.17547,5,2U1D,1.0,True,0.248,13,False,left,0.0,0.0005264999344944954,2.0995960999280214,2.099069599993527,0.38272650027647614,0.8829425000585616,0.5002159997820854,
201,0.50134,1.2,2,0.35929,0.376,0.68516,201,2.36464,-0.11,-0.05849,0.44285,5,1D1U,2.0,False,0.283,22,False,right,0.0,0.0007440000772476196,2.3740113000385463,2.3732672999612987,0.3483179002068937,0.8487106002867222,0.5003927000798285,
202,0.50134,0.1,2,0.25067,0.41778,0.43449,202,2.38135,0.55,0.27574,0.77707,5,2D1U,2.0,True,0.676,8,True,right,0.0,0.0007588998414576054,2.391209399793297,2.3904504999518394,0.24160380009561777,0.741604299750179,0.5000004996545613,
203,0.50134,1.2,2,0.36765,0.24231,0.68516,203,1.97193,-0.646,-0.32587,0.17547,5,2U1D,2.0,False,0.384,13,False,right,0.0,0.0007646996527910233,1.9813959999009967,1.9806313002482057,0.35676589980721474,0.8572915997356176,0.5005256999284029,
204,0.50134,0.1,2,0.24231,0.24231,0.68516,204,1.82988,-0.682,-0.34258,0.15876,5,2U1D,1.0,True,0.359,13,False,left,0.0,0.0005685999058187008,1.8404049999080598,1.8398364000022411,0.23215340031310916,0.7322728000581264,0.5001193997450173,
205,0.50134,1.2,2,0.35094,0.31751,0.84392,205,2.10562,-0.81,-0.40107,0.09191,5,1U1D,1.0,True,4.472,19,True,left,0.0,0.0008017001673579216,2.108133400324732,2.107331700157374,0.3413230003789067,0.841480600181967,0.5001575998030603,
206,0.50134,0.1,2,0.30916,0.2256,0.43449,206,1.58757,-0.774,-0.38436,0.11698,5,1U1D,1.0,True,0.746,20,True,left,0.0,0.0007281997241079807,1.5903682000935078,1.5896400003693998,0.29795740032568574,0.7984703001566231,0.5005128998309374,
207,0.50134,1.2,2,0.25067,0.40107,0.76872,207,2.69887,0.55,0.27574,0.77707,5,2D1U,2.0,True,0.322,8,True,right,0.0,0.000712299719452858,2.6986312000080943,2.6979189002886415,0.24025529995560646,0.7405036999844015,0.500248400028795,
208,0.50134,0.1,2,0.43449,0.29245,0.77707,208,2.76571,0.514,0.25902,0.76036,5,2D1U,2.0,True,0.303,8,False,right,0.0,0.0007175002247095108,2.7648155000060797,2.76409799978137,0.42332549998536706,0.9231507000513375,0.4998252000659704,
209,0.50134,1.2,2,0.25902,0.31751,0.4512,209,1.95521,-0.146,-0.0752,0.42614,5,1D1U,2.0,False,1.497,23,True,right,0.0,0.000794499646872282,1.957377600017935,1.9565831003710628,0.2489474997855723,0.7492589997127652,0.5003114999271929,
210,0.50134,0.1,1,0.29245,0.2256,0.86063,210,2.03878,-0.682,-0.34258,0.15876,5,2U1D,2.0,True,2.869,13,False,right,0.0,0.0007159998640418053,2.041052700020373,2.040336700156331,1.299218200147152,1.799171100370586,0.49995290022343397,
211,0.50134,1.2,1,0.40943,0.2256,0.61832,211,1.88838,-0.738,-0.36765,0.13369,5,1U1D,1.0,False,0.296,20,False,left,0.0,0.000708600040525198,1.882097200024873,1.8813885999843478,1.1487196004018188,1.6489527001976967,0.5002330997958779,
212,0.50134,0.1,1,0.39271,0.25902,0.87734,212,2.43984,-0.182,-0.09191,0.40943,5,1D1U,1.0,False,3.875,23,False,left,0.0,0.0007691001519560814,2.4488409999758005,2.4480718998238444,1.66538460040465,2.165585800074041,0.5002011996693909,
213,0.50134,1.2,1,0.376,0.24231,0.76036,213,2.64037,0.514,0.25902,0.76036,5,2D1U,1.0,True,0.347,8,False,left,0.0,0.0007931999862194061,2.649176700040698,2.6483835000544786,1.8823714000172913,2.3819623002782464,0.4995909002609551,
214,0.50134,0.1,1,0.3008,0.39271,0.40107,214,1.77139,-0.646,-0.32587,0.17547,5,2U1D,2.0,True,0.111,14,True,right,0.0,0.0007364996708929539,1.7739512999542058,1.7732148002833128,0.8653357997536659,1.3648065999150276,0.4994708001613617,
215,0.50134,1.2,1,0.31751,0.29245,0.61832,215,1.90509,-0.646,-0.32587,0.17547,5,2U1D,1.0,False,0.349,14,True,left,0.0,0.0007537002675235271,1.9142758999951184,1.9135221997275949,1.0980772003531456,1.5983752999454737,0.5002980995923281,
216,0.50134,0.1,1,0.2256,0.25902,0.60996,216,1.7129,-0.774,-0.38436,0.11698,5,1U1D,2.0,True,0.233,21,True,right,0.0,0.0007475996389985085,1.7219549999572337,1.7212074003182352,0.9387723999097943,1.4387991996482015,0.5000267997384071,
217,0.50134,1.2,1,0.29245,0.41778,0.79378,217,2.13904,-0.738,-0.36765,0.13369,5,1U1D,1.0,False,0.469,22,True,left,0.0,0.00029960041865706444,2.1404574001207948,2.1401577997021377,1.2063898001797497,1.7063958002254367,0.500006000045687,
218,0.50134,0.1,1,0.40943,0.25902,0.67681,218,2.58189,0.478,0.24231,0.73529,5,2D1U,2.0,False,0.342,8,False,right,0.0,0.000296199694275856,2.5895155002363026,2.5892193005420268,1.8058202001266181,2.3061143001541495,0.5002941000275314,
219,0.50134,1.2,1,0.35929,0.25902,0.50134,219,2.0137,-0.218,-0.10862,0.39271,5,1D1U,1.0,False,0.259,23,False,left,0.0,0.000722300261259079,2.015614999923855,2.014892699662596,1.2401747000403702,1.740061600226909,0.4998869001865387,
220,0.50134,0.1,2,0.36765,0.36765,0.67681,220,2.07221,-0.682,-0.34258,0.15876,5,2U1D,1.0,True,0.641,15,True,left,0.0,0.00025689974427223206,2.0819037002511322,2.08164680050686,0.3569181002676487,0.8570643998682499,0.5001462996006012,
221,0.50134,1.2,2,0.20053,0.25067,0.74365,221,2.07219,-0.254,-0.12533,0.376,5,1D1U,2.0,False,0.283,23,False,right,0.0,0.00026849983260035515,2.081714800093323,2.0814463002607226,0.18983629997819662,0.6900184000842273,0.5001821001060307,
222,0.50134,0.1,2,0.34258,0.31751,0.86898,222,2.38135,-0.29,-0.14205,0.35094,5,1D1U,1.0,True,1.409,23,False,left,0.0,0.0002762000076472759,2.3893824997358024,2.389106299728155,0.33055080007761717,0.8313738000579178,0.5008229999803007,
223,0.50134,1.2,2,0.35094,0.39271,0.85227,223,2.25602,-0.682,-0.34258,0.15876,5,2U1D,2.0,False,0.389,15,True,right,0.0,0.0002625999040901661,2.2652746001258492,2.265012000221759,0.3402678002603352,0.8399093002080917,0.49964149994775653,
224,0.50134,0.1,2,0.376,0.25067,0.80214,224,2.69051,0.514,0.25902,0.76036,5,2D1U,2.0,True,2.848,9,True,right,0.0,0.00025059981271624565,2.6989694996736944,2.698718899860978,0.36613989993929863,0.8662832998670638,0.5001433999277651,
225,0.50134,1.2,2,0.31751,0.40107,0.62667,225,1.96357,-0.774,-0.38436,0.11698,5,1U1D,2.0,False,2.685,23,True,right,0.0,0.0002821004018187523,1.964994499925524,1.9647123995237052,0.3064146996475756,0.8069311999715865,0.5005165003240108,
226,0.50134,0.1,2,0.26738,0.35929,0.6016,226,1.87166,-0.718,-0.35929,0.14205,5,2U1D,1.0,True,0.232,15,False,left,0.0,0.0005347998812794685,1.8735154997557402,1.8729806998744607,0.25693150004372,0.7570254001766443,0.5000939001329243,
227,0.50134,1.2,2,0.20889,0.30916,0.69352,227,2.47327,0.514,0.25902,0.76036,5,2D1U,2.0,True,0.449,9,True,right,0.0,0.0002675997093319893,2.4815106000751257,2.4812430003657937,0.19811599981039762,0.6988980998285115,0.5007821000181139,
228,0.50134,0.1,2,0.24231,0.21725,0.69352,228,1.74633,-0.81,-0.40107,0.09191,5,1U1D,1.0,True,1.406,23,False,left,0.0,0.0008140001446008682,1.7490030000917614,1.7481889999471605,0.23207559995353222,0.7325082002207637,0.5004326002672315,
229,0.50134,1.2,2,0.24231,0.43449,0.40107,229,1.95521,-0.254,-0.12533,0.376,5,1D1U,2.0,False,0.274,24,True,right,0.0,0.0007911999709904194,1.9572673998773098,1.9564761999063194,0.23166569974273443,0.7321521998383105,0.500486500095576,
230,0.50134,0.1,1,0.43449,0.376,0.77707,230,2.23095,-0.718,-0.35929,0.14205,5,2U1D,2.0,True,0.406,15,False,right,0.0,0.0009396001696586609,2.23279199982062,2.231852399650961,1.341140499804169,1.8408747999928892,0.4997343001887202,
231,0.50134,1.2,1,0.28409,0.21725,0.63503,231,1.75469,-0.774,-0.38436,0.11698,5,1U1D,1.0,False,0.27,24,True,left,0.0,0.0007376000285148621,1.7578952996991575,1.7571576996706426,1.0250876997597516,1.5248305001296103,0.49974280036985874,
232,0.50134,0.1,1,0.43449,0.25902,0.80214,232,2.34793,-0.29,-0.14205,0.35094,5,1D1U,2.0,True,1.514,25,True,right,0.0,0.0007249000482261181,2.3501128000207245,2.3493878999724984,1.5753715001046658,2.0752991000190377,0.49992759991437197,
233,0.50134,1.2,1,0.44285,0.21725,0.55983,233,2.09727,-0.254,-0.12533,0.376,5,1D1U,1.0,False,0.28,26,True,left,0.0,0.0008826996199786663,2.106255500111729,2.1053728004917502,1.3646091003902256,1.8644921001978219,0.4998829998075962,
234,0.50134,0.1,1,0.27574,0.20889,0.40107,234,2.12233,0.478,0.24231,0.73529,5,2D1U,2.0,False,1.287,10,True,right,0.0,0.0007128999568521976,2.1250611003488302,2.124348200391978,1.3997248001396656,1.8997587002813816,0.500033900141716,
235,0.50134,1.2,1,0.23396,0.40943,0.59325,235,1.89674,-0.682,-0.34258,0.15876,5,2U1D,1.0,False,0.737,16,True,left,0.0,0.0007533999159932137,1.8992286999709904,1.8984753000549972,0.9736414002254605,1.4737839000299573,0.5001424998044968,
236,0.50134,0.1,1,0.30916,0.40943,0.82721,236,2.13905,-0.81,-0.40107,0.09191,5,1U1D,2.0,True,0.566,25,True,right,0.0,0.0007993001490831375,2.1406990000978112,2.139899699948728,1.2154688001610339,1.715505599975586,0.5000367998145521,
237,0.50134,1.2,1,0.30916,0.25067,0.72694,237,1.93016,-0.718,-0.35929,0.14205,5,2U1D,1.0,False,3.517,17,True,left,0.0,0.0007712999358773232,1.9392385999672115,1.9384673000313342,1.1641533998772502,1.6639970997348428,0.4998436998575926,
238,0.50134,0.1,1,0.20889,0.24231,0.46791,238,2.18081,0.514,0.25902,0.76036,5,2D1U,2.0,False,0.217,11,True,right,0.0,0.0007166001014411449,2.190633099991828,2.189916499890387,1.4239878999069333,1.9233248000964522,0.49933690018951893,
239,0.50134,1.2,1,0.21725,0.24231,0.55147,239,1.86331,-0.29,-0.14205,0.35094,5,1D1U,1.0,False,0.256,27,True,left,0.0,0.00033769989386200905,1.8735011001117527,1.8731634002178907,1.1073128003627062,1.6070622000843287,0.49974939972162247,
240,0.50134,0.1,2,0.35094,0.42614,0.40943,240,2.02207,-0.326,-0.16711,0.33422,5,1D1U,1.0,True,0.825,27,False,left,0.0,0.0007426999509334564,2.0312062995508313,2.030463599599898,0.33928139973431826,0.8392095998860896,0.4999282001517713,
241,0.50134,1.2,2,0.2256,0.32587,0.63503,241,2.03878,-0.29,-0.14205,0.35094,5,1D1U,2.0,False,0.27,28,True,right,0.0,0.0002946997992694378,2.047249300405383,2.0469546006061137,0.21406660042703152,0.7145810001529753,0.5005143997259438,
242,0.50134,0.1,2,0.42614,0.44285,0.76872,242,2.47327,-0.326,-0.16711,0.33422,5,1D1U,1.0,True,3.853,29,True,left,0.0,0.0007469998672604561,2.473752100020647,2.4730051001533866,0.41473780013620853,0.9150445000268519,0.5003066998906434,
243,0.50134,1.2,2,0.40943,0.3008,0.83556,243,2.8242,0.55,0.27574,0.77707,5,2D1U,2.0,True,0.305,11,False,right,0.0,0.0007285000756382942,2.8311374997720122,2.830408999696374,0.398057300131768,0.8981333998963237,0.5000760997645557,
244,0.50134,0.1,2,0.44285,0.23396,0.66009,244,1.96357,-0.754,-0.376,0.12533,5,2U1D,1.0,True,0.456,17,False,left,0.0,0.0006968001835048199,1.9731919998303056,1.9724951996468008,0.4319431995972991,0.9318559998646379,0.49991280026733875,
245,0.50134,1.2,2,0.43449,0.23396,0.4512,245,1.73797,-0.774,-0.38436,0.11698,5,1U1D,1.0,True,1.828,26,True,left,0.0,0.0007815002463757992,1.7407563999295235,1.7399748996831477,0.4244368998333812,0.9238501000218093,0.49941320018842816,
246,0.50134,0.1,2,0.40943,0.27574,0.84392,246,2.8075,0.55,0.27574,0.77707,5,2D1U,2.0,True,0.324,11,False,right,0.0,0.0007704002782702446,2.80616689985618,2.8053964995779097,0.40615860000252724,0.9067440000362694,0.5005854000337422,
247,0.50134,1.2,2,0.32587,0.29245,0.85227,247,2.10562,-0.738,-0.36765,0.13369,5,1U1D,2.0,False,1.222,26,False,right,0.0,0.000745799858123064,2.1159493001177907,2.1152035002596676,0.3154592998325825,0.8156472002156079,0.5001879003830254,
248,0.50134,0.1,2,0.35094,0.36765,0.40943,248,1.75469,-0.754,-0.376,0.12533,5,2U1D,1.0,True,0.46,17,False,left,0.0,0.0007504001259803772,1.7562779998406768,1.7555275997146964,0.3394094998948276,0.8393727000802755,0.49996320018544793,
249,0.50134,1.2,2,0.38436,0.44285,0.47627,249,2.15576,-0.29,-0.14205,0.35094,5,1D1U,2.0,False,1.0,30,True,right,0.0,0.0007780999876558781,2.157019699923694,2.1562415999360383,0.3736237999983132,0.8727322001941502,0.499108400195837,
250,0.50134,0.1,1,0.39271,0.24231,0.54312,250,2.0137,-0.326,-0.16711,0.33422,5,1D1U,2.0,True,0.111,31,True,right,0.0,0.00040560029447078705,2.023225899785757,2.0228202994912863,1.2563070999458432,1.7562449001707137,0.49993780022487044,
251,0.50134,1.2,1,0.33422,0.31751,0.49298,251,1.99699,-0.29,-0.14205,0.35094,5,1D1U,1.0,False,1.089,32,True,left,0.0,0.000742100179195404,1.9986768001690507,1.9979346999898553,1.1650129002518952,1.6653527999296784,0.5003398996777833,
252,0.50134,0.1,1,0.27574,0.32587,0.4512,252,2.31451,0.514,0.25902,0.76036,5,2D1U,2.0,False,0.674,12,True,right,0.0,0.0007702000439167023,2.3246041000820696,2.323833900038153,1.4740797998383641,1.9742505000904202,0.5001707002520561,
253,0.50134,1.2,1,0.32587,0.40107,0.75201,253,2.12234,-0.718,-0.35929,0.14205,5,2U1D,1.0,False,0.262,18,True,left,0.0,0.0005444996058940887,2.1236141002736986,2.1230696006678045,1.2068050000816584,1.7068042000755668,0.4999991999939084,
254,0.50134,0.1,1,0.40943,0.23396,0.43449,254,1.6962,-0.774,-0.38436,0.11698,5,1U1D,2.0,True,0.273,27,True,right,0.0,0.0007544001564383507,1.6978163998574018,1.6970619997009635,0.9482761002145708,1.4479698999784887,0.4996937997639179,
255,0.50134,1.2,1,0.33422,0.376,0.43449,255,1.77974,-0.738,-0.36765,0.13369,5,1U1D,1.0,False,0.414,28,True,left,0.0,0.0009011998772621155,1.7910076999105513,1.7901065000332892,0.8911605998873711,1.3914773999713361,0.5003168000839651,
256,0.50134,0.1,1,0.25067,0.41778,0.49298,256,1.7881,-0.754,-0.376,0.12533,5,2U1D,1.0,False,3.748,19,True,left,0.0,0.0007511000148952007,1.789534400217235,1.7887833002023399,0.8559166002087295,1.3560481001622975,0.500131499953568,
257,0.50134,1.2,1,0.23396,0.44285,0.66845,257,2.18082,-0.326,-0.16711,0.33422,5,1D1U,1.0,False,0.325,33,True,left,0.0,0.000782400369644165,2.189578799996525,2.188796399626881,1.2228242000564933,1.7233829000033438,0.5005586999468505,
258,0.50134,0.1,1,0.32587,0.20889,0.43449,258,1.7881,-0.362,-0.18382,0.31751,5,1D1U,2.0,True,1.753,33,False,right,0.0,0.0007807002402842045,1.7917458997108042,1.79096519947052,1.0668440000154078,1.5659483997151256,0.49910439969971776,
259,0.50134,1.2,1,0.25067,0.42614,0.78543,259,2.08056,-0.774,-0.38436,0.11698,5,1U1D,1.0,False,0.997,29,True,left,0.0,0.000830299686640501,2.082937200088054,2.0821069004014134,1.1407985999248922,1.6415146999061108,0.5007160999812186,
260,0.50134,0.1,2,0.34258,0.33422,0.66009,260,2.6153,0.55,0.27574,0.77707,5,2D1U,2.0,True,0.378,13,True,right,0.0,0.0007474999874830246,2.621642000041902,2.620894500054419,0.33060820028185844,0.8303222004324198,0.49971400015056133,
261,0.50134,1.2,2,0.40107,0.23396,0.45956,261,1.93015,-0.326,-0.16711,0.33422,5,1D1U,2.0,False,0.472,34,True,right,0.0,0.0007448000833392143,1.9409331995993853,1.940188399516046,0.39114889968186617,0.8906186996027827,0.49946979992091656,
262,0.50134,0.1,2,0.43449,0.36765,0.85227,262,2.93282,0.55,0.27574,0.77707,5,2D1U,2.0,True,0.87,13,True,right,0.0,0.0002680998295545578,2.941090399865061,2.9408223000355065,0.4245889000594616,0.9243450001813471,0.49975610012188554,
263,0.50134,1.2,2,0.32587,0.21725,0.48463,263,1.621,-0.81,-0.40107,0.09191,5,1U1D,2.0,False,0.582,29,False,right,0.0,0.0005723997019231319,1.6317753000184894,1.6312029003165662,0.314888299908489,0.8146024998277426,0.4997141999192536,
264,0.50134,0.1,2,0.30916,0.2256,0.67681,264,1.82153,-0.79,-0.39271,0.10862,5,2U1D,1.0,True,0.225,19,False,left,0.0,0.0008066999725997448,1.833281499799341,1.8324747998267412,0.2992402999661863,0.7995060998946428,0.5002657999284565,
265,0.50134,1.2,2,0.44285,0.20889,0.46791,265,1.72961,-0.79,-0.39271,0.10862,5,2U1D,2.0,False,0.502,19,False,right,0.0,0.0006559998728334904,1.7326974999159575,1.732041500043124,0.433481200132519,0.9330800999887288,0.49959889985620975,
266,0.50134,0.1,2,0.40943,0.41778,0.89405,266,2.30616,-0.826,-0.40943,0.08356,5,2U1D,1.0,True,0.23,19,False,left,0.0,0.0007313997484743595,2.3079927996732295,2.307261399924755,0.39949460001662374,0.8996707000769675,0.5001761000603437,
267,0.50134,1.2,2,0.39271,0.3008,0.86063,267,2.13068,-0.846,-0.42614,0.0752,5,1U1D,2.0,False,0.3,29,False,right,0.0,0.0007548998109996319,2.139916299842298,2.1391614000312984,0.38088189996778965,0.8806185997091234,0.4997366997413337,
268,0.50134,0.1,2,0.21725,0.40943,0.82721,268,2.71559,0.514,0.25902,0.76036,5,2D1U,2.0,True,0.437,14,True,right,0.0,0.0007492001168429852,2.7160273999907076,2.7152781998738647,0.2074206997640431,0.7074780999682844,0.5000574002042413,
269,0.50134,1.2,2,0.2256,0.41778,0.56818,269,2.03041,-0.362,-0.18382,0.31751,5,1D1U,2.0,False,0.349,35,True,right,0.0,0.0006701000966131687,2.0394978001713753,2.038827700074762,0.2144348002038896,0.7148298001848161,0.5003949999809265,
270,0.50134,0.1,1,0.24231,0.29245,0.43449,270,1.77139,-0.398,-0.20053,0.3008,5,1D1U,2.0,True,0.413,35,False,right,0.0,0.00070610037073493,1.7744523999281228,1.7737462995573878,0.9661460998468101,1.4665001998655498,0.5003541000187397,
271,0.50134,1.2,1,0.42614,0.41778,0.54312,271,1.94687,-0.882,-0.44285,0.05849,5,1U1D,1.0,False,0.723,29,False,left,0.0,0.0008280999027192593,1.9493931997567415,1.9485650998540223,1.0160962999798357,1.5154976998455822,0.4994013998657465,
272,0.50134,0.1,1,0.25067,0.33422,0.8857,272,2.73229,0.514,0.25902,0.76036,5,2D1U,2.0,False,1.395,14,True,right,0.0,0.0007982002571225166,2.7326850998215377,2.731886899564415,1.8825225001201034,2.383042899891734,0.5005203997716308,
273,0.50134,1.2,1,0.36765,0.44285,0.74365,273,2.373,-0.362,-0.18382,0.31751,5,1D1U,1.0,False,0.451,36,True,left,0.0,0.0007821000181138515,2.3807369000278413,2.3799548000097275,1.41422100039199,1.9141611000522971,0.49994009966030717,
274,0.50134,0.1,1,0.44285,0.28409,0.76872,274,2.08056,-0.826,-0.40943,0.08356,5,2U1D,2.0,True,0.374,19,False,right,0.0,0.00073640001937747,2.090855000074953,2.0901186000555754,1.2825250001624227,1.7825623000971973,0.5000372999347746,
275,0.50134,1.2,1,0.39271,0.376,0.55147,275,1.93014,-0.79,-0.39271,0.10862,5,2U1D,1.0,False,0.8,20,True,left,0.0,0.000680999830365181,1.9395268000662327,1.9388458002358675,1.0391878001391888,1.540529000107199,0.5013411999680102,
276,0.50134,0.1,1,0.40107,0.43449,0.85227,276,2.48997,-0.398,-0.20053,0.3008,5,1D1U,2.0,True,3.224,37,True,right,0.0,0.0007994999177753925,2.4990169000811875,2.498217400163412,1.5406777998432517,2.0404245001263916,0.49974670028313994,
277,0.50134,1.2,1,0.35094,0.41778,0.75201,277,2.33958,-0.362,-0.18382,0.31751,5,1D1U,1.0,False,0.36,38,True,left,0.0,0.00027860002592206,2.3400893001817167,2.3398107001557946,1.4064939999952912,1.9073052001185715,0.5008112001232803,
278,0.50134,0.1,1,0.25067,0.36765,0.83556,278,2.03878,-0.826,-0.40943,0.08356,5,2U1D,2.0,True,0.231,21,True,right,0.0,0.0003192001022398472,2.032480400055647,2.032161199953407,1.1579332002438605,1.657595000229776,0.4996617999859154,
279,0.50134,1.2,1,0.33422,0.35929,0.80214,279,2.77406,0.55,0.27574,0.77707,5,2D1U,1.0,True,0.319,15,True,left,0.0,0.00026750005781650543,2.7745729996822774,2.774305499624461,1.89951439993456,2.3992249998264015,0.4997105998918414,
280,0.50134,0.1,2,0.26738,0.24231,0.45956,280,1.52072,-0.9,-0.4512,0.05013,5,1U1D,1.0,True,0.992,29,False,left,0.0,0.0007678000256419182,1.5250383000820875,1.5242705000564456,0.2580527001991868,0.7579255001619458,0.499872799962759,
281,0.50134,1.2,2,0.20889,0.40107,0.58489,281,1.77975,-0.826,-0.40943,0.08356,5,2U1D,2.0,False,0.29,21,True,right,0.0,0.0014435001648962498,1.7886876999400556,1.7872441997751594,0.2058174996636808,0.7060538996011019,0.5002363999374211,
282,0.50134,0.1,2,0.26738,0.33422,0.57654,282,2.45655,0.55,0.27574,0.77707,5,2D1U,1.0,False,0.559,15,True,left,0.0,0.000795499887317419,2.4570152000524104,2.456219700165093,0.2561623998917639,0.756969700101763,0.5008073002099991,
283,0.50134,1.2,2,0.30916,0.32587,0.67681,283,2.60696,0.586,0.29245,0.79378,5,2D1U,2.0,True,0.549,15,False,right,0.0,0.0003092000260949135,2.6065470003522933,2.6062378003261983,0.2981885001063347,0.7981063001789153,0.4999178000725806,
284,0.50134,0.1,2,0.40107,0.3008,0.56818,284,2.56517,0.586,0.29245,0.79378,5,2D1U,2.0,True,1.666,15,False,right,0.0,0.000725800171494484,2.566169199999422,2.5654433998279274,0.39129399973899126,0.8911964995786548,0.4999024998396635,
285,0.50134,1.2,2,0.40107,0.27574,0.84392,285,2.08891,-0.864,-0.43449,0.06684,5,1U1D,1.0,True,1.396,30,True,left,0.0,0.0007486999966204166,2.090266200248152,2.0895175002515316,0.3900533998385072,0.8901855000294745,0.5001321001909673,
286,0.50134,0.1,2,0.36765,0.29245,0.55983,286,1.80483,-0.828,-0.41778,0.08356,5,1U1D,1.0,True,0.366,30,False,left,0.0,0.0007623001001775265,1.8071020999923348,1.8063397998921573,0.35716590005904436,0.8573127002455294,0.500146800186485,
287,0.50134,1.2,2,0.35094,0.20889,0.81885,287,1.94686,-0.862,-0.43449,0.06684,5,2U1D,2.0,False,0.324,21,False,right,0.0,0.0006374996155500412,1.949347599875182,1.9487101002596319,0.34112059976905584,0.8411117997020483,0.49999119993299246,
288,0.50134,0.1,2,0.40943,0.28409,0.56818,288,1.81317,-0.898,-0.4512,0.05013,5,2U1D,1.0,True,0.496,21,False,left,0.0,0.0009820000268518925,1.8160938997752964,1.8151118997484446,0.3995922999456525,0.8994523999281228,0.4998600999824703,
289,0.50134,1.2,2,0.32587,0.34258,0.47627,289,2.42313,0.55,0.27574,0.77707,5,2D1U,2.0,True,0.32,16,True,right,0.0,0.0008324002847075462,2.423729400150478,2.4228969998657703,0.3153019002638757,0.8153726002201438,0.5000706999562681,
290,0.50134,0.1,1,0.40107,0.40107,0.71023,290,2.79078,0.55,0.27574,0.77707,5,2D1U,2.0,False,1.056,16,True,right,0.0,0.0007156999781727791,2.7996678999625146,2.798952199984342,1.8747588000260293,2.3747338000684977,0.4999750000424683,
291,0.50134,1.2,1,0.43449,0.41778,0.48463,291,1.93851,-0.792,-0.39271,0.10027,5,1U1D,1.0,False,4.228,30,False,left,0.0,0.0007361997850239277,1.9400377999991179,1.939301600214094,1.0065877996385098,1.5064295995980501,0.49984179995954037,
292,0.50134,0.1,1,0.40943,0.31751,0.43449,292,1.74633,-0.828,-0.41778,0.08356,5,1U1D,2.0,True,0.335,31,True,right,0.0,0.0002552000805735588,1.7481260998174548,1.7478708997368813,0.9146821000613272,1.4149034996517003,0.500221399590373,
293,0.50134,1.2,1,0.43449,0.27574,0.55147,293,2.55682,0.586,0.29245,0.79378,5,2D1U,1.0,True,0.868,17,True,left,0.0,0.0007279999554157257,2.564540300052613,2.5638123000971973,1.7644358999095857,2.2646057000383735,0.5001698001287878,
294,0.50134,0.1,1,0.20889,0.27574,0.85227,294,1.88837,-0.898,-0.4512,0.05013,5,2U1D,2.0,True,0.476,21,False,right,0.0,0.0008626002818346024,1.889202400110662,1.8883397998288274,1.0971437999978662,1.5976243000477552,0.5004805000498891,
295,0.50134,1.2,1,0.38436,0.38436,0.47627,295,1.8466,-0.792,-0.39271,0.10027,5,1U1D,1.0,False,0.309,32,True,left,0.0,0.0007382002659142017,1.8488280000165105,1.8480897997505963,0.9481371999718249,1.4485583999194205,0.5004211999475956,
296,0.50134,0.1,1,0.44285,0.29245,0.69352,296,1.997,-0.862,-0.43449,0.06684,5,2U1D,2.0,True,0.877,22,True,right,0.0,0.0007413001731038094,1.9999114996753633,1.9991701995022595,1.1915197996422648,1.6912592998705804,0.4997395002283156,
297,0.50134,1.2,1,0.23396,0.39271,0.60996,297,1.82153,-0.828,-0.41778,0.08356,5,1U1D,1.0,False,0.44,33,True,left,0.0,0.0007453998550772667,1.8322296002879739,1.8314842004328966,0.9156444002874196,1.4157381001859903,0.5000936998985708,
298,0.50134,0.1,1,0.30916,0.4512,0.75201,298,2.08055,-0.864,-0.43449,0.06684,5,1U1D,2.0,True,0.255,33,False,right,0.0,0.0006830999627709389,2.0822584996931255,2.0815753997303545,1.1153643000870943,1.616327699739486,0.5009633996523917,
299,0.50134,1.2,1,0.40943,0.36765,0.43449,299,2.50669,0.586,0.29245,0.79378,5,2D1U,1.0,True,0.258,17,True,left,0.0,0.0007361997850239277,2.507089899852872,2.506353700067848,1.6238425001502037,2.123919299803674,0.5000767996534705,
300,0.50134,0.1,2,0.29245,0.32587,0.86898,300,2.05548,-0.862,-0.43449,0.06684,5,2U1D,1.0,True,0.776,22,True,left,0.0,0.0007597999647259712,2.0575981996953487,2.0568383997306228,0.2820774996653199,0.7825636998750269,0.500486200209707,
301,0.50134,1.2,2,0.23396,0.26738,0.71858,301,1.80482,-0.828,-0.41778,0.08356,5,1U1D,2.0,False,0.416,34,True,right,0.0,0.0007087001577019691,1.8155335998162627,1.8148248996585608,0.22403409983962774,0.724008200224489,0.49997410038486123,
302,0.50134,0.1,2,0.28409,0.35094,0.74365,302,2.65709,0.55,0.27574,0.77707,5,2D1U,2.0,True,0.327,18,True,right,0.0,0.0007517999038100243,2.6567274001426995,2.6559756002388895,0.2737724999897182,0.7737390999682248,0.49996659997850657,
303,0.50134,1.2,2,0.23396,0.41778,0.59325,303,2.5234,0.55,0.27574,0.77707,5,2D1U,2.0,True,0.625,18,True,right,0.0,0.0007151998579502106,2.532108999788761,2.531393799930811,0.22320349980145693,0.7239433000795543,0.5007398002780974,
304,0.50134,0.1,2,0.43449,0.42614,0.51805,304,1.96358,-0.826,-0.40943,0.08356,5,2U1D,1.0,True,0.462,22,False,left,0.0,0.0004019998013973236,1.9656674000434577,1.9652654002420604,0.42386960005387664,0.9240831001661718,0.5002135001122952,
305,0.50134,1.2,2,0.38436,0.33422,0.40107,305,2.38135,0.514,0.25902,0.76036,5,2D1U,2.0,True,0.583,18,False,right,0.0,0.000727399718016386,2.3907813001424074,2.390053900424391,0.3739684000611305,0.8739861003123224,0.5000177002511919,
306,0.50134,0.1,2,0.376,0.35094,0.75201,306,2.74065,0.514,0.25902,0.76036,5,2D1U,2.0,True,0.425,18,False,right,0.0,0.0003426000475883484,2.7573871999047697,2.7570445998571813,0.3656299002468586,0.866221799980849,0.5005918997339904,
307,0.50134,1.2,2,0.38436,0.29245,0.75201,307,2.01372,-0.826,-0.40943,0.08356,5,2U1D,2.0,False,1.203,22,False,right,0.0,0.0007639001123607159,2.0149795999750495,2.014215699862689,0.37276639975607395,0.8731783996336162,0.5004119998775423,
308,0.50134,0.1,2,0.26738,0.31751,0.43449,308,1.58756,-0.862,-0.43449,0.06684,5,2U1D,1.0,True,0.31,23,True,left,0.0,0.000742100179195404,1.5908534000627697,1.5901112998835742,0.2578781000338495,0.757301100064069,0.49942300003021955,
