,standardDur,audNoise,order,preDur,postDur,isiDur,trial_num,totalDur,delta_dur_percents,deltaDurS,testDurS,intensities,current_stair,responses,is_correct,response_rts,stair_num_reversal,stair_is_reversal,response_keys,conflictDur,recordedOnsetAudioTest,recordedOffsetAudioTest,recordedDurAudioTest,recordedOnsetVisualStandard,recordedOffsetVisualStandard,recordedDurVisualStandard,modalityPostCueTest
0,0.49963,1.2,2,0.21651,0.36639,0.7994,0,2.70632,0.65,0.32476,0.82439,5,1D1U,2.0,True,7.61,0,False,right,0.0,0.000264899805188179,2.7065598000772297,2.7062949002720416,0.20605040015652776,0.7059885999187827,0.49993819976225495,
1,0.49963,0.1,2,0.35807,0.23316,0.79108,1,2.70633,0.65,0.32476,0.82439,5,2D1U,2.0,True,2.17,0,False,right,0.0,0.00026350002735853195,2.70679090032354,2.7065274002961814,0.34841090021654963,0.8484783000312746,0.5000673998147249,
2,0.49963,1.2,2,0.31643,0.24149,0.54126,2,1.77368,-0.65,-0.32476,0.17487,5,1U1D,1.0,True,2.208,0,False,left,0.0,0.00029250001534819603,1.781355899758637,1.7810633997432888,0.3062423998489976,0.806392400059849,0.5001500002108514,
3,0.49963,0.1,2,0.22483,0.43301,0.4913,3,1.82364,-0.65,-0.32476,0.17487,5,2U1D,1.0,True,11.264,0,False,left,0.0,0.0007901000790297985,1.8315893998369575,1.8307992997579277,0.21479059988632798,0.7151477998122573,0.5003571999259293,
4,0.49963,0.1,2,0.2748,0.24149,0.47465,4,1.54053,-0.9,-0.44967,0.04996,5,lapse_rate,1.0,True,5.741,0,False,left,0.0,0.00025880010798573494,1.5500372997485101,1.5497784996405244,0.2665460999123752,0.766682599671185,0.5001364997588098,
5,0.49963,1.2,2,0.43301,0.32476,0.43301,5,2.46483,0.55,0.2748,0.77442,5,1D1U,2.0,True,0.757,0,False,right,0.0,0.00025509996339678764,2.4721765001304448,2.471921400167048,0.42157460004091263,0.9214881001971662,0.4999135001562536,
6,0.49963,0.1,2,0.38305,0.44134,0.59123,6,2.09012,-0.65,-0.32476,0.17487,5,2U1D,1.0,True,0.331,0,False,left,0.0,0.0005780002102255821,2.0988944000564516,2.098316399846226,0.37422889983281493,0.874361100140959,0.5001322003081441,
7,0.49963,1.2,2,0.41636,0.31643,0.53294,7,2.48982,0.45,0.22483,0.72446,5,1D1U,2.0,True,0.317,0,False,right,0.0,0.0002521001733839512,2.506303600035608,2.506051499862224,0.4061014000326395,0.9064529002644122,0.5003515002317727,
8,0.49963,0.1,2,0.22483,0.31643,0.43301,8,1.69873,-0.55,-0.2748,0.22483,5,1U1D,2.0,False,2.003,0,False,right,0.0,0.0007851999253034592,1.706708800047636,1.7059236001223326,0.21529840026050806,0.7149791000410914,0.4996806997805834,
9,0.49963,1.2,2,0.39138,0.35807,0.50795,9,2.58142,0.65,0.32476,0.82439,5,2D1U,2.0,True,0.256,0,False,right,0.0,0.0002525998279452324,2.591022999957204,2.5907704001292586,0.38299449998885393,0.8822748996317387,0.49928039964288473,
10,0.49963,1.2,1,0.34974,0.3081,0.4913,10,1.69873,-0.9,-0.44967,0.04996,5,lapse_rate,2.0,True,3.753,0,False,right,0.0,0.0007331999950110912,1.6999240000732243,1.6991908000782132,0.8833245001733303,1.383200400043279,0.4998758998699486,
11,0.49963,0.1,1,0.38305,0.26647,0.74111,11,2.66468,0.55,0.2748,0.77442,5,2D1U,1.0,True,2.279,0,False,left,0.0,0.00032320013269782066,2.674294900149107,2.673971700016409,1.8907935000024736,2.390752099920064,0.4999585999175906,
12,0.49963,1.2,1,0.19985,0.34974,0.47465,12,2.19837,0.35,0.17487,0.6745,5,1D1U,1.0,True,1.381,0,False,left,0.0,0.00026769982650876045,2.199395200237632,2.199127500411123,1.3402045997790992,1.8412366998381913,0.501032100059092,
13,0.49963,1.2,1,0.22483,0.31643,0.48297,13,1.57382,-0.9,-0.44967,0.04996,5,lapse_rate,2.0,True,0.435,0,False,right,0.0,0.0008107000030577183,1.5808007000014186,1.5799899999983609,0.7474720999598503,1.2478414000943303,0.50036930013448,
14,0.49963,0.1,1,0.32476,0.24981,0.44967,14,1.7487,-0.55,-0.2748,0.22483,5,2U1D,2.0,True,0.27,0,False,right,0.0,0.0007266001775860786,1.7488056002184749,1.7480790000408888,0.9906767001375556,1.4901464004069567,0.4994697002694011,
15,0.49963,1.2,1,0.24981,0.29145,0.69115,15,1.92356,-0.61,-0.3081,0.19152,5,1U1D,2.0,True,1.101,1,True,right,0.0,0.0008038999512791634,1.9316595001146197,1.9308556001633406,1.122470600064844,1.6234033000655472,0.5009327000007033,
16,0.49963,0.1,1,0.3997,0.29145,0.6745,16,2.08179,-0.574,-0.28312,0.21651,5,1U1D,2.0,True,2.15,2,True,right,0.0,0.0002704998478293419,2.0891335997730494,2.08886309992522,1.281459900084883,1.7816989999264479,0.5002390998415649,
17,0.49963,1.2,1,0.24149,0.32476,0.49963,17,2.33993,0.55,0.2748,0.77442,5,2D1U,2.0,False,2.905,0,False,right,0.0,0.0008487999439239502,2.348277499899268,2.347428699955344,1.5067380000837147,2.0064619998447597,0.499723999761045,
18,0.49963,0.1,1,0.21651,0.26647,0.41636,18,2.34826,0.9,0.44967,0.94929,5,lapse_rate,1.0,True,2.291,0,False,left,0.0,0.0007186001166701317,2.347636300139129,2.346917700022459,1.573609699960798,2.0733332000672817,0.4997235001064837,
19,0.49963,0.1,1,0.25814,0.39138,0.46632,19,2.24,0.25,0.12491,0.62453,5,1D1U,1.0,True,1.892,0,False,left,0.0,0.0007209000177681446,2.248927100095898,2.2482062000781298,1.3491861000657082,1.8492512004449964,0.5000651003792882,
20,0.49963,1.2,2,0.39138,0.40803,0.59955,20,2.12342,-0.55,-0.2748,0.22483,5,2U1D,1.0,True,0.612,0,False,left,0.0,0.000737400259822607,2.1314766998402774,2.130739299580455,0.3822170998901129,0.8817971996031702,0.4995800997130573,
21,0.49963,0.1,2,0.38305,0.25814,0.53294,21,2.48149,0.61,0.3081,0.80773,5,2D1U,2.0,True,0.281,1,True,right,0.0,0.0007102000527083874,2.489856299944222,2.4891460998915136,0.37395549984648824,0.873532900121063,0.49957740027457476,
22,0.49963,1.2,2,0.34141,0.44134,0.54126,22,2.39821,0.15,0.07494,0.57457,5,1D1U,2.0,True,0.356,0,False,right,0.0,0.0007098997011780739,2.399432099889964,2.398722200188786,0.33216589968651533,0.8319876999594271,0.4998218002729118,
23,0.49963,1.2,2,0.34141,0.43301,0.5829,23,2.80624,0.9,0.44967,0.94929,5,lapse_rate,1.0,False,0.566,0,False,left,0.0,0.0002802000381052494,2.8137674001045525,2.8134872000664473,0.33067419985309243,0.830324400216341,0.4996502003632486,
24,0.49963,0.1,2,0.25814,0.28312,0.891,24,2.16505,-0.538,-0.26647,0.23316,5,1U1D,1.0,True,0.312,2,False,left,0.0,0.0007227002643048763,2.166333499830216,2.1656107995659113,0.24939579982310534,0.7495849998667836,0.5001892000436783,
25,0.49963,1.2,2,0.20818,0.32476,0.44134,25,1.74871,-0.45,-0.22483,0.2748,5,2U1D,1.0,True,0.861,0,False,left,0.0,0.0004675001837313175,1.7484347997233272,1.7479672995395958,0.1984767997637391,0.6977001996710896,0.49922339990735054,
26,0.49963,0.1,2,0.23316,0.39138,0.71613,26,2.36491,0.05,0.02498,0.52461,5,1D1U,2.0,True,0.57,0,False,right,0.0,0.0002907998859882355,2.3667609998956323,2.366470200009644,0.22449300019070506,0.7248168997466564,0.5003238995559514,
27,0.49963,1.2,2,0.42468,0.42468,0.63286,27,2.25665,-0.45,-0.22483,0.2748,5,2U1D,1.0,True,0.314,0,False,left,0.0,0.00027820002287626266,2.2568812002427876,2.2566030002199113,0.41531459987163544,0.9149214001372457,0.4996068002656102,
28,0.49963,0.1,2,0.20818,0.37472,0.65784,28,2.5481,0.61,0.3081,0.80773,5,2D1U,2.0,True,0.32,1,True,right,0.0,0.00070980004966259,2.5413429997861385,2.540633199736476,0.19952229969203472,0.6993618998676538,0.4998396001756191,
29,0.49963,1.2,2,0.37472,0.3997,0.53294,29,1.85695,-0.9,-0.44967,0.04996,5,lapse_rate,1.0,True,0.403,0,False,left,0.0,0.0007182001136243343,1.8668049001134932,1.8660866999998689,0.37236429983749986,0.8733276999555528,0.500963400118053,
30,0.49963,1.2,1,0.40803,0.39138,0.77442,30,2.32327,-0.502,-0.24981,0.24981,5,1U1D,2.0,True,0.374,2,False,right,0.0,0.0007197996601462364,2.3297383999451995,2.3290186002850533,1.4296961002983153,1.9294614000245929,0.4997652997262776,
31,0.49963,0.1,1,0.41636,0.41636,0.44967,31,2.10678,-0.35,-0.17487,0.32476,5,2U1D,2.0,True,0.303,0,False,right,0.0,0.0007295999675989151,2.1056762002408504,2.1049466002732515,1.1808138000778854,1.6807180000469089,0.49990419996902347,
32,0.49963,1.2,1,0.39138,0.37472,0.57457,32,2.10677,-0.466,-0.23316,0.26647,5,1U1D,2.0,True,0.754,2,False,right,0.0,0.0002535996027290821,2.107609999831766,2.107356400229037,1.2244129995815456,1.7241267999634147,0.4997138003818691,
33,0.49963,0.1,1,0.35807,0.37472,0.66617,33,2.37324,-0.05,-0.02498,0.47465,5,1D1U,2.0,True,0.554,0,False,right,0.0,0.00026930030435323715,2.380539100151509,2.380269799847156,1.4889786001294851,1.9886452001519501,0.499666600022465,
34,0.49963,0.1,1,0.3997,0.24981,0.78275,34,2.88118,0.9,0.44967,0.94929,5,lapse_rate,2.0,False,1.375,0,False,right,0.0,0.00026449980214238167,2.890543000306934,2.8902785005047917,2.124403900001198,2.624229700304568,0.49982580030336976,
35,0.49963,1.2,1,0.35807,0.39138,0.52461,35,2.56477,0.574,0.28312,0.79108,5,2D1U,2.0,False,1.445,2,True,right,0.0,0.0006244000978767872,2.56430620001629,2.563681799918413,1.6649589999578893,2.164535399992019,0.4995764000341296,
36,0.49963,0.1,1,0.3081,0.38305,0.84104,36,2.55643,0.05,0.02498,0.52461,5,1D1U,2.0,False,4.738,0,False,right,0.0,0.0007903999648988247,2.5569014996290207,2.556111099664122,1.665939399972558,2.1662977999076247,0.5003583999350667,
37,0.49963,1.2,1,0.34141,0.19985,0.7661,37,2.61472,0.61,0.3081,0.80773,5,2D1U,2.0,False,3.63,3,True,right,0.0,0.000295800156891346,2.6241488000378013,2.62385299988091,1.9074395997449756,2.407009500078857,0.4995699003338814,
38,0.49963,0.1,1,0.34141,0.33309,0.56624,38,2.06513,-0.35,-0.17487,0.32476,5,2U1D,2.0,True,1.833,0,False,right,0.0,0.0007294001989066601,2.0652101999148726,2.064480799715966,1.2241369001567364,1.7230078000575304,0.49887089990079403,
39,0.49963,0.1,1,0.34974,0.38305,0.53294,39,2.71465,0.9,0.44967,0.94929,5,lapse_rate,2.0,False,3.23,0,False,right,0.0,0.0007265000604093075,2.7148231002502143,2.714096600189805,1.8236768003553152,2.323663800023496,0.49998699966818094,
40,0.49963,1.2,2,0.44134,0.29978,0.59123,40,2.1151,-0.43,-0.21651,0.28312,5,1U1D,2.0,False,2.125,2,False,right,0.0,0.0007222997955977917,2.1216045999899507,2.120882300194353,0.43888809997588396,0.9389795996248722,0.5000914996489882,
41,0.49963,0.1,2,0.34974,0.33309,0.71613,41,2.27331,-0.25,-0.12491,0.37472,5,2U1D,2.0,False,3.637,0,False,right,0.0,0.0007318002171814442,2.2731431000865996,2.272411299869418,0.3398771998472512,0.83969989977777,0.49982269993051887,
42,0.49963,0.1,2,0.21651,0.36639,0.47465,42,1.60714,-0.9,-0.44967,0.04996,5,lapse_rate,1.0,True,5.175,0,False,left,0.0,0.0007106000557541847,1.60439969971776,1.603689099662006,0.21350929979234934,0.7127458001486957,0.49923650035634637,
43,0.49963,1.2,2,0.31643,0.24981,0.59123,43,2.21502,0.11,0.05829,0.55792,5,1D1U,1.0,False,1.907,1,True,left,0.0,0.00034460006281733513,2.2228148002177477,2.2224702001549304,0.3062603999860585,0.8056411002762616,0.4993807002902031,
44,0.49963,0.1,2,0.36639,0.40803,0.75777,44,2.85621,0.646,0.32476,0.82439,5,2D1U,2.0,True,0.304,3,False,right,0.0,0.0007102000527083874,2.8653301000595093,2.864619900006801,0.35707619972527027,0.8571365000680089,0.5000603003427386,
45,0.49963,1.2,2,0.22483,0.25814,0.69948,45,1.94855,-0.466,-0.23316,0.26647,5,1U1D,1.0,True,3.553,3,True,left,0.0,0.0007241000421345234,1.949821200221777,1.9490971001796424,0.2159589002840221,0.7165438998490572,0.5005849995650351,
46,0.49963,0.1,2,0.35807,0.39138,0.48297,46,2.55644,0.646,0.32476,0.82439,5,2D1U,2.0,True,1.589,3,False,right,0.0,0.0005646999925374985,2.5646211998537183,2.564056499861181,0.3482890999875963,0.8472695997916162,0.49898049980401993,
47,0.49963,1.2,2,0.24981,0.34141,0.44134,47,1.81531,-0.43,-0.21651,0.28312,5,1U1D,1.0,True,1.108,4,True,left,0.0,0.0007232003845274448,1.8145974003709853,1.8138741999864578,0.23962000012397766,0.7398491003550589,0.5002291002310812,
48,0.49963,0.1,2,0.29145,0.31643,0.54959,48,1.99851,-0.31,-0.15822,0.34141,5,2U1D,2.0,False,5.755,1,True,right,0.0,0.0007983995601534843,1.9986837999895215,1.997885400429368,0.28245519986376166,0.7815072000958025,0.4990520002320409,
49,0.49963,1.2,2,0.3997,0.34974,0.71613,49,2.5481,0.17,0.08327,0.5829,5,1D1U,1.0,False,2.707,1,False,left,0.0,0.0002578999847173691,2.548576000146568,2.5483181001618505,0.3905294998548925,0.8902238998562098,0.49969440000131726,
50,0.49963,1.2,1,0.23316,0.21651,0.52461,50,2.4232,0.9,0.44967,0.94929,5,lapse_rate,2.0,False,1.421,0,False,right,0.0,0.0007678000256419182,2.4328491003252566,2.4320813002996147,1.699658800382167,2.1988675999455154,0.4992087995633483,
51,0.49963,0.1,1,0.2748,0.40803,0.7994,51,2.59807,0.23,0.11658,0.61621,5,1D1U,2.0,False,0.623,1,False,right,0.0,0.000763199757784605,2.59884350001812,2.598080300260335,1.6823594998568296,2.183108599856496,0.5007490999996662,
52,0.49963,1.2,1,0.41636,0.24981,0.69115,52,2.17338,-0.37,-0.1832,0.31643,5,2U1D,2.0,True,7.896,1,False,right,0.0,0.0007515000179409981,2.1821778998710215,2.1814263998530805,1.4146529999561608,1.91515940008685,0.5005064001306891,
53,0.49963,0.1,1,0.24149,0.34141,0.46632,53,2.35658,0.61,0.3081,0.80773,5,2D1U,2.0,False,3.261,4,True,right,0.0,0.0007482999935746193,2.363586500287056,2.3628382002934813,1.505907699931413,2.0059779002331197,0.5000702003017068,
54,0.49963,0.1,1,0.19985,0.44967,0.54959,54,1.7487,-0.9,-0.44967,0.04996,5,lapse_rate,2.0,True,3.668,0,False,right,0.0,0.001075000036507845,1.7483140002004802,1.7472390001639724,0.790234699845314,1.2896976000629365,0.4994629002176225,
55,0.49963,1.2,1,0.34141,0.39138,0.55792,55,2.09012,-0.394,-0.19985,0.29978,5,1U1D,2.0,True,3.0,4,False,right,0.0,0.0002799998037517071,2.097587099764496,2.0973070999607444,1.1897803000174463,1.6893778997473419,0.4995975997298956,
56,0.49963,0.1,1,0.2748,0.24149,0.62453,56,1.96521,-0.358,-0.17487,0.32476,5,1U1D,1.0,False,4.155,4,False,left,0.0,0.0010361997410655022,1.9733674000017345,1.972331200260669,1.2159867002628744,1.715039700269699,0.49905300000682473,
57,0.49963,1.2,1,0.25814,0.34141,0.80773,57,2.7313,0.646,0.32476,0.82439,5,2D1U,2.0,False,1.579,5,True,right,0.0,0.0007140003144741058,2.731964800041169,2.731250799726695,1.8822703999467194,2.382056400179863,0.49978600023314357,
58,0.49963,0.1,1,0.2748,0.22483,0.47465,58,2.1151,0.29,0.14156,0.64119,5,1D1U,2.0,False,1.829,1,False,right,0.0,0.000757100060582161,2.1158853000961244,2.1151282000355422,1.3821787000633776,1.8821606999263167,0.4999819998629391,
59,0.49963,1.2,1,0.36639,0.29978,0.44134,59,1.92357,-0.37,-0.1832,0.31643,5,2U1D,2.0,True,5.825,1,False,right,0.0,0.0007559997029602528,1.9322502999566495,1.9314943002536893,1.1156769003719091,1.6160550001077354,0.5003780997358263,
60,0.49963,0.1,2,0.20818,0.31643,0.45799,60,2.43152,0.9,0.44967,0.94929,5,lapse_rate,2.0,True,0.278,0,False,right,0.0,0.0007373001426458359,2.440328999888152,2.439591699745506,0.1993284998461604,0.6976908999495208,0.4983624001033604,
61,0.49963,1.2,2,0.2748,0.26647,0.85769,61,2.84788,0.9,0.44967,0.94929,5,lapse_rate,1.0,False,4.553,0,False,left,0.0,0.0002788999117910862,2.8548143999651074,2.8545355000533164,0.2638431000523269,0.764047299977392,0.500204199925065,
62,0.49963,0.1,2,0.29145,0.31643,0.77442,62,2.18171,-0.394,-0.19985,0.29978,5,1U1D,1.0,True,2.928,5,True,left,0.0,0.0003309999592602253,2.1823855000548065,2.1820545000955462,0.2826717998832464,0.7819298999384046,0.49925810005515814,
63,0.49963,1.2,2,0.20818,0.40803,0.6745,63,2.12343,-0.334,-0.16654,0.33309,5,2U1D,2.0,False,2.629,2,True,right,0.0,0.0005222996696829796,2.131616699974984,2.131094400305301,0.198282599914819,0.698592800181359,0.50031020026654,
64,0.49963,0.1,2,0.35807,0.34974,0.65784,64,2.70632,0.682,0.34141,0.84104,5,2D1U,2.0,True,1.604,5,False,right,0.0,0.0007806001231074333,2.716063399799168,2.7152827996760607,0.3488158001564443,0.8505716999061406,0.5017558997496963,
65,0.49963,1.2,2,0.3997,0.34141,0.86602,65,2.78126,0.35,0.17487,0.6745,5,1D1U,1.0,False,3.337,1,False,left,0.0,0.00036090007051825523,2.7836808003485203,2.783319900278002,0.3921709000132978,0.8911061002872884,0.49893520027399063,
66,0.49963,0.1,2,0.41636,0.3997,0.65784,66,2.81457,0.682,0.34141,0.84104,5,2D1U,2.0,True,0.919,5,False,right,0.0,0.0007392000406980515,2.815402999985963,2.814663799945265,0.40737839974462986,0.9068637997843325,0.49948540003970265,
67,0.49963,1.2,2,0.33309,0.36639,0.53294,67,2.68134,0.9,0.44967,0.94929,5,lapse_rate,2.0,True,1.307,0,False,right,0.0,0.0002791997976601124,2.6888394001871347,2.6885602003894746,0.3218510998412967,0.8221165998838842,0.5002655000425875,
68,0.49963,1.2,2,0.20818,0.20818,0.66617,68,1.90692,-0.358,-0.17487,0.32476,5,1U1D,1.0,True,2.451,6,True,left,0.0,0.0006062998436391354,1.9122135997749865,1.9116072999313474,0.20344499964267015,0.7044774000532925,0.5010324004106224,
69,0.49963,0.1,2,0.31643,0.35807,0.44134,69,1.9319,-0.37,-0.1832,0.31643,5,2U1D,2.0,False,6.0,3,True,right,0.0,0.0006598001345992088,1.9394082999788225,1.9387484998442233,0.3064037999138236,0.8060320997610688,0.4996282998472452,
70,0.49963,1.2,1,0.2748,0.33309,0.5829,70,2.39823,0.41,0.20818,0.70781,5,1D1U,1.0,True,1.868,1,False,left,0.0,0.0007117995992302895,2.3990702000446618,2.3983584004454315,1.5578601001761854,2.0576137001626194,0.499753599986434,
71,0.49963,0.1,1,0.3997,0.41636,0.43301,71,2.43985,0.374,0.1832,0.69115,5,1D1U,1.0,True,5.258,2,True,left,0.0,0.0005769999697804451,2.448490099981427,2.4479131000116467,1.5148052000440657,2.0148362000472844,0.5000310000032187,
72,0.49963,1.2,1,0.44134,0.21651,0.47465,72,2.58142,0.9,0.44967,0.94929,5,lapse_rate,2.0,False,4.753,0,False,right,0.0,0.00026190001517534256,2.582472000271082,2.5822101002559066,1.8566060001030564,2.3572625000961125,0.5006564999930561,
73,0.49963,1.2,1,0.31643,0.3081,0.60788,73,2.55643,0.646,0.32476,0.82439,5,2D1U,2.0,False,1.016,6,True,right,0.0,0.000955099705606699,2.5574749000370502,2.5565198003314435,1.7407814003527164,2.241582800168544,0.5008013998158276,
74,0.49963,0.1,1,0.36639,0.32476,0.57457,74,2.06513,-0.406,-0.19985,0.29978,5,2U1D,2.0,True,2.83,3,False,right,0.0,0.0007472997531294823,2.0737904999405146,2.073043200187385,1.232342700008303,1.7325713001191616,0.5002286001108587,
75,0.49963,1.2,1,0.42468,0.31643,0.74111,75,2.32326,-0.322,-0.15822,0.34141,5,1U1D,2.0,True,0.658,6,False,right,0.0,0.0006972001865506172,2.331623900216073,2.330926700029522,1.4979640999808908,1.9978457000106573,0.49988160002976656,
76,0.49963,0.1,1,0.40803,0.23316,0.85769,76,2.66468,0.338,0.16654,0.66617,5,1D1U,1.0,True,1.59,2,False,left,0.0,0.0007162997499108315,2.6734036998823285,2.6726874001324177,1.9241410996764898,2.423706700094044,0.4995656004175544,
77,0.49963,1.2,1,0.28312,0.44134,0.64952,77,2.71465,0.682,0.34141,0.84104,5,2D1U,2.0,False,1.239,7,True,right,0.0,0.0006630998104810715,2.723671500105411,2.7230084002949297,1.7653204998932779,2.2649611001834273,0.49964060029014945,
78,0.49963,0.1,1,0.3081,0.22483,0.85769,78,2.24832,-0.286,-0.14156,0.35807,5,1U1D,2.0,True,0.174,6,False,right,0.0,0.0007712999358773232,2.248549799900502,2.2477784999646246,1.51572829997167,2.0153675000183284,0.4996392000466585,
79,0.49963,0.1,1,0.26647,0.42468,0.50795,79,1.74869,-0.9,-0.44967,0.04996,5,lapse_rate,2.0,True,0.72,0,False,right,0.0,0.0007438999600708485,1.755443800240755,1.7546999002806842,0.813746599946171,1.3140925001353025,0.5003459001891315,
80,0.49963,1.2,2,0.3081,0.21651,0.48297,80,1.80699,-0.406,-0.19985,0.29978,5,2U1D,1.0,True,2.877,3,False,left,0.0,0.0002946997992694378,1.8063257997855544,1.806031099986285,0.2981186001561582,0.7977860998362303,0.49966749968007207,
81,0.49963,0.1,2,0.3081,0.44134,0.69948,81,2.26498,-0.37,-0.1832,0.31643,5,2U1D,2.0,False,0.607,4,True,right,0.0,0.00025609973818063736,2.2735826997086406,2.27332659997046,0.2986845998093486,0.797965900041163,0.4992813002318144,
82,0.49963,1.2,2,0.34141,0.26647,0.84104,82,1.99851,-0.9,-0.44967,0.04996,5,lapse_rate,1.0,True,0.689,0,False,left,0.0,0.0002657999284565449,1.9987665000371635,1.998500700108707,0.3324811002239585,0.8323965002782643,0.4999154000543058,
83,0.49963,1.2,2,0.35807,0.42468,0.40803,83,2.33993,0.302,0.14989,0.64952,5,1D1U,1.0,False,1.2,2,False,left,0.0,0.00026040012016892433,2.347973399795592,2.347712999675423,0.34826499968767166,0.8479327000677586,0.4996677003800869,
84,0.49963,0.1,2,0.44134,0.32476,0.49963,84,2.62305,0.718,0.35807,0.85769,5,2D1U,2.0,True,0.288,7,False,right,0.0,0.0002788999117910862,2.6308105001226068,2.6305316002108157,0.4309787000529468,0.9309898000210524,0.5000110999681056,
85,0.49963,1.2,2,0.29978,0.33309,0.84937,85,2.35659,-0.25,-0.12491,0.37472,5,1U1D,1.0,True,1.704,6,False,left,0.0,0.0002665002830326557,2.363546600099653,2.3632800998166203,0.28825660003349185,0.7886223997920752,0.5003657997585833,
86,0.49963,0.1,2,0.34141,0.42468,0.55792,86,2.68133,0.718,0.35807,0.85769,5,2D1U,2.0,True,0.329,7,False,right,0.0,0.00025849975645542145,2.6818522000685334,2.681593700312078,0.33164950041100383,0.8321748003363609,0.5005252999253571,
87,0.49963,0.1,2,0.3081,0.3997,0.891,87,3.04772,0.9,0.44967,0.94929,5,lapse_rate,2.0,True,0.346,0,False,right,0.0,0.0002564997412264347,3.047353300265968,3.0470968005247414,0.2981023001484573,0.7978226002305746,0.4997203000821173,
88,0.49963,1.2,2,0.33309,0.2748,0.68282,88,2.09012,-0.406,-0.19985,0.29978,5,2U1D,1.0,True,0.79,5,True,left,0.0,0.00027850037440657616,2.097694399766624,2.0974158993922174,0.3224093997851014,0.822272399906069,0.4998630001209676,
89,0.49963,0.1,2,0.19985,0.34141,0.49963,89,1.9319,-0.214,-0.10825,0.39138,5,1U1D,2.0,False,8.084,6,False,right,0.0,0.0002840999513864517,1.9479473996907473,1.9476632997393608,0.18952859984710813,0.6894820998422801,0.499953499995172,
90,0.49963,1.2,1,0.22483,0.21651,0.80773,90,2.41487,0.338,0.16654,0.66617,5,1D1U,2.0,False,0.75,3,True,right,0.0,0.0002687000669538975,2.4136290000751615,2.4133603000082076,1.6880177999846637,2.188122400082648,0.5001046000979841,
91,0.49963,0.1,1,0.3997,0.26647,0.84104,91,2.38156,-0.25,-0.12491,0.37472,5,1U1D,2.0,True,0.113,7,True,right,0.0,0.00032379990443587303,2.3898684000596404,2.3895446001552045,1.6064114002510905,2.1061630002222955,0.499751599971205,
92,0.49963,1.2,1,0.35807,0.44967,0.83271,92,2.83123,0.374,0.1832,0.69115,5,1D1U,2.0,False,0.254,3,False,right,0.0,0.0002673002891242504,2.8329686000943184,2.832701299805194,1.8743259999901056,2.3740129000507295,0.4996869000606239,
93,0.49963,0.1,1,0.31643,0.22483,0.62453,93,2.50646,0.682,0.34141,0.84104,5,2D1U,1.0,True,0.916,8,True,left,0.0,0.00028540007770061493,2.5069804000668228,2.506694999989122,1.7732083997689188,2.273269100114703,0.5000607003457844,
94,0.49963,1.2,1,0.2748,0.19985,0.64119,94,1.91525,-0.406,-0.19985,0.29978,5,2U1D,2.0,True,0.273,5,True,right,0.0,0.00027379998937249184,1.9232079000212252,1.9229341000318527,1.206472400110215,1.7065059002488852,0.5000335001386702,
95,0.49963,0.1,1,0.29145,0.20818,0.42468,95,1.4739,-0.9,-0.44967,0.04996,5,lapse_rate,2.0,True,0.369,0,False,right,0.0,0.00026350002735853195,1.4734217002987862,1.4731582002714276,0.7572823003865778,1.2568035000003874,0.4995211996138096,
96,0.49963,0.1,1,0.38305,0.37472,0.60788,96,2.57309,0.41,0.20818,0.70781,5,1D1U,1.0,True,2.165,3,False,left,0.0,0.0002908003516495228,2.581897099968046,2.5816062996163964,1.6905249003320932,2.190340300090611,0.49981539975851774,
97,0.49963,1.2,1,0.22483,0.3081,0.59955,97,1.68207,-0.9,-0.44967,0.04996,5,lapse_rate,2.0,True,2.8,0,False,right,0.0,0.00026009976863861084,1.6893417001701891,1.6890816004015505,0.8647699998691678,1.3645077999681234,0.49973780009895563,
98,0.49963,1.2,1,0.33309,0.36639,0.70781,98,2.2983,-0.214,-0.10825,0.39138,5,1U1D,1.0,False,6.033,8,True,left,0.0,0.000260000117123127,2.2984294001944363,2.298169400077313,1.4233454000204802,1.9233857998624444,0.5000403998419642,
99,0.49963,0.1,1,0.24149,0.39138,0.74111,99,2.71465,0.682,0.34141,0.84104,5,2D1U,1.0,True,3.255,8,True,left,0.0,0.00026459991931915283,2.715899699833244,2.715635099913925,1.8161478997208178,2.3158497996628284,0.49970189994201064,
100,0.49963,1.2,2,0.39138,0.3081,0.49963,100,2.01517,-0.37,-0.1832,0.31643,5,2U1D,1.0,True,5.271,6,True,left,0.0,0.00026430003345012665,2.0216816999018192,2.021417399868369,0.3794480999931693,0.8795136995613575,0.5000655995681882,
101,0.49963,0.1,2,0.20818,0.28312,0.42468,101,2.10676,0.374,0.1832,0.69115,5,1D1U,2.0,True,2.559,4,True,right,0.0,0.0002512997016310692,2.1071164002642035,2.1068651005625725,0.19873510021716356,0.6988881002180278,0.5001530000008643,
102,0.49963,1.2,2,0.44967,0.23316,0.53294,102,2.03183,-0.37,-0.1832,0.31643,5,2U1D,1.0,True,1.925,6,True,left,0.0,0.00027640024200081825,2.0405449997633696,2.0402685995213687,0.44027809984982014,0.940735099837184,0.5004569999873638,
103,0.49963,0.1,2,0.24981,0.19985,0.80773,103,2.58141,0.646,0.32476,0.82439,5,2D1U,2.0,True,0.316,8,False,right,0.0,0.0002803998067975044,2.590173800010234,2.5898934002034366,0.23889969987794757,0.7392971999943256,0.5003975001163781,
104,0.49963,1.2,2,0.31643,0.29978,0.73279,104,2.22335,-0.25,-0.12491,0.37472,5,1U1D,1.0,True,0.471,9,True,left,0.0,0.0003137001767754555,2.2312587997876108,2.2309450996108353,0.3064035000279546,0.8064748998731375,0.5000713998451829,
105,0.49963,0.1,2,0.43301,0.34974,0.47465,105,1.80699,-0.9,-0.44967,0.04996,5,lapse_rate,1.0,True,0.482,0,False,left,0.0,0.0002706996165215969,1.8056187997572124,1.8053481001406908,0.42225620010867715,0.9227315997704864,0.5004753996618092,
106,0.49963,1.2,2,0.29145,0.29978,0.80773,106,1.94855,-0.9,-0.44967,0.04996,5,lapse_rate,1.0,True,0.36,0,False,left,0.0,0.0002707000821828842,1.9554413999430835,1.9551706998609006,0.2803713995963335,0.7811262998729944,0.5007549002766609,
107,0.49963,0.1,2,0.35807,0.24149,0.87435,107,2.36492,-0.214,-0.10825,0.39138,5,1U1D,2.0,False,0.421,10,True,right,0.0,0.00026430003345012665,2.3655145997181535,2.3652502996847034,0.34858329966664314,0.848359199706465,0.49977590003982186,
108,0.49963,1.2,2,0.24149,0.19985,0.43301,108,1.70707,-0.334,-0.16654,0.33309,5,2U1D,1.0,True,0.758,6,False,left,0.0,0.0002862000837922096,1.7071147998794913,1.7068285997956991,0.23264179984107614,0.7321910997852683,0.49954929994419217,
109,0.49963,0.1,2,0.24981,0.31643,0.66617,109,2.39821,0.338,0.16654,0.66617,5,1D1U,2.0,True,0.742,4,False,right,0.0,0.00026739994063973427,2.397354499902576,2.3970870999619365,0.23940899968147278,0.7394653996452689,0.5000563999637961,
110,0.49963,1.2,1,0.2748,0.20818,0.48297,110,2.28997,0.646,0.32476,0.82439,5,2D1U,2.0,False,0.863,8,False,right,0.0,0.0006920001469552517,2.2974300999194384,2.296738099772483,1.5714893001131713,2.0714952000416815,0.5000058999285102,
111,0.49963,0.1,1,0.44134,0.44967,0.78275,111,3.01443,0.682,0.34141,0.84104,5,2D1U,1.0,True,0.756,9,True,left,0.0,0.0005018999800086021,3.0231328001245856,3.022630900144577,2.0569210001267493,2.557085500098765,0.5001644999720156,
112,0.49963,1.2,1,0.44134,0.39138,0.40803,112,2.1151,-0.25,-0.12491,0.37472,5,1U1D,2.0,True,0.687,11,True,right,0.0,0.0002709999680519104,2.122784399893135,2.122513399925083,1.2147439001128078,1.7146887998096645,0.49994489969685674,
113,0.49963,0.1,1,0.3997,0.21651,0.75777,113,2.2067,-0.334,-0.16654,0.33309,5,2U1D,2.0,True,0.272,6,False,right,0.0,0.0007356000132858753,2.2143065999262035,2.2135709999129176,1.4812533999793231,1.9811280998401344,0.49987469986081123,
114,0.49963,1.2,1,0.32476,0.22483,0.83271,114,2.53145,0.302,0.14989,0.64952,5,1D1U,2.0,False,0.275,4,False,right,0.0,0.0002655000425875187,2.5408308003097773,2.5405653002671897,1.7992282002232969,2.2991165001876652,0.49988829996436834,
115,0.49963,1.2,1,0.40803,0.40803,0.49963,115,2.76461,0.9,0.44967,0.94929,5,lapse_rate,2.0,False,1.962,0,False,right,0.0,0.00036090007051825523,2.765408500097692,2.7650476000271738,1.8490460002794862,2.3488429002463818,0.4997968999668956,
116,0.49963,0.1,1,0.32476,0.3081,0.45799,116,2.43152,0.682,0.34141,0.84104,5,2D1U,1.0,True,0.308,9,True,left,0.0,0.0005948003381490707,2.4390993998385966,2.4385045995004475,1.6134739997796714,2.113586400169879,0.5001124003902078,
117,0.49963,0.1,1,0.32476,0.23316,0.40803,117,2.41487,0.9,0.44967,0.94929,5,lapse_rate,1.0,True,0.306,0,False,left,0.0,0.0002696998417377472,2.4230114999227226,2.422741800080985,1.6730315000750124,2.172747800126672,0.49971630005165935,
118,0.49963,1.2,1,0.23316,0.34141,0.51628,118,2.25665,0.338,0.16654,0.66617,5,1D1U,2.0,False,0.245,5,True,right,0.0,0.00027120020240545273,2.2647644001990557,2.26449319999665,1.4062282000668347,1.9065779000520706,0.5003496999852359,
119,0.49963,0.1,1,0.28312,0.3997,0.62453,119,2.15672,-0.298,-0.14989,0.34974,5,2U1D,2.0,True,0.504,6,False,right,0.0,0.00029190024361014366,2.1651734998449683,2.164881599601358,1.2477346998639405,1.747478799894452,0.4997441000305116,
120,0.49963,1.2,2,0.41636,0.31643,0.57457,120,2.19837,-0.214,-0.10825,0.39138,5,1U1D,1.0,True,1.212,12,True,left,0.0,0.0002811998128890991,2.1989885000512004,2.1987073002383113,0.40708589972928166,0.9076673998497427,0.500581500120461,
121,0.49963,0.1,2,0.34141,0.39138,0.86602,121,2.44818,-0.298,-0.14989,0.34974,5,2U1D,2.0,False,0.329,6,False,right,0.0,0.0003003999590873718,2.447854499798268,2.4475540998391807,0.3310690000653267,0.830916800070554,0.4998478000052273,
122,0.49963,1.2,2,0.29145,0.37472,0.79108,122,2.78127,0.646,0.32476,0.82439,5,2D1U,2.0,True,1.6,10,True,right,0.0,0.00027510011568665504,2.791109399870038,2.7908342997543514,0.2820549998432398,0.7832097001373768,0.501154700294137,
123,0.49963,1.2,2,0.31643,0.26647,0.64952,123,2.68134,0.9,0.44967,0.94929,5,lapse_rate,2.0,True,2.197,0,False,right,0.0,0.0007168999873101711,2.6887972997501493,2.688080399762839,0.3060145997442305,0.8059411998838186,0.4999266001395881,
124,0.49963,0.1,2,0.33309,0.3997,0.54959,124,2.47316,0.374,0.1832,0.69115,5,1D1U,2.0,True,0.445,5,False,right,0.0,0.0007536998018622398,2.472392200026661,2.471638500224799,0.3231957000680268,0.8235222999937832,0.5003265999257565,
125,0.49963,1.2,2,0.29145,0.36639,0.86602,125,2.43152,-0.178,-0.0916,0.40803,5,1U1D,2.0,False,1.924,12,False,right,0.0,0.0007369997911155224,2.440612900070846,2.4398759002797306,0.2825712999328971,0.782024699728936,0.49945339979603887,
126,0.49963,0.1,2,0.28312,0.39138,0.46632,126,2.58974,0.9,0.44967,0.94929,5,lapse_rate,2.0,True,0.334,0,False,right,0.0,0.00028980011120438576,2.5976266004145145,2.59733680030331,0.2728022001683712,0.7731028003618121,0.5003006001934409,
127,0.49963,0.1,2,0.23316,0.36639,0.77442,127,2.53977,0.338,0.16654,0.66617,5,1D1U,2.0,True,0.333,6,True,right,0.0,0.0002770000137388706,2.547178099863231,2.5469010998494923,0.22232249984517694,0.7224454996176064,0.5001229997724295,
128,0.49963,1.2,2,0.34141,0.43301,0.53294,128,2.14008,-0.334,-0.16654,0.33309,5,2U1D,1.0,True,0.316,7,True,left,0.0,0.00026040012016892433,2.1483104997314513,2.1480500996112823,0.33139229984954,0.8314449000172317,0.5000526001676917,
129,0.49963,0.1,2,0.39138,0.37472,0.83271,129,2.92283,0.646,0.32476,0.82439,5,2D1U,2.0,True,0.3,10,True,right,0.0,0.00044899992644786835,2.932890299707651,2.9324412997812033,0.3830772000364959,0.8827007999643683,0.4996235999278724,
130,0.49963,1.2,1,0.35807,0.3081,0.6745,130,2.23168,-0.214,-0.10825,0.39138,5,1U1D,2.0,True,0.925,13,True,right,0.0,0.0002598999999463558,2.2395313000306487,2.2392714000307024,1.4143387000076473,1.9143275003880262,0.49998880038037896,
131,0.49963,0.1,1,0.38305,0.24149,0.77442,131,2.23168,-0.334,-0.16654,0.33309,5,2U1D,2.0,True,0.292,7,True,right,0.0,0.00029040034860372543,2.238195199985057,2.2379047996364534,1.4798590997233987,1.9800230995751917,0.500163999851793,
132,0.49963,1.2,1,0.37472,0.23316,0.88268,132,2.79792,0.61,0.3081,0.80773,5,2D1U,2.0,False,1.006,10,False,right,0.0,0.0002752002328634262,2.798052799887955,2.7977775996550918,2.0564439999870956,2.5555628002621233,0.49911880027502775,
133,0.49963,0.1,1,0.29145,0.25814,0.44967,133,1.54885,-0.9,-0.44967,0.04996,5,lapse_rate,2.0,True,0.291,0,False,right,0.0,0.0003208001144230366,1.5487517002038658,1.5484309000894427,0.782110100146383,1.282944600097835,0.500834499951452,
134,0.49963,0.1,1,0.24149,0.43301,0.80773,134,2.38989,-0.178,-0.0916,0.40803,5,1U1D,1.0,False,1.867,14,True,left,0.0,0.0006490000523626804,2.3976644999347627,2.3970154998824,1.4481457001529634,1.9473347002640367,0.49918900011107326,
135,0.49963,1.2,1,0.32476,0.44134,0.86602,135,2.78127,0.302,0.14989,0.64952,5,1D1U,1.0,True,5.491,6,False,left,0.0,0.0007222997955977917,2.791152400430292,2.790430100634694,1.8322643004357815,2.3322413000278175,0.499976999592036,
136,0.49963,0.1,1,0.41636,0.26647,0.54126,136,2.54811,0.646,0.32476,0.82439,5,2D1U,1.0,True,3.125,11,True,left,0.0,0.0003181002102792263,2.550030100159347,2.549711999949068,1.7748134001158178,2.274175100028515,0.4993616999126971,
137,0.49963,1.2,1,0.31643,0.20818,0.87435,137,2.24833,-0.298,-0.14989,0.34974,5,2U1D,2.0,True,0.225,8,True,right,0.0,0.0007196995429694653,2.2481725001707673,2.247452800627798,1.531859700102359,2.031978700309992,0.5001190002076328,
138,0.49963,0.1,1,0.44134,0.32476,0.80773,138,2.46484,-0.214,-0.10825,0.39138,5,1U1D,1.0,False,14.022,15,True,left,0.0,0.0007400000467896461,2.473645399790257,2.4729053997434676,1.6319589000195265,2.131927900016308,0.49996899999678135,
139,0.49963,1.2,1,0.23316,0.40803,0.53294,139,1.72372,-0.9,-0.44967,0.04996,5,lapse_rate,2.0,True,5.834,0,False,right,0.0,0.00028140004724264145,1.7325563998892903,1.7322749998420477,0.8074080999940634,1.3072709999978542,0.49986290000379086,
140,0.49963,1.2,2,0.3081,0.25814,0.71613,140,2.41486,0.266,0.13323,0.63286,5,1D1U,2.0,True,0.712,6,False,right,0.0,0.0007505998946726322,2.415037900209427,2.4142873003147542,0.2989825000986457,0.7986967000178993,0.4997141999192536,
141,0.49963,0.1,2,0.32476,0.2748,0.83271,141,2.75629,0.646,0.32476,0.82439,5,2D1U,2.0,True,0.451,11,True,right,0.0,0.0007250001654028893,2.7554395999759436,2.7547145998105407,0.32281120028346777,0.8223888999782503,0.4995776996947825,
142,0.49963,1.2,2,0.31643,0.34974,0.49963,142,2.01517,-0.298,-0.14989,0.34974,5,2U1D,1.0,True,0.367,8,True,left,0.0,0.0005260002799332142,2.014562000054866,2.014035999774933,0.30535659985616803,0.8059009998105466,0.5005443999543786,
143,0.49963,0.1,2,0.24981,0.29978,0.69115,143,2.11509,-0.25,-0.12491,0.37472,5,1U1D,2.0,False,0.99,15,False,right,0.0,0.0003833998925983906,2.123627199791372,2.1232437998987734,0.24033599998801947,0.7399169998243451,0.49958099983632565,
144,0,0,0,0,0,0,0,0,0,0,0,0,0,0,0,0,0,0,0,0,0,0,0,0,0,0,0
145,0.49963,1.2,2,0.22483,0.40803,0.62453,145,2.37323,0.23,0.11658,0.61621,5,1D1U,2.0,True,1.982,6,False,right,0.0,0.0007407995872199535,2.3828501999378204,2.3821094003506005,0.21689470019191504,0.7161504998803139,0.49925579968839884,
146,0.49963,0.1,2,0.21651,0.24149,0.46632,146,2.0235,0.194,0.09993,0.59955,5,1D1U,2.0,True,0.459,6,False,right,0.0,0.0002619996666908264,2.0322472997941077,2.031985300127417,0.2071905001066625,0.7072617998346686,0.5000712997280061,
147,0.49963,1.2,2,0.32476,0.25814,0.41636,147,1.85696,-0.286,-0.14156,0.35807,5,1U1D,1.0,True,0.278,15,False,left,0.0,0.0007124999538064003,1.8641780000180006,1.8634655000641942,0.313638299703598,0.8139055999927223,0.5002673002891243,
148,0.49963,0.1,2,0.2748,0.40803,0.4913,148,2.04015,-0.262,-0.13323,0.36639,5,2U1D,2.0,False,0.498,8,False,right,0.0,0.0006748000159859657,2.0490645999088883,2.0483897998929024,0.2652719998732209,0.7657424001954496,0.5004704003222287,
149,0.49963,1.2,2,0.41636,0.19985,0.47465,149,1.94023,-0.298,-0.14989,0.34974,5,2U1D,1.0,True,2.051,9,True,left,0.0,0.0007478999905288219,1.949130400083959,1.9483825000934303,0.4070506999269128,0.9069888996891677,0.49993819976225495,
150,0.49963,0.1,1,0.39138,0.43301,0.82439,150,2.95614,0.61,0.3081,0.80773,5,2D1U,1.0,True,0.411,12,True,left,0.0,0.00027299998328089714,2.9568636999465525,2.9565906999632716,2.014568299986422,2.5148599999956787,0.5002917000092566,
151,0.49963,1.2,1,0.2748,0.33309,0.85769,151,2.33993,-0.25,-0.12491,0.37472,5,1U1D,2.0,True,0.233,16,True,right,0.0,0.0003586001694202423,2.3498970000073314,2.349538399837911,1.4988413001410663,1.9994084001518786,0.5005671000108123,
152,0.49963,0.1,1,0.33309,0.3081,0.66617,152,2.61472,0.61,0.3081,0.80773,5,2D1U,1.0,True,0.724,12,True,left,0.0,0.0003065001219511032,2.6237618001177907,2.6234552999958396,1.7992810998111963,2.299322399776429,0.5000412999652326,
153,0.49963,1.2,1,0.32476,0.43301,0.87435,153,2.71465,0.158,0.07494,0.5829,5,1D1U,2.0,False,0.893,6,False,right,0.0,0.0012259003706276417,2.7154895002022386,2.714263599831611,1.7743871002458036,2.274481900036335,0.5000947997905314,
154,0.49963,0.1,1,0.38305,0.42468,0.69948,154,2.35658,-0.298,-0.14989,0.34974,5,2U1D,2.0,True,0.219,9,True,right,0.0,0.00025569973513484,2.356658900156617,2.3564032004214823,1.423414499964565,1.9229290001094341,0.4995145001448691,
155,0.49963,1.2,1,0.20818,0.38305,0.46632,155,1.92357,-0.262,-0.13323,0.36639,5,2U1D,2.0,True,1.366,10,True,right,0.0,0.00028980011120438576,1.9332018997520208,1.9329120996408165,1.0328421997837722,1.5335480999201536,0.5007059001363814,
156,0.49963,0.1,1,0.25814,0.42468,0.70781,156,2.48981,0.194,0.09993,0.59955,5,1D1U,1.0,True,1.566,7,True,left,0.0,0.0007512001320719719,2.506153500173241,2.505402300041169,1.5562228001654148,2.0561203001998365,0.4998975000344217,
157,0.49963,1.2,1,0.36639,0.34974,0.81606,157,2.4232,-0.214,-0.10825,0.39138,5,1U1D,1.0,False,1.996,16,False,left,0.0,0.0003003999590873718,2.4312301999889314,2.430929800029844,1.5645940997637808,2.06462619965896,0.5000320998951793,
158,0.49963,0.1,1,0.22483,0.29978,0.63286,158,2.02349,-0.262,-0.13323,0.36639,5,2U1D,2.0,True,0.334,10,True,right,0.0,0.0003293999470770359,2.0314225000329316,2.0310931000858545,1.215145600028336,1.7157522002235055,0.5006066001951694,
159,0.49963,1.2,1,0.25814,0.38305,0.64952,159,2.58142,0.574,0.28312,0.79108,5,2D1U,2.0,False,0.25,12,False,right,0.0,0.0007311999797821045,2.5899918996728957,2.5892606996931136,1.6903746998868883,2.1903098998591304,0.4999351999722421,
160,0.49963,0.1,2,0.44134,0.35807,0.77442,160,2.65636,0.158,0.07494,0.5829,5,1D1U,2.0,True,0.264,8,True,right,0.0,0.0004687998443841934,2.6634546001441777,2.6629858002997935,0.43074110010638833,0.9303887002170086,0.49964760011062026,
161,0.49963,1.2,2,0.24149,0.26647,0.69115,161,2.08179,-0.226,-0.11658,0.38305,5,2U1D,2.0,False,0.871,10,False,right,0.0,0.0007525002583861351,2.090562699828297,2.0898101995699108,0.2323611997999251,0.7317677000537515,0.4994065002538264,
162,0.49963,0.1,2,0.32476,0.23316,0.6745,162,2.28997,0.122,0.05829,0.55792,5,1D1U,2.0,True,0.359,8,False,right,0.0,0.0006026998162269592,2.306968200020492,2.306365500204265,0.31626540003344417,0.8158422997221351,0.4995768996886909,
163,0.49963,1.2,2,0.34974,0.34974,0.63286,163,2.6397,0.61,0.3081,0.80773,5,2D1U,2.0,True,0.27,13,True,right,0.0,0.0002802000381052494,2.640181400347501,2.639901200309396,0.33951300010085106,0.8396664001047611,0.5001534000039101,
164,0.49963,0.1,2,0.3081,0.24149,0.64952,164,2.07346,-0.25,-0.12491,0.37472,5,1U1D,2.0,False,0.32,17,True,right,0.0,0.0005558999255299568,2.082355000078678,2.081799100153148,0.2988994000479579,0.7987754000350833,0.4998759999871254,
165,0.49963,1.2,2,0.34974,0.21651,0.53294,165,1.95689,-0.286,-0.14156,0.35807,5,1U1D,1.0,True,0.607,17,False,left,0.0,0.0007272004149854183,1.9566106996499002,1.9558834992349148,0.33968119975179434,0.8403129000216722,0.5006317002698779,
166,0.49963,0.1,2,0.37472,0.21651,0.81606,166,2.44818,0.086,0.04164,0.54126,5,1D1U,2.0,True,0.297,8,False,right,0.0,0.00034660007804632187,2.4492116002365947,2.4488650001585484,0.3660335000604391,0.8653152002952993,0.4992817002348602,
167,0.49963,1.2,2,0.42468,0.23316,0.75777,167,2.72297,0.61,0.3081,0.80773,5,2D1U,2.0,True,0.625,13,True,right,0.0,0.0007470003329217434,2.730773000046611,2.730025999713689,0.4144270997494459,0.9140000999905169,0.499573000241071,
168,0.49963,0.1,2,0.29145,0.36639,0.60788,168,2.55643,0.574,0.28312,0.79108,5,2D1U,2.0,True,0.309,14,True,right,0.0,0.0007372000254690647,2.5569598004221916,2.5562226003967226,0.2822136003524065,0.7827846002765,0.5005709999240935,
169,0.49963,1.2,2,0.44134,0.3081,0.64119,169,2.25665,-0.262,-0.13323,0.36639,5,2U1D,2.0,False,4.248,11,True,right,0.0,0.0007848995737731457,2.256447599735111,2.255662700161338,0.4312917999923229,0.9323149998672307,0.5010231998749077,
170,0.49963,0.1,1,0.20818,0.28312,0.45799,170,1.82364,-0.25,-0.12491,0.37472,5,1U1D,2.0,True,0.604,18,True,right,0.0,0.0007798001170158386,1.8329344000667334,1.8321545999497175,1.032762300223112,1.5323324999772012,0.4995701997540891,
171,0.49963,1.2,1,0.41636,0.41636,0.50795,171,2.36491,0.05,0.02498,0.52461,5,1D1U,2.0,False,1.862,8,False,right,0.0,0.00031059980392456055,2.3657777002081275,2.365467100404203,1.4404277000576258,1.941159900277853,0.5007322002202272,
172,0.49963,0.1,1,0.32476,0.32476,0.52461,172,2.21502,0.086,0.04164,0.54126,5,1D1U,2.0,False,0.261,9,True,right,0.0,0.000725800171494484,2.2161453999578953,2.215419599786401,1.3832382000982761,1.8828902998939157,0.4996520997956395,
173,0.49963,1.2,1,0.22483,0.26647,0.49963,173,2.28164,0.574,0.28312,0.79108,5,2D1U,2.0,False,1.441,14,True,right,0.0,0.000274099875241518,2.289624100085348,2.2893500002101064,1.5071346000768244,2.0060817999765277,0.49894719989970326,
174,0.49963,0.1,1,0.20818,0.34141,0.69948,174,2.09844,-0.298,-0.14989,0.34974,5,2U1D,2.0,True,0.414,11,False,right,0.0,0.0006816000677645206,2.098903199657798,2.0982215995900333,1.2486426997929811,1.7488138996995986,0.5001711999066174,
175,0.49963,1.2,1,0.29145,0.24149,0.64119,175,2.06514,-0.214,-0.10825,0.39138,5,1U1D,2.0,True,1.483,18,False,right,0.0,0.0005985000170767307,2.0733101000078022,2.0727115999907255,1.3150772000662982,1.815292099956423,0.5002148998901248,
176,0.49963,0.1,1,0.44134,0.43301,0.87435,176,3.05606,0.61,0.3081,0.80773,5,2D1U,1.0,True,1.024,15,True,left,0.0,0.00029610004276037216,3.0661184997297823,3.065822399687022,2.1168150999583304,2.616580799687654,0.4997656997293234,
177,0.49963,1.2,1,0.23316,0.24149,0.42468,177,1.95688,0.122,0.05829,0.55792,5,1D1U,2.0,False,0.439,9,False,right,0.0,0.0002794000320136547,1.9568595001474023,1.9565801001153886,1.207432399969548,1.7075077001936734,0.5000753002241254,
178,0.49963,0.1,1,0.33309,0.20818,0.79108,178,2.24001,-0.178,-0.0916,0.40803,5,1U1D,1.0,False,3.599,18,False,left,0.0,0.0007187998853623867,2.2487110001966357,2.2479922003112733,1.5232720002532005,2.0240029003471136,0.5007309000939131,
179,0.49963,1.2,1,0.41636,0.42468,0.53294,179,2.26499,-0.214,-0.10825,0.39138,5,1U1D,2.0,True,0.27,19,True,right,0.0,0.0007818001322448254,2.2744195996783674,2.2736377995461226,1.3331259000115097,1.8317366996780038,0.49861079966649413,
180,0.49963,0.1,2,0.44134,0.31643,0.83271,180,2.43985,-0.298,-0.14989,0.34974,5,2U1D,2.0,False,0.36,11,False,right,0.0,0.0007220995612442493,2.4567931997589767,2.4560711001977324,0.4323211000300944,0.9324268000200391,0.5001056999899447,
181,0.49963,1.2,2,0.33309,0.40803,0.7994,181,2.37324,-0.334,-0.16654,0.33309,5,2U1D,1.0,True,0.937,11,False,left,0.0,0.0007809000089764595,2.3817071998491883,2.380926299840212,0.32328710006549954,0.8241755999624729,0.5008884998969734,
182,0.49963,0.1,2,0.29145,0.24149,0.41636,182,2.03183,0.158,0.07494,0.5829,5,1D1U,2.0,True,3.517,9,False,right,0.0,0.0002778000198304653,2.0477350000292063,2.047457200009376,0.2810659003444016,0.7814720002934337,0.5004060999490321,
183,0.49963,1.2,2,0.29145,0.31643,0.53294,183,2.44818,0.61,0.3081,0.80773,5,2D1U,2.0,True,0.438,15,True,right,0.0,0.000753400381654501,2.4567637997679412,2.4560103993862867,0.28182939998805523,0.7825209996663034,0.5006915996782482,
184,0.49963,0.1,2,0.44967,0.37472,0.74944,184,2.48149,-0.178,-0.0916,0.40803,5,1U1D,2.0,False,0.266,20,True,right,0.0,0.00025400007143616676,2.4893128001131117,2.4890588000416756,0.43944340012967587,0.9391185999847949,0.499675199855119,
185,0.49963,1.2,2,0.23316,0.23316,0.7661,185,2.06514,-0.334,-0.16654,0.33309,5,2U1D,1.0,True,0.336,11,False,left,0.0,0.00048639997839927673,2.0730294003151357,2.0725430003367364,0.22339510032907128,0.722828000318259,0.4994328999891877,
186,0.49963,0.1,2,0.20818,0.25814,0.62453,186,2.38156,0.574,0.28312,0.79108,5,2D1U,2.0,True,0.263,16,True,right,0.0,0.0002911998890340328,2.3815649999305606,2.3812738000415266,0.19841820001602173,0.6982988999225199,0.4998806999064982,
187,0.49963,1.2,2,0.2748,0.35807,0.65784,187,2.34826,0.122,0.05829,0.55792,5,1D1U,2.0,True,2.182,10,True,right,0.0,0.00026560015976428986,2.34742909995839,2.3471634997986257,0.2646427000872791,0.7644078000448644,0.49976509995758533,
188,0.49963,0.1,2,0.21651,0.24981,0.86602,188,2.37323,0.086,0.04164,0.54126,5,1D1U,2.0,True,1.213,10,False,right,0.0,0.00028529996052384377,2.3810479999519885,2.3807626999914646,0.20708579989150167,0.7063605999574065,0.49927480006590486,
189,0.49963,1.2,2,0.44134,0.31643,0.73279,189,2.38157,-0.214,-0.10825,0.39138,5,1U1D,1.0,True,0.542,21,True,left,0.0,0.0002701999619603157,2.389870499726385,2.3896002997644246,0.43121409974992275,0.9317250000312924,0.5005109002813697,
190,0.49963,0.1,1,0.26647,0.36639,0.84937,190,2.3316,-0.298,-0.14989,0.34974,5,2U1D,2.0,True,0.3,12,True,right,0.0,0.0007338998839259148,2.3406984000466764,2.3399645001627505,1.4572088001295924,1.9573129997588694,0.500104199629277,
191,0.49963,1.2,1,0.33309,0.24149,0.64952,191,2.07347,-0.298,-0.14989,0.34974,5,2U1D,2.0,True,0.263,12,True,right,0.0,0.00028270017355680466,2.0813660002313554,2.0810833000577986,1.3231786000542343,1.823457300197333,0.5002787001430988,
192,0.49963,0.1,1,0.29978,0.28312,0.88268,192,2.48982,0.05,0.02498,0.52461,5,1D1U,1.0,True,0.692,10,False,left,0.0,0.0003685997799038887,2.498153899796307,2.497785300016403,1.6982840998098254,2.1982897999696434,0.5000057001598179,
193,0.49963,1.2,1,0.28312,0.31643,0.66617,193,2.17338,-0.178,-0.0916,0.40803,5,1U1D,2.0,True,1.673,22,True,right,0.0,0.00026139989495277405,2.1823868001811206,2.182125400286168,1.3493644003756344,1.8491152999922633,0.4997508996166289,
194,0.49963,0.1,1,0.35807,0.23316,0.86602,194,2.74796,0.574,0.28312,0.79108,5,2D1U,1.0,True,1.0,16,True,left,0.0,0.0004729996435344219,2.7489287997595966,2.748455800116062,2.0065631000325084,2.506734499707818,0.5001713996753097,
195,0.49963,1.2,1,0.38305,0.36639,0.7661,195,2.38156,-0.262,-0.13323,0.36639,5,2U1D,2.0,True,0.584,12,False,right,0.0,0.0007261000573635101,2.3910380001179874,2.390311900060624,1.5075829001143575,2.0078179999254644,0.5002350998111069,
196,0.49963,0.1,1,0.37472,0.22483,0.89933,196,2.43152,-0.142,-0.07494,0.43301,5,1U1D,1.0,False,1.041,22,False,left,0.0,0.0007079001516103745,2.4402041998691857,2.4394962997175753,1.6988090998493135,2.198679099790752,0.49986999994143844,
197,0.49963,1.2,1,0.24149,0.26647,0.82439,197,2.19837,-0.262,-0.13323,0.36639,5,2U1D,2.0,True,0.247,12,False,right,0.0,0.0006299000233411789,2.1981802000664175,2.1975503000430763,1.4235180001705885,1.9232429000549018,0.49972489988431334,
198,0.49963,0.1,1,0.38305,0.2748,0.47465,198,2.39823,0.538,0.26647,0.7661,5,2D1U,1.0,True,0.799,16,False,left,0.0,0.00027090031653642654,2.398796900175512,2.3985259998589754,1.6155725000426173,2.1153231002390385,0.49975060019642115,
199,0.49963,1.2,1,0.36639,0.33309,0.4913,199,2.19836,0.014,0.00833,0.50795,5,1D1U,2.0,False,2.119,10,False,right,0.0,0.0002717999741435051,2.199162899982184,2.1988911000080407,1.3574354001320899,1.8572380002588034,0.4998026001267135,
200,0.49963,0.1,2,0.3081,0.33309,0.52461,200,2.19004,0.05,0.02498,0.52461,5,1D1U,2.0,True,0.3,11,True,right,0.0,0.0002874997444450855,2.1990239997394383,2.198736499994993,0.2986502996645868,0.7988380999304354,0.5001878002658486,
201,0.49963,1.2,2,0.2748,0.43301,0.49963,201,2.21502,0.014,0.00833,0.50795,5,1D1U,2.0,True,0.37,12,True,right,0.0,0.0007326998747885227,2.223639899864793,2.2229071999900043,0.2647834001109004,0.7648399001918733,0.5000565000809729,
202,0.49963,0.1,2,0.3997,0.25814,0.62453,202,2.16505,-0.226,-0.11658,0.38305,5,2U1D,2.0,False,0.326,12,False,right,0.0,0.0007822997868061066,2.1654467000626028,2.1646644002757967,0.39028669986873865,0.8900395999662578,0.49975290009751916,
203,0.49963,1.2,2,0.36639,0.28312,0.44967,203,2.36491,0.538,0.26647,0.7661,5,2D1U,2.0,True,2.72,16,False,right,0.0,0.00027189962565898895,2.3656253004446626,2.3653534008190036,0.3574579004198313,0.8578092004172504,0.5003512999974191,
204,0.49963,0.1,2,0.3081,0.44134,0.891,204,2.88951,0.502,0.24981,0.74944,5,2D1U,2.0,True,0.308,16,False,right,0.0,0.00031089968979358673,2.8892847998067737,2.88897390011698,0.2977735996246338,0.7975345999002457,0.4997610002756119,
205,0.49963,1.2,2,0.36639,0.32476,0.72446,205,2.32327,-0.178,-0.0916,0.40803,5,1U1D,1.0,True,0.484,23,True,left,0.0,0.0007591000758111477,2.3313918001949787,2.3306327001191676,0.35697990003973246,0.8563199997879565,0.499340099748224,
206,0.49963,0.1,2,0.3997,0.23316,0.41636,206,1.91524,-0.262,-0.13323,0.36639,5,2U1D,1.0,True,2.536,13,True,left,0.0,0.00027529988437891006,1.9141399003565311,1.9138646004721522,0.38912100018933415,0.8902175002731383,0.5010965000838041,
207,0.49963,1.2,2,0.29978,0.43301,0.79108,207,2.5148,-0.022,-0.00833,0.4913,5,1D1U,2.0,False,2.496,12,False,right,0.0,0.0007167002186179161,2.5143446000292897,2.513627899810672,0.2976102000102401,0.7973266001790762,0.4997164001688361,
208,0.49963,0.1,2,0.24981,0.21651,0.86602,208,2.26498,-0.142,-0.07494,0.43301,5,1U1D,2.0,False,0.436,24,True,right,0.0,0.0002709999680519104,2.2711024000309408,2.270831400062889,0.2380931000225246,0.7381692002527416,0.500076100230217,
209,0.49963,1.2,2,0.40803,0.42468,0.48297,209,2.56475,0.502,0.24981,0.74944,5,2D1U,2.0,True,0.296,16,False,right,0.0,0.0007349997758865356,2.5645902999676764,2.56385530019179,0.39788280008360744,0.8979712002910674,0.5000884002074599,
210,0.49963,0.1,1,0.20818,0.24149,0.73279,210,2.41488,0.466,0.23316,0.73279,5,2D1U,1.0,True,0.76,16,False,left,0.0,0.00048059970140457153,2.4158878000453115,2.415407200343907,1.6664458997547626,2.166426499839872,0.4999806000851095,
211,0.49963,1.2,1,0.39138,0.34974,0.48297,211,2.45651,0.466,0.23316,0.73279,5,2D1U,1.0,True,0.273,16,False,left,0.0,0.0007138000801205635,2.4561303998343647,2.455416599754244,1.5972827998921275,2.0972657999955118,0.49998300010338426,
212,0.49963,0.1,1,0.24149,0.44134,0.4913,212,2.04015,-0.262,-0.13323,0.36639,5,2U1D,1.0,False,2.266,13,True,left,0.0,0.0007702996954321861,2.0486046001315117,2.0478343004360795,1.089224699884653,1.5897131999954581,0.500488500110805,
213,0.49963,1.2,1,0.32476,0.19985,0.4913,213,1.92357,-0.178,-0.0916,0.40803,5,1U1D,2.0,True,0.689,25,True,right,0.0,0.0002741999924182892,1.9243375002406538,1.9240633002482355,1.2159236003644764,1.7158009000122547,0.4998772996477783,
214,0.49963,0.1,1,0.33309,0.33309,0.69115,214,2.33161,-0.058,-0.02498,0.47465,5,1D1U,1.0,False,0.306,13,True,left,0.0,0.0007877000607550144,2.3321049003861845,2.3313172003254294,1.4903101003728807,1.9915655003860593,0.5012554000131786,
215,0.49963,1.2,1,0.20818,0.25814,0.68282,215,2.09844,-0.094,-0.04996,0.44967,5,1D1U,2.0,True,0.293,13,False,right,0.0,0.0007097003981471062,2.0986696002073586,2.0979598998092115,1.3315000999718904,1.8321991004049778,0.5006990004330873,
216,0.49963,0.1,1,0.37472,0.43301,0.70781,216,2.44818,-0.142,-0.07494,0.43301,5,1U1D,1.0,False,0.528,26,True,left,0.0,0.00027480022981762886,2.4562524002976716,2.455977600067854,1.5059578004293144,2.0058107003569603,0.4998528999276459,
217,0.49963,1.2,1,0.44134,0.29978,0.61621,217,2.33161,-0.058,-0.02498,0.47465,5,1D1U,2.0,True,3.335,14,True,right,0.0,0.00030090007930994034,2.337868500035256,2.337567599955946,1.5215280000120401,2.0211596000008285,0.49963159998878837,
218,0.49963,0.1,1,0.29978,0.44134,0.74944,218,2.70632,0.43,0.21651,0.71613,5,2D1U,1.0,True,1.209,16,False,left,0.0,0.000723700039088726,2.707587900105864,2.706864200066775,1.7569781998172402,2.2568918000906706,0.49991360027343035,
219,0.49963,1.2,1,0.41636,0.42468,0.65784,219,2.34825,-0.298,-0.14989,0.34974,5,2U1D,2.0,True,2.591,13,False,right,0.0,0.0007454999722540379,2.346890500281006,2.346145000308752,1.4136274000629783,1.9142929003573954,0.5006655002944171,
220,0.49963,0.1,2,0.28312,0.2748,0.40803,220,1.87361,-0.178,-0.0916,0.40803,5,1U1D,2.0,False,1.902,27,True,right,0.0,0.0007366002537310123,1.8731731004081666,1.8724365001544356,0.2736219000071287,0.7738567003980279,0.5002348003908992,
221,0.49963,1.2,2,0.40803,0.37472,0.7994,221,2.47316,-0.214,-0.10825,0.39138,5,1U1D,2.0,False,2.158,27,False,right,0.0,0.0007182001136243343,2.480783599894494,2.4800653997808695,0.39737340016290545,0.8971412000246346,0.49976779986172915,
222,0.49963,0.1,2,0.3997,0.44967,0.55792,222,2.25666,-0.298,-0.14989,0.34974,5,2U1D,2.0,False,2.089,13,False,right,0.0,0.00034740008413791656,2.264291299972683,2.2639438998885453,0.38961750036105514,0.8894882001914084,0.49987069983035326,
223,0.49963,1.2,2,0.29145,0.38305,0.68282,223,2.19004,-0.334,-0.16654,0.33309,5,2U1D,2.0,False,2.023,13,False,right,0.0,0.0007646000012755394,2.198682699818164,2.1979180998168886,0.28201500000432134,0.7822308000177145,0.5002158000133932,
224,0.49963,0.1,2,0.41636,0.31643,0.50795,224,2.4565,0.43,0.21651,0.71613,5,2D1U,2.0,True,0.431,16,False,right,0.0,0.00027159973978996277,2.465471100062132,2.465199500322342,0.407466699834913,0.906700300052762,0.499233600217849,
225,0.49963,1.2,2,0.34141,0.34974,0.52461,225,2.20669,-0.022,-0.00833,0.4913,5,1D1U,1.0,True,1.536,14,False,left,0.0,0.00028380006551742554,2.206030699890107,2.2057468998245895,0.33097549993544817,0.8309905002824962,0.500015000347048,
226,0.49963,0.1,2,0.19985,0.36639,0.52461,226,2.28996,0.394,0.19985,0.69948,5,2D1U,2.0,True,0.276,16,False,right,0.0,0.0004724999889731407,2.305980999954045,2.3055084999650717,0.18921810016036034,0.6896963999606669,0.5004782998003066,
227,0.49963,1.2,2,0.34141,0.42468,0.86602,227,2.83122,0.394,0.19985,0.69948,5,2D1U,1.0,False,2.8,16,False,left,0.0,0.0007141996175050735,2.8407104001380503,2.8399962005205452,0.33223830023780465,0.8325165999121964,0.5002782996743917,
228,0.49963,0.1,2,0.20818,0.40803,0.72446,228,2.34825,0.014,0.00833,0.50795,5,1D1U,2.0,True,0.273,14,False,right,0.0,0.0008967998437583447,2.3487642998807132,2.347867500036955,0.1984651000238955,0.6981898001395166,0.4997247001156211,
229,0.49963,1.2,2,0.35807,0.33309,0.54959,229,2.1151,-0.25,-0.12491,0.37472,5,1U1D,2.0,False,3.223,27,False,right,0.0,0.00026819994673132896,2.1229604999534786,2.1226923000067472,0.34871229995042086,0.848087599966675,0.4993753000162542,
230,0.49963,0.1,1,0.34141,0.37472,0.60788,230,2.14007,-0.37,-0.1832,0.31643,5,2U1D,2.0,True,1.109,13,False,right,0.0,0.0002975999377667904,2.1491141002625227,2.148816500324756,1.2571531999856234,1.7569520003162324,0.4997988003306091,
231,0.49963,1.2,1,0.19985,0.26647,0.74111,231,2.06513,-0.286,-0.14156,0.35807,5,1U1D,2.0,True,0.312,27,False,right,0.0,0.0007464000955224037,2.0647958000190556,2.064049399923533,1.289645700249821,1.7893984001129866,0.4997526998631656,
232,0.49963,0.1,1,0.26647,0.24149,0.43301,232,2.15673,0.43,0.21651,0.71613,5,2D1U,1.0,True,2.319,17,True,left,0.0,0.0002820002846419811,2.157531199976802,2.15724919969216,1.4077878999523818,1.90777359995991,0.49998570000752807,
233,0.49963,1.2,1,0.43301,0.3997,0.46632,233,2.11509,-0.37,-0.1832,0.31643,5,2U1D,2.0,True,0.84,13,False,right,0.0,0.0007547996938228607,2.123898799996823,2.123144000303,1.2079321001656353,1.7065902999602258,0.4986581997945905,
234,0.49963,0.1,1,0.3081,0.22483,0.70781,234,2.23167,-0.022,-0.00833,0.4913,5,1D1U,1.0,False,0.432,14,False,left,0.0,0.0004099002107977867,2.23793389974162,2.237523999530822,1.496802399866283,1.9965535998344421,0.4997511999681592,
235,0.49963,1.2,1,0.44967,0.40803,0.52461,235,2.35659,-0.058,-0.02498,0.47465,5,1D1U,1.0,False,0.223,15,True,left,0.0,0.00025690020993351936,2.3563971002586186,2.356140200048685,1.4392468999139965,1.940203399863094,0.5009564999490976,
236,0.49963,0.1,1,0.29145,0.29145,0.45799,236,1.99019,-0.094,-0.04996,0.44967,5,1D1U,1.0,False,0.301,15,False,left,0.0,0.0002941000275313854,2.0055010998621583,2.005206999834627,1.1887376997619867,1.6893118997104466,0.5005741999484599,
237,0.49963,1.2,1,0.3997,0.35807,0.48297,237,2.17338,-0.13,-0.06662,0.43301,5,1D1U,2.0,True,0.313,15,False,right,0.0,0.000727199949324131,2.1828294000588357,2.1821022001095116,1.3068901998922229,1.8067284999415278,0.49983830004930496,
238,0.49963,0.1,1,0.26647,0.37472,0.60788,238,2.46483,0.43,0.21651,0.71613,5,2D1U,1.0,True,4.035,17,True,left,0.0,0.0003039003349840641,2.4643745999783278,2.4640706996433437,1.5803241999819875,2.0802754000760615,0.499951200094074,
239,0.49963,1.2,1,0.36639,0.42468,0.59123,239,2.21502,-0.334,-0.16654,0.33309,5,2U1D,2.0,True,0.718,14,True,right,0.0,0.0003129001706838608,2.2151803001761436,2.21486740000546,1.2817493001930416,1.7816094998270273,0.49986019963398576,
240,0.49963,0.1,2,0.25814,0.44134,0.65784,240,2.23167,-0.25,-0.12491,0.37472,5,1U1D,2.0,False,1.471,28,True,right,0.0,0.0002899002283811569,2.240285700187087,2.239995799958706,0.24872029991820455,0.7493471000343561,0.5006268001161516,
241,0.49963,1.2,2,0.28312,0.32476,0.83271,241,2.29829,-0.286,-0.14156,0.35807,5,1U1D,2.0,False,1.822,29,True,right,0.0,0.000359200406819582,2.3058876995928586,2.305528499186039,0.27269479958340526,0.7724309000186622,0.49973610043525696,
242,0.49963,0.1,2,0.3081,0.40803,0.5829,242,2.14007,-0.322,-0.15822,0.34141,5,1U1D,2.0,False,1.084,29,False,right,0.0,0.00030949991196393967,2.1481753000989556,2.1478658001869917,0.29794499976560473,0.7983911000192165,0.5004461002536118,
243,0.49963,1.2,2,0.42468,0.44134,0.69115,243,2.38989,-0.334,-0.16654,0.33309,5,2U1D,1.0,True,0.5,14,True,left,0.0,0.0010965000838041306,2.3978826999664307,2.3967861998826265,0.4145440002903342,0.914353100117296,0.49980909982696176,
244,0.49963,0.1,2,0.23316,0.26647,0.5829,244,2.03183,-0.094,-0.04996,0.44967,5,1D1U,2.0,False,0.949,16,True,right,0.0,0.0007247999310493469,2.041054000146687,2.0403292002156377,0.22418230026960373,0.7237956002354622,0.49961329996585846,
245,0.49963,1.2,2,0.19985,0.21651,0.77442,245,2.38989,0.394,0.19985,0.69948,5,2D1U,2.0,True,2.884,18,True,right,0.0,0.0006571002304553986,2.3985457001253963,2.397888599894941,0.19087630044668913,0.6902401000261307,0.49936379957944155,
246,0.49963,0.1,2,0.43301,0.29978,0.53294,246,2.1151,-0.298,-0.14989,0.34974,5,2U1D,2.0,False,2.475,14,False,right,0.0,0.0002732998691499233,2.1220213999040425,2.1217481000348926,0.4221320999786258,0.9234716999344528,0.501339599955827,
247,0.49963,1.2,2,0.3081,0.21651,0.85769,247,2.20669,-0.358,-0.17487,0.32476,5,1U1D,1.0,True,0.777,29,False,left,0.0,0.000741099938750267,2.2067357003688812,2.205994600430131,0.2980929003097117,0.7976743001490831,0.49958139983937144,
248,0.49963,0.1,2,0.22483,0.22483,0.6745,248,2.32327,0.394,0.19985,0.69948,5,2D1U,2.0,True,0.3,18,True,right,0.0,0.0006285002455115318,2.332390199881047,2.3317616996355355,0.21586330002173781,0.716119599994272,0.5002562999725342,
249,0.49963,1.2,2,0.3081,0.20818,0.52461,249,1.97353,-0.13,-0.06662,0.43301,5,1D1U,2.0,False,1.547,17,True,right,0.0,0.0007158000953495502,1.9814489004202187,1.9807331003248692,0.29782239999622107,0.7974712001159787,0.49964880011975765,
250,0.49963,0.1,1,0.32476,0.33309,0.64952,250,2.22336,-0.166,-0.08327,0.41636,5,1D1U,2.0,True,0.347,17,False,right,0.0,0.00025090016424655914,2.2322423001751304,2.231991400010884,1.3827736000530422,1.8828129000030458,0.5000392999500036,
251,0.49963,1.2,1,0.19985,0.23316,0.50795,251,2.12341,0.358,0.17487,0.68282,5,2D1U,2.0,False,0.279,18,False,right,0.0,0.0006222003139555454,2.1242631999775767,2.123640999663621,1.3819998996332288,1.882045699749142,0.5000458001159132,
252,0.49963,0.1,1,0.24981,0.22483,0.54959,252,2.22334,0.394,0.19985,0.69948,5,2D1U,1.0,True,0.397,19,True,left,0.0,0.0002690996043384075,2.2310978998430073,2.230828800238669,1.489361499901861,1.988892899826169,0.49953139992430806,
253,0.49963,1.2,1,0.33309,0.19985,0.47465,253,1.84031,-0.334,-0.16654,0.33309,5,2U1D,2.0,True,0.274,15,True,right,0.0,0.0007152999751269817,1.8578997002914548,1.8571844003163278,1.1327121001668274,1.6324399001896381,0.4997278000228107,
254,0.49963,0.1,1,0.21651,0.44134,0.7994,254,2.29829,-0.322,-0.15822,0.34141,5,1U1D,2.0,True,3.479,30,True,right,0.0,0.0002894001081585884,2.297973900102079,2.2976844999939203,1.347856900189072,1.8484017001464963,0.5005447999574244,
255,0.49963,1.2,1,0.2748,0.38305,0.53294,255,2.12343,-0.13,-0.06662,0.43301,5,1D1U,2.0,True,0.253,18,True,right,0.0,0.0007446999661624432,2.1235402999445796,2.122795599978417,1.2317433999851346,1.7318311999551952,0.5000877999700606,
256,0.49963,0.1,1,0.29145,0.38305,0.62453,256,2.24833,-0.094,-0.04996,0.44967,5,1D1U,1.0,False,3.824,18,False,left,0.0,0.0007175998762249947,2.248667299747467,2.247949699871242,1.3571993997320533,1.8575880001299083,0.500388600397855,
257,0.49963,1.2,1,0.22483,0.19985,0.77442,257,2.13174,-0.13,-0.06662,0.43301,5,1D1U,2.0,True,0.189,19,True,right,0.0,0.0007432997226715088,2.1410991000011563,2.140355800278485,1.4242369001731277,1.9241531998850405,0.49991629971191287,
258,0.49963,0.1,1,0.35807,0.42468,0.59955,258,2.21502,-0.334,-0.16654,0.33309,5,2U1D,2.0,True,0.212,15,True,right,0.0,0.00027449987828731537,2.2150695002637804,2.214795000385493,1.2817300003953278,1.7820113003253937,0.5002812999300659,
259,0.49963,1.2,1,0.34974,0.3081,0.7661,259,2.62305,0.394,0.19985,0.69948,5,2D1U,2.0,False,0.203,19,True,right,0.0,0.000523899681866169,2.6225338000804186,2.6220099003985524,1.805598100181669,2.3055289001204073,0.49993079993873835,
260,0.49963,0.1,2,0.34974,0.40803,0.50795,260,2.12342,-0.286,-0.14156,0.35807,5,1U1D,2.0,False,0.767,30,False,right,0.0,0.00042900023981928825,2.1321505000814795,2.1317214998416603,0.34003800014033914,0.8398178000934422,0.49977979995310307,
261,0.49963,1.2,2,0.37472,0.40803,0.44134,261,2.43985,0.43,0.21651,0.71613,5,2D1U,2.0,True,2.267,19,False,right,0.0,0.00029750028625130653,2.456344800069928,2.456047299783677,0.36478740023449063,0.8648549998179078,0.5000675995834172,
262,0.49963,0.1,2,0.22483,0.19985,0.57457,262,1.94855,-0.094,-0.04996,0.44967,5,1D1U,2.0,False,3.605,20,True,right,0.0,0.000286799855530262,1.9404561999253929,1.9401694000698626,0.2157463002949953,0.7161338003352284,0.5003875000402331,
263,0.49963,1.2,2,0.20818,0.21651,0.53294,263,1.79867,-0.322,-0.15822,0.34141,5,1U1D,1.0,True,0.515,31,True,left,0.0,0.00025749998167157173,1.7986742001958191,1.7984167002141476,0.19871339993551373,0.698431400116533,0.4997180001810193,
264,0.49963,0.1,2,0.39138,0.44134,0.48297,264,2.16506,-0.298,-0.14989,0.34974,5,2U1D,2.0,False,2.265,16,True,right,0.0,0.0002623000182211399,2.173261999618262,2.172999699600041,0.38201789977028966,0.882027099840343,0.5000092000700533,
265,0.49963,1.2,2,0.24981,0.22483,0.61621,265,2.30661,0.43,0.21651,0.71613,5,2D1U,2.0,True,2.535,19,False,right,0.0,0.0008490001782774925,2.3136472003534436,2.312798200175166,0.24637990025803447,0.7469427003525198,0.5005628000944853,
266,0.49963,0.1,2,0.34141,0.29145,0.47465,266,2.30662,0.394,0.19985,0.69948,5,2D1U,2.0,True,0.478,20,True,right,0.0,0.0007322998717427254,2.315368799958378,2.3146365000866354,0.331923000048846,0.8319656001403928,0.5000426000915468,
267,0.49963,1.2,2,0.38305,0.35807,0.7661,267,2.36492,-0.286,-0.14156,0.35807,5,1U1D,1.0,True,0.548,32,True,left,0.0,0.00026669958606362343,2.3736111000180244,2.373344400431961,0.3732193000614643,0.8734448002651334,0.5002255002036691,
268,0.49963,0.1,2,0.2748,0.43301,0.75777,268,2.33993,-0.25,-0.12491,0.37472,5,1U1D,2.0,False,0.298,32,False,right,0.0,0.000811300240457058,2.349188500083983,2.348377199843526,0.2652900000102818,0.7655393998138607,0.5002493998035789,
269,0.49963,1.2,2,0.19985,0.26647,0.61621,269,2.01517,-0.13,-0.06662,0.43301,5,1D1U,1.0,True,3.319,21,True,left,0.0,0.0005629998631775379,2.0143830999732018,2.013820100110024,0.18973470013588667,0.6893699001520872,0.49963520001620054,
270,0.49963,0.1,1,0.22483,0.3997,0.65784,270,2.11509,-0.334,-0.16654,0.33309,5,2U1D,2.0,True,0.236,17,True,right,0.0,0.0007144003175199032,2.121488200034946,2.1207737997174263,1.2056402997113764,1.7050883998163044,0.499448100104928,
271,0.49963,1.2,1,0.22483,0.41636,0.74111,271,2.3316,-0.094,-0.04996,0.44967,5,1D1U,2.0,True,0.237,22,True,right,0.0,0.0002691997215151787,2.339551900047809,2.3392827003262937,1.4061332000419497,1.906046099960804,0.49991289991885424,
272,0.49963,0.1,1,0.26647,0.29978,0.74111,272,2.16506,-0.286,-0.14156,0.35807,5,1U1D,2.0,True,0.602,33,True,right,0.0,0.00028040027245879173,2.1737325000576675,2.1734520997852087,1.356952799949795,1.85669509973377,0.4997422997839749,
273,0.49963,1.2,1,0.3997,0.19985,0.78275,273,2.25665,-0.25,-0.12491,0.37472,5,1U1D,2.0,True,2.085,34,True,right,0.0,0.0002946997992694378,2.256029899697751,2.2557351998984814,1.5480978996492922,2.0480020996183157,0.49990419996902347,
274,0.49963,0.1,1,0.3997,0.25814,0.69115,274,2.18171,-0.334,-0.16654,0.33309,5,2U1D,2.0,True,0.313,17,True,right,0.0,0.0007374999113380909,2.1906457003206015,2.1899082004092634,1.4155275002121925,1.9154730001464486,0.4999454999342561,
275,0.49963,1.2,1,0.43301,0.32476,0.4913,275,2.44818,0.394,0.19985,0.69948,5,2D1U,2.0,False,0.365,20,True,right,0.0,0.0003306996077299118,2.4487262000329792,2.4483955004252493,1.6157513000071049,2.11564869992435,0.4998973999172449,
276,0.49963,0.1,1,0.44134,0.41636,0.68282,276,2.43153,-0.214,-0.10825,0.39138,5,1U1D,2.0,True,0.255,34,False,right,0.0,0.0002973000518977642,2.4391512000001967,2.438853899948299,1.5064655998721719,2.0069409999996424,0.5004754001274705,
277,0.49963,1.2,1,0.44134,0.31643,0.5829,277,2.24833,-0.178,-0.0916,0.40803,5,1U1D,2.0,True,1.667,34,False,right,0.0,0.0007130000740289688,2.2481300001963973,2.2474170001223683,1.423016999848187,1.9233984001912177,0.5003814003430307,
278,0.49963,0.1,1,0.24981,0.36639,0.68282,278,2.14839,-0.298,-0.14989,0.34974,5,2U1D,1.0,False,1.181,18,True,left,0.0,0.0007267002947628498,2.148542799986899,2.147816099692136,1.2731940001249313,1.7732493998482823,0.500055399723351,
279,0.49963,1.2,1,0.29978,0.3997,0.62453,279,2.29829,-0.058,-0.02498,0.47465,5,1D1U,2.0,True,0.238,22,False,right,0.0,0.00027449987828731537,2.299707599915564,2.2994331000372767,1.391506599728018,1.8906493997201324,0.4991427999921143,
280,0.49963,0.1,2,0.31643,0.25814,0.61621,280,2.40654,0.43,0.21651,0.71613,5,2D1U,2.0,True,0.279,21,True,right,0.0,0.00073970016092062,2.4065356999635696,2.405795999802649,0.307118599768728,0.8071420998312533,0.5000235000625253,
281,0.49963,1.2,2,0.37472,0.29145,0.64119,281,2.24,-0.142,-0.07494,0.43301,5,1U1D,1.0,True,3.507,34,False,left,0.0,0.0003983001224696636,2.2486953996121883,2.2482970994897187,0.3654915997758508,0.864965199958533,0.4994736001826823,
282,0.49963,0.1,2,0.35807,0.44134,0.46632,282,2.09845,-0.334,-0.16654,0.33309,5,2U1D,2.0,False,3.438,19,True,right,0.0,0.0007437001913785934,2.098917900118977,2.0981741999275982,0.34930670028552413,0.8488953001797199,0.4995885998941958,
283,0.49963,1.2,2,0.3997,0.32476,0.75777,283,2.29829,-0.37,-0.1832,0.31643,5,2U1D,1.0,True,0.957,19,False,left,0.0,0.0007131998427212238,2.2988800001330674,2.298166800290346,0.39082169998437166,0.8912097001448274,0.5003880001604557,
284,0.49963,0.1,2,0.26647,0.42468,0.73279,284,2.41487,-0.022,-0.00833,0.4913,5,1D1U,2.0,False,2.209,22,False,right,0.0,0.00025589996948838234,2.4154195999726653,2.415163700003177,0.2572022997774184,0.7567137000150979,0.4995114002376795,
285,0.49963,1.2,2,0.29145,0.40803,0.41636,285,2.3316,0.43,0.21651,0.71613,5,2D1U,2.0,True,1.406,21,True,right,0.0,0.00027769990265369415,2.339006199967116,2.3387285000644624,0.280661600176245,0.7810704000294209,0.5004087998531759,
286,0.49963,0.1,2,0.41636,0.29145,0.61621,286,2.14008,-0.37,-0.1832,0.31643,5,2U1D,1.0,True,0.741,19,False,left,0.0,0.0011805999092757702,2.14893089979887,2.1477502998895943,0.4072320000268519,0.90732860006392,0.5000966000370681,
287,0.49963,1.2,2,0.38305,0.26647,0.64119,287,2.26499,-0.058,-0.02498,0.47465,5,1D1U,2.0,False,2.381,23,True,right,0.0,0.0006856000982224941,2.273146199993789,2.2724605998955667,0.3731396999210119,0.8734204997308552,0.5002807998098433,
288,0.49963,0.1,2,0.34974,0.21651,0.69948,288,2.21503,-0.106,-0.04996,0.44967,5,1U1D,2.0,False,3.183,34,False,right,0.0,0.000318700447678566,2.215497899800539,2.2151791993528605,0.34056290006265044,0.8405464999377728,0.4999835998751223,
289,0.49963,1.2,2,0.2748,0.35807,0.59955,289,2.43153,0.394,0.19985,0.69948,5,2D1U,1.0,False,2.642,22,True,left,0.0,0.0002720998600125313,2.4407116998918355,2.440439600031823,0.2651054998859763,0.764919700101018,0.49981420021504164,
290,0.49963,0.1,1,0.33309,0.38305,0.69948,290,2.63138,0.43,0.21651,0.71613,5,2D1U,1.0,True,0.556,23,True,left,0.0,0.0004916000179946423,2.6411212999373674,2.640629699919373,1.7417244003154337,2.2412236002273858,0.499499199911952,
291,0.49963,1.2,1,0.29978,0.31643,0.6745,291,2.50647,0.43,0.21651,0.71613,5,2D1U,2.0,False,0.75,23,True,right,0.0,0.0007499000057578087,2.506972000002861,2.506222099997103,1.6820658999495208,2.1820494001731277,0.4999835002236068,
292,0.49963,0.1,1,0.43301,0.34141,0.78275,292,2.38989,-0.334,-0.16654,0.33309,5,2U1D,2.0,True,1.367,20,True,right,0.0,0.00028169993311166763,2.399673500098288,2.3993918001651764,1.5409189001657069,2.0402316004037857,0.49931270023807883,
293,0.49963,1.2,1,0.29978,0.26647,0.48297,293,1.98186,-0.142,-0.07494,0.43301,5,1U1D,2.0,True,2.308,35,True,right,0.0,0.0002879002131521702,1.9904160001315176,1.9901280999183655,1.207160800229758,1.7073665000498295,0.5002056998200715,
294,0.49963,0.1,1,0.38305,0.34974,0.41636,294,2.09845,-0.094,-0.04996,0.44967,5,1D1U,2.0,True,0.205,23,False,right,0.0,0.0003431001678109169,2.106308300048113,2.105965199880302,1.2396380002610385,1.7402802002616227,0.5006422000005841,
295,0.49963,1.2,1,0.28312,0.42468,0.48297,295,2.16505,-0.058,-0.02498,0.47465,5,1D1U,2.0,True,0.255,24,True,right,0.0,0.000736200250685215,2.1743223001249135,2.1735860998742282,1.2326430999673903,1.7331624003127217,0.5005193003453314,
296,0.49963,0.1,1,0.2748,0.3997,0.89933,296,2.80625,0.466,0.23316,0.73279,5,2D1U,1.0,True,0.312,23,False,left,0.0,0.0002586003392934799,2.8056904999539256,2.805431899614632,1.898085200227797,2.3979043001309037,0.4998190999031067,
297,0.49963,1.2,1,0.40803,0.38305,0.66617,297,2.40655,-0.106,-0.04996,0.44967,5,1U1D,1.0,False,2.153,36,True,left,0.0,0.0007154000923037529,2.406819500029087,2.4061040999367833,1.5153394001536071,2.015533300116658,0.5001938999630511,
298,0.49963,0.1,1,0.32476,0.26647,0.49963,298,1.92358,-0.334,-0.16654,0.33309,5,2U1D,2.0,True,0.302,20,True,right,0.0,0.00034689996391534805,1.9229582999832928,1.9226114000193775,1.1477632001042366,1.6475975001230836,0.499834300018847,
299,0.49963,1.2,1,0.23316,0.36639,0.84937,299,2.68134,0.466,0.23316,0.73279,5,2D1U,1.0,True,49.499,23,False,left,0.0,0.0007576001808047295,2.689939099829644,2.6891814996488392,1.8066296996548772,2.306911399587989,0.5002816999331117,
300,0.49963,0.1,2,0.3997,0.23316,0.60788,300,2.4565,0.43,0.21651,0.71613,5,2D1U,2.0,True,2.991,24,True,right,0.0,0.0003249002620577812,2.456593600101769,2.456268699839711,0.3893649000674486,0.8898021001368761,0.5004372000694275,
301,0.49963,1.2,2,0.24981,0.24981,0.82439,301,2.17338,-0.298,-0.14989,0.34974,5,2U1D,2.0,False,4.801,20,False,right,0.0,0.00025690020993351936,2.1733436002396047,2.173086700029671,0.2390356999821961,0.7391987000592053,0.5001630000770092,
302,0.49963,0.1,2,0.35807,0.31643,0.3997,302,1.90692,-0.334,-0.16654,0.33309,5,2U1D,1.0,True,5.759,21,True,left,0.0,0.0002660001628100872,1.905724999960512,1.9054589997977018,0.34752759989351034,0.8473796998150647,0.4998520999215543,
303,0.49963,1.2,2,0.42468,0.25814,0.64119,303,2.15673,-0.334,-0.16654,0.33309,5,2U1D,2.0,False,2.05,21,True,right,0.0,0.00027110008522868156,2.1561734001152217,2.155902300029993,0.4143740003928542,0.9144056001678109,0.5000315997749567,
304,0.49963,0.1,2,0.19985,0.36639,0.88268,304,2.38156,-0.142,-0.07494,0.43301,5,1U1D,2.0,False,2.525,37,True,right,0.0,0.0007238998077809811,2.390006999950856,2.389283100143075,0.1902395999059081,0.6901262998580933,0.49988669995218515,
305,0.49963,1.2,2,0.44134,0.38305,0.3997,305,2.43985,0.43,0.21651,0.71613,5,2D1U,1.0,False,0.933,24,True,left,0.0,0.0005896999500691891,2.4486850001849234,2.448095300234854,0.43200149992480874,0.9317367998883128,0.4997352999635041,
306,0.49963,0.1,2,0.42468,0.2748,0.74111,306,2.25665,-0.37,-0.1832,0.31643,5,2U1D,1.0,True,3.189,21,False,left,0.0,0.0002899002283811569,2.2567306999117136,2.2564407996833324,0.41489179991185665,0.9151304997503757,0.5002386998385191,
307,0.49963,1.2,2,0.39138,0.34141,0.52461,307,2.16506,-0.178,-0.0916,0.40803,5,1U1D,1.0,True,2.193,37,False,left,0.0,0.0007285000756382942,2.1653407998383045,2.1646122997626662,0.3821062999777496,0.8818573001772165,0.49975100019946694,
308,0.49963,0.1,2,0.37472,0.3997,0.56624,308,2.2733,-0.142,-0.07494,0.43301,5,1U1D,2.0,False,0.295,38,True,right,0.0,0.0003210003487765789,2.2728665000759065,2.27254549972713,0.36448509991168976,0.8644524002447724,0.4999673003330827,
