,standardDur,audNoise,order,preDur,postDur,isiDur,trial_num,totalDur,delta_dur_percents,deltaDurS,testDurS,intensities,current_stair,responses,is_correct,response_rts,stair_num_reversal,stair_is_reversal,response_keys,conflictDur,recordedOnsetAudioTest,recordedOffsetAudioTest,recordedDurAudioTest,recordedOnsetVisualStandard,recordedOffsetVisualStandard,recordedDurVisualStandard,modalityPostCueTest
0,0.50021,1.2,2,0.27512,0.20842,0.43351,0,2.24261,0.65,0.32514,0.82535,5,1D1U,2.0,True,7.156,0,False,right,0.0,0.0006650998257100582,2.256268700119108,2.255603600293398,0.2636342002078891,0.7637110999785364,0.5000768997706473,
1,0.50021,0.1,2,0.38349,0.26678,0.61692,1,1.94247,-0.65,-0.32514,0.17507,5,1U1D,1.0,True,1.741,0,False,left,0.0,0.00029959995299577713,1.9563631997443736,1.9560635997913778,0.37288839975371957,0.8729797997511923,0.5000913999974728,
2,0.50021,0.1,2,0.21676,0.3168,0.44185,2,2.42602,0.9,0.45019,0.9504,5,lapse_rate,2.0,True,1.423,0,False,right,0.0,0.0004420001059770584,2.4319954002276063,2.4315534001216292,0.20709449984133244,0.7067161998711526,0.4996217000298202,
3,0.50021,1.2,2,0.4085,0.44185,0.41684,3,2.54272,0.55,0.27512,0.77532,5,1D1U,1.0,False,16.483,0,False,left,0.0,0.00026399968191981316,2.548347800038755,2.548083800356835,0.39851910015568137,0.8977596000768244,0.49924049992114305,
4,0.50021,0.1,2,0.41684,0.27512,0.65861,4,2.02585,-0.65,-0.32514,0.17507,5,2U1D,1.0,True,1.45,0,False,left,0.0,0.0002877996303141117,2.023752899840474,2.02346510021016,0.407918700017035,0.9079872998408973,0.5000685998238623,
5,0.50021,1.2,2,0.33347,0.32514,0.62526,5,2.60943,0.65,0.32514,0.82535,5,2D1U,1.0,False,33.971,0,False,left,0.0,0.000788599718362093,2.607752799987793,2.606964200269431,0.324740800075233,0.8242758000269532,0.49953499995172024,
6,0.50021,0.1,2,0.3168,0.33347,0.67528,6,2.63443,0.61,0.30846,0.80867,5,1D1U,2.0,True,0.942,1,True,right,0.0,0.0004690997302532196,2.633488900028169,2.633019800297916,0.3081844002008438,0.8084642002359033,0.5002798000350595,
7,0.50021,1.2,2,0.24177,0.2501,0.51688,7,1.73405,-0.55,-0.27512,0.22509,5,1U1D,1.0,True,7.091,0,False,left,0.0,0.0008049001917243004,1.7400334998965263,1.739228599704802,0.23185090022161603,0.7314263000153005,0.4995753997936845,
8,0.50021,0.1,2,0.39183,0.28345,0.792,8,2.84286,0.75,0.37516,0.87537,5,2D1U,2.0,True,0.204,0,False,right,0.0,0.0002746996469795704,2.8498319000937045,2.849557200446725,0.3827960998751223,0.883061199914664,0.5002651000395417,
9,0.50021,1.2,2,0.35848,0.36682,0.68362,9,2.0842,-0.65,-0.32514,0.17507,5,2U1D,1.0,True,2.072,0,False,left,0.0,0.0007675997912883759,2.090659399982542,2.0898918001912534,0.34898679982870817,0.848819499835372,0.4998327000066638,
10,0.50021,0.1,1,0.40017,0.42518,0.62526,10,2.90122,0.9,0.45019,0.9504,5,lapse_rate,1.0,True,0.699,0,False,left,0.0,0.0007478999905288219,2.907540800049901,2.906792900059372,1.966260100249201,2.4657626999542117,0.49950259970501065,
11,0.50021,1.2,1,0.26678,0.39183,0.41684,11,2.52606,0.9,0.45019,0.9504,5,lapse_rate,1.0,True,11.747,0,False,left,0.0,0.0004230998456478119,2.5324614997953176,2.53203839994967,1.6242879000492394,2.123948600143194,0.4996607000939548,
12,0.50021,0.1,1,0.38349,0.30013,0.52522,12,2.58442,0.75,0.37516,0.87537,5,2D1U,1.0,True,3.991,0,False,left,0.0,0.0005815001204609871,2.5982849998399615,2.5977034997195005,1.773237300105393,2.2738346001133323,0.5005973000079393,
13,0.50021,1.2,1,0.4085,0.27512,0.46686,13,1.87578,-0.55,-0.27512,0.22509,5,2U1D,1.0,False,6.982,0,False,left,0.0,0.0007394999265670776,1.8823251002468169,1.8815856003202498,1.0903076999820769,1.5901405001059175,0.49983280012384057,
14,0.50021,0.1,1,0.30846,0.32514,0.75865,14,2.16758,-0.45,-0.22509,0.27512,5,1U1D,2.0,True,0.875,0,False,right,0.0,0.0007549002766609192,2.1649790997616947,2.1642241994850338,1.3317370996810496,1.831836299970746,0.5000992002896965,
15,0.50021,1.2,1,0.33347,0.21676,0.70863,15,2.54273,0.574,0.28345,0.78366,5,1D1U,2.0,False,11.325,2,True,right,0.0,0.0007643001154065132,2.556971399579197,2.5562070994637907,1.8150937999598682,2.314868299756199,0.49977449979633093,
16,0.50021,0.1,1,0.30013,0.40017,0.55023,16,1.80076,-0.9,-0.45019,0.05002,5,lapse_rate,2.0,True,1.407,0,False,right,0.0,0.0007564001716673374,1.8072890001349151,1.8065325999632478,0.8908285000361502,1.3903516000136733,0.4995230999775231,
17,0.50021,0.1,1,0.23343,0.43351,0.85869,17,2.21759,-0.61,-0.30846,0.19175,5,2U1D,2.0,True,0.435,1,True,right,0.0,0.000767899677157402,2.21549589978531,2.2147280001081526,1.27380339987576,1.7738951998762786,0.5000918000005186,
18,0.50021,1.2,1,0.37516,0.30846,0.792,18,2.30097,-0.35,-0.17507,0.32514,5,1U1D,1.0,False,17.833,0,False,left,0.0,0.0008077002130448818,2.315180000383407,2.314372300170362,1.4811045001260936,1.98201460018754,0.5009101000614464,
19,0.50021,0.1,1,0.4085,0.20008,0.66695,19,2.61776,0.69,0.34181,0.84202,5,2D1U,1.0,True,1.563,1,True,left,0.0,0.0008279997855424881,2.6231871000491083,2.622359100263566,1.9070262000896037,2.407114800065756,0.5000885999761522,
20,0.50021,1.2,2,0.23343,0.29179,0.54189,20,2.37599,0.61,0.30846,0.80867,5,1D1U,2.0,True,1.626,3,True,right,0.0,0.0008092001080513,2.38091789977625,2.380108699668199,0.22358939982950687,0.7231137999333441,0.49952440010383725,
21,0.50021,0.1,2,0.28345,0.23343,0.51688,21,1.82576,-0.41,-0.20842,0.29179,5,1U1D,1.0,True,2.259,1,True,left,0.0,0.0007437001913785934,1.8322240998968482,1.8314803997054696,0.2744024000130594,0.7736081997863948,0.49920579977333546,
22,0.50021,1.2,2,0.44185,0.32514,0.8837,22,2.20092,-0.9,-0.45019,0.05002,5,lapse_rate,1.0,True,4.838,0,False,left,0.0,0.00035750027745962143,2.2072374001145363,2.2068798998370767,0.43170200008898973,0.9318718002177775,0.5001698001287878,
23,0.50021,1.2,2,0.21676,0.39183,0.44185,23,2.39267,0.69,0.34181,0.84202,5,2D1U,1.0,False,8.425,1,True,left,0.0,0.00035479990765452385,2.4053584998473525,2.405003699939698,0.2053864998742938,0.7050035996362567,0.4996170997619629,
24,0.50021,0.1,2,0.24177,0.3168,0.85869,24,2.70113,0.574,0.28345,0.78366,5,1D1U,2.0,True,0.483,4,True,right,0.0,0.00026140036061406136,2.706648000050336,2.706386599689722,0.2327319998294115,0.731827599927783,0.4990956000983715,
25,0.50021,1.2,2,0.34181,0.4085,0.64194,25,2.08421,-0.61,-0.30846,0.19175,5,2U1D,1.0,True,2.471,1,True,left,0.0,0.0006471001543104649,2.090752199757844,2.0901050996035337,0.3327625999227166,0.832120199687779,0.49935759976506233,
26,0.50021,0.1,2,0.35848,0.38349,0.68362,26,2.2426,-0.374,-0.18341,0.3168,5,1U1D,2.0,False,1.666,2,True,right,0.0,0.0007599997334182262,2.2480406002141535,2.2472806004807353,0.34809490013867617,0.8483350002206862,0.50024010008201,
27,0.50021,0.1,2,0.24177,0.41684,0.83368,27,2.9429,0.9,0.45019,0.9504,5,lapse_rate,2.0,True,0.715,0,False,right,0.0,0.00031219981610774994,2.9482645001262426,2.947952300310135,0.23202290013432503,0.7317248997278512,0.4997019995935261,
28,0.50021,1.2,2,0.21676,0.37516,0.64194,28,2.50106,0.538,0.26678,0.76699,5,1D1U,1.0,False,4.384,4,False,left,0.0,0.0002707000821828842,2.5069269998930395,2.5066562998108566,0.20672630006447434,0.7071630000136793,0.5004366999492049,
29,0.50021,0.1,2,0.45019,0.41684,0.83368,29,3.06795,0.726,0.36682,0.86703,5,2D1U,2.0,True,1.428,2,True,right,0.0,0.00028140004724264145,3.0735321999527514,3.0732507999055088,0.44123189989477396,0.9405388999730349,0.4993070000782609,
30,0.50021,1.2,1,0.39183,0.22509,0.55857,30,1.89246,-0.574,-0.28345,0.21676,5,2U1D,2.0,True,1.55,2,True,right,0.0,0.0002836999483406544,1.9063731003552675,1.9060894004069269,1.1562033002264798,1.6560256001539528,0.49982229992747307,
31,0.50021,1.2,1,0.33347,0.36682,0.49187,31,2.64277,0.9,0.45019,0.9504,5,lapse_rate,2.0,False,9.796,0,False,right,0.0,0.0006940001621842384,2.6484703002497554,2.647776300087571,1.7644898002035916,2.264580199960619,0.5000903997570276,
