Unnamed: 0,standardDur,audNoise,order,preDur,postDur,isiDur,trial_num,totalDur,delta_dur_percents,deltaDurS,testDurS,intensities,current_stair,responses,is_correct,response_rts,stair_num_reversal,stair_is_reversal,response_keys,conflictDur,recordedOnsetVisualTest,recordedOffsetVisualTest,recordedDurVisualTest,recordedOnsetVisualStandard,recordedOffsetVisualStandard,recordedDurVisualStandard,modalityCue,VisualPSE,participantID,Column1
0.0,0.5004,1.2,2.0,0.43368,0.38364,0.80064,0.0,2.14338,-0.95,-0.47538,0.02502,5.0,2D1U,1.0,True,0.586,0.0,False,left,0.1668,1.8166,1.975,0.1584,0.2837,1.0825,0.7988,A,0.135,as,
1.0,0.5004,1.2,1.0,0.35862,0.2085,0.42534,1.0,1.51788,-0.95,-0.47538,0.02502,5.0,1D2U,2.0,True,0.442,0.0,False,right,-0.0834,0.2939,0.4529,0.159,0.8527,1.4023,0.5496,A,0.135,as,
2.0,0.5004,0.1,1.0,0.21684,0.44202,0.74226,2.0,1.92654,-0.95,-0.47538,0.02502,5.0,1D2U,1.0,False,0.542,0.0,False,left,0.1668,0.1469,0.3053,0.1584,0.8966,1.697,0.8004,A,0.13,as,
3.0,0.5004,0.1,1.0,0.44202,0.31692,0.80064,3.0,3.01074,0.9,0.45036,0.95076,5.0,lapse_rate,1.0,True,0.534,0.0,False,left,-0.0834,0.3714,1.4546,1.0832,2.2298,2.7799,0.5502,A,0.13,as,
4.0,0.5004,0.1,2.0,0.35028,0.38364,0.42534,4.0,1.76808,-0.79,-0.39198,0.10842,5.0,2D1U,1.0,True,0.716,0.0,False,left,0.1668,1.3574,1.599,0.2416,0.1991,0.9989,0.7998,A,0.13,as,
5.0,0.5004,1.2,2.0,0.2085,0.40032,0.77562,5.0,1.90986,-0.95,-0.47538,0.02502,5.0,1D2U,1.0,True,0.659,0.0,False,left,-0.0834,1.4395,1.5987,0.1592,0.1814,0.7319,0.5505,A,0.135,as,
6.0,0.5004,1.2,1.0,0.30858,0.44202,0.70056,6.0,2.13504,-0.63,-0.31692,0.18348,5.0,2D1U,2.0,True,0.111,0.0,False,right,0.1668,0.2447,0.5614,0.3167,1.1114,1.9115,0.8001,A,0.135,as,
7.0,0.5004,1.2,2.0,0.36696,0.44202,0.64218,7.0,2.90232,0.9,0.45036,0.95076,5.0,lapse_rate,1.0,False,0.457,0.0,False,left,-0.0834,1.4623,2.5457,1.0834,0.3373,0.8867,0.5495,A,0.135,as,
8.0,0.5004,0.1,2.0,0.42534,0.21684,0.85902,8.0,2.95236,0.9,0.45036,0.95076,5.0,lapse_rate,2.0,True,0.384,0.0,False,right,0.1668,1.8689,2.9528,1.0839,0.2767,1.0774,0.8007,A,0.13,as,
9.0,0.5004,0.1,1.0,0.2919,0.31692,0.7923,9.0,1.92654,-0.95,-0.47538,0.02502,5.0,1D2U,2.0,True,0.984,0.0,False,right,-0.0834,0.2274,0.3858,0.1584,1.1521,1.7021,0.55,A,0.13,as,
10.0,0.5004,0.1,1.0,0.25854,0.44202,0.40032,10.0,1.86816,-0.47,-0.23352,0.26688,5.0,2D1U,2.0,True,0.141,0.0,False,right,0.1668,0.1898,0.5891,0.3992,0.8396,1.6396,0.8,A,0.13,as,
11.0,0.5004,1.2,2.0,0.22518,0.2919,0.80064,11.0,1.88484,-0.87,-0.43368,0.06672,5.0,1D2U,1.0,True,0.858,1.0,True,left,-0.0834,1.4795,1.679,0.1995,0.1958,0.7461,0.5502,A,0.135,as,
12.0,0.5004,1.2,1.0,0.26688,0.21684,0.56712,12.0,1.89318,-0.31,-0.15846,0.34194,5.0,2D1U,1.0,False,4.792,0.0,False,left,0.1668,0.2031,0.6784,0.4753,1.095,1.8953,0.8002,A,0.135,as,
13.0,0.5004,1.2,1.0,0.27522,0.39198,0.7923,13.0,1.98492,-0.95,-0.47538,0.02502,5.0,lapse_rate,1.0,False,0.5,0.0,False,left,-0.0834,0.2067,0.3649,0.1582,1.1317,1.6819,0.5501,A,0.135,as,
14.0,0.5004,0.1,1.0,0.34194,0.25854,0.7089,14.0,2.76054,0.9,0.45036,0.95076,5.0,lapse_rate,1.0,True,0.368,0.0,False,left,0.1668,0.2727,1.3565,1.0838,1.9144,2.7145,0.8001,A,0.13,as,
15.0,0.5004,0.1,2.0,0.2919,0.26688,0.68388,15.0,1.80978,-0.87,-0.43368,0.06672,5.0,1D2U,1.0,True,0.409,1.0,True,left,-0.0834,1.4344,1.6344,0.2,0.2681,0.8174,0.5493,A,0.13,as,
16.0,0.5004,0.1,2.0,0.20016,0.417,0.57546,16.0,2.03496,-0.31,-0.15846,0.34194,5.0,2D1U,2.0,False,1.576,0.0,False,right,0.1668,1.3547,1.8294,0.4747,0.0464,0.8467,0.8004,A,0.13,as,
17.0,0.5004,0.1,1.0,0.44202,0.24186,0.78396,17.0,1.99326,-0.95,-0.47538,0.02502,5.0,lapse_rate,2.0,True,0.767,0.0,False,right,-0.0834,0.3706,0.5288,0.1582,1.2871,1.8373,0.5502,A,0.13,as,
18.0,0.5004,1.2,2.0,0.42534,0.38364,0.85068,18.0,2.26848,-0.79,-0.39198,0.10842,5.0,1D2U,1.0,True,0.442,1.0,False,left,0.1668,1.8563,2.0983,0.242,0.2729,1.0735,0.8006,A,0.135,as,
19.0,0.5004,1.2,1.0,0.30024,0.38364,0.85902,19.0,2.35188,-0.39,-0.19182,0.30858,5.0,2D1U,2.0,True,0.583,1.0,True,right,-0.0834,0.2369,0.6786,0.4417,1.512,2.0615,0.5495,A,0.135,as,
20.0,0.5004,0.1,1.0,0.26688,0.2919,0.81732,20.0,1.98492,-0.79,-0.39198,0.10842,5.0,1D2U,2.0,True,0.492,1.0,False,right,0.1668,0.1988,0.4404,0.2416,1.1072,1.907,0.7998,A,0.13,as,
21.0,0.5004,0.1,2.0,0.35028,0.40866,0.60882,21.0,2.81892,0.9,0.45036,0.95076,5.0,lapse_rate,2.0,True,0.35,0.0,False,right,-0.0834,1.4144,2.4983,1.0839,0.3229,0.8726,0.5497,A,0.13,as,
22.0,0.5004,0.1,1.0,0.24186,0.3336,0.59214,22.0,1.99326,-0.35,-0.17514,0.32526,5.0,2D1U,2.0,True,0.317,2.0,True,right,0.1668,0.1775,0.6356,0.4581,1.0773,1.8776,0.8003,A,0.13,as,
23.0,0.5004,0.1,2.0,0.38364,0.22518,0.5838,23.0,1.71804,-0.95,-0.47538,0.02502,5.0,lapse_rate,1.0,True,0.9,0.0,False,left,-0.0834,1.4262,1.5845,0.1583,0.36,0.9096,0.5496,A,0.13,as,
24.0,0.5004,1.2,2.0,0.43368,0.24186,0.77562,24.0,2.2935,-0.31,-0.15846,0.34194,5.0,2D1U,1.0,True,0.492,2.0,False,left,0.1668,1.7891,2.2639,0.4748,0.2797,1.0799,0.8002,A,0.135,as,
25.0,0.5004,1.2,2.0,0.42534,0.2919,0.48372,25.0,1.84314,-0.71,-0.35862,0.14178,5.0,1D2U,1.0,True,0.766,1.0,False,left,-0.0834,1.3633,1.638,0.2747,0.3967,0.9462,0.5495,A,0.135,as,
26.0,0.5004,1.2,2.0,0.2085,0.24186,0.74226,26.0,2.64378,0.9,0.45036,0.95076,5.0,lapse_rate,2.0,True,0.459,0.0,False,right,0.1668,1.5314,2.6144,1.083,0.0563,0.8558,0.7994,A,0.135,as,
27.0,0.5004,0.1,2.0,0.24186,0.43368,0.4587,27.0,2.0016,-0.27,-0.13344,0.36696,5.0,2D1U,1.0,True,0.5,2.0,False,left,-0.0834,1.1561,1.6562,0.5002,0.2144,0.7647,0.5503,A,0.13,as,
28.0,0.5004,0.1,2.0,0.40032,0.30858,0.59214,28.0,1.94322,-0.71,-0.35862,0.14178,5.0,1D2U,1.0,True,0.617,1.0,False,left,0.1668,1.5733,1.8482,0.2749,0.2485,1.0483,0.7998,A,0.13,as,
29.0,0.5004,1.2,1.0,0.2919,0.35028,0.88404,29.0,2.05164,-0.95,-0.47538,0.02502,5.0,lapse_rate,2.0,True,1.224,0.0,False,right,-0.0834,0.2279,0.3862,0.1583,1.2447,1.7947,0.5501,A,0.135,as,
30.0,0.5004,1.2,2.0,0.27522,0.35862,0.76728,30.0,2.085,-0.63,-0.31692,0.18348,5.0,1D2U,1.0,True,0.825,1.0,False,left,0.1668,1.6259,1.9432,0.3174,0.1261,0.9257,0.7996,A,0.135,as,
31.0,0.5004,1.2,2.0,0.23352,0.2502,0.60882,31.0,1.97658,-0.23,-0.11676,0.38364,5.0,2D1U,2.0,False,0.408,2.0,False,right,-0.0834,1.2979,1.8141,0.5161,0.2055,0.7559,0.5504,A,0.135,as,
32.0,0.5004,0.1,1.0,0.26688,0.417,0.47538,32.0,2.0433,-0.23,-0.11676,0.38364,5.0,2D1U,2.0,True,0.333,2.0,False,right,0.1668,0.2014,0.7179,0.5165,1.0424,1.8431,0.8007,A,0.13,as,
33.0,0.5004,0.1,2.0,0.35862,0.20016,0.82566,33.0,2.06832,-0.63,-0.31692,0.18348,5.0,1D2U,1.0,True,0.467,1.0,False,left,-0.0834,1.643,1.9597,0.3167,0.3346,0.8839,0.5494,A,0.13,as,
34.0,0.5004,1.2,2.0,0.36696,0.23352,0.89238,34.0,2.01828,-0.95,-0.47538,0.02502,5.0,lapse_rate,1.0,True,0.508,0.0,False,left,0.1668,1.8372,1.9955,0.1582,0.2123,1.0123,0.8,A,0.135,as,
35.0,0.5004,1.2,1.0,0.2919,0.30024,0.85902,35.0,1.97658,-0.95,-0.47538,0.02502,5.0,lapse_rate,2.0,True,0.408,0.0,False,right,-0.0834,0.2245,0.3827,0.1582,1.2163,1.7663,0.55,A,0.135,as,
36.0,0.5004,1.2,2.0,0.42534,0.45036,0.61716,36.0,2.21844,-0.55,-0.27522,0.22518,5.0,1D2U,1.0,True,0.583,1.0,False,left,0.1668,1.6216,1.9799,0.3583,0.2714,1.0707,0.7993,A,0.135,as,
37.0,0.5004,1.2,2.0,0.28356,0.27522,0.5838,37.0,2.05164,-0.19,-0.09174,0.40866,5.0,2D1U,1.0,True,0.517,2.0,False,left,-0.0834,1.3282,1.8698,0.5416,0.2614,0.8109,0.5495,A,0.135,as,
38.0,0.5004,0.1,1.0,0.30858,0.3336,0.78396,38.0,2.35188,-0.15,-0.07506,0.42534,5.0,2D1U,1.0,False,0.583,2.0,False,left,0.1668,0.2392,0.7974,0.5582,1.4311,2.2308,0.7997,A,0.13,as,
39.0,0.5004,0.1,2.0,0.39198,0.23352,0.42534,39.0,1.77642,-0.55,-0.27522,0.22518,5.0,1D2U,1.0,True,0.559,1.0,False,left,-0.0834,1.2728,1.631,0.3582,0.3642,0.9144,0.5502,A,0.13,as,
40.0,0.5004,1.2,2.0,0.2085,0.44202,0.53376,40.0,2.63544,0.9,0.45036,0.95076,5.0,lapse_rate,2.0,True,0.142,0.0,False,right,0.1668,1.3232,2.4058,1.0826,0.0561,0.8564,0.8003,A,0.135,as,
41.0,0.5004,1.2,1.0,0.30858,0.3336,0.52542,41.0,1.93488,-0.47,-0.23352,0.26688,5.0,1D2U,2.0,True,0.384,1.0,False,right,-0.0834,0.2396,0.6413,0.4017,1.1407,1.6907,0.55,A,0.135,as,
42.0,0.5004,1.2,1.0,0.32526,0.43368,0.80064,42.0,2.48532,-0.15,-0.07506,0.42534,5.0,2D1U,2.0,True,0.4,2.0,False,right,0.1668,0.2536,0.8119,0.5583,1.4621,2.2621,0.8,A,0.135,as,
43.0,0.5004,1.2,2.0,0.25854,0.27522,0.42534,43.0,2.41026,0.9,0.45036,0.95076,5.0,lapse_rate,2.0,True,0.484,0.0,False,right,-0.0834,1.1403,2.2232,1.0829,0.2317,0.781,0.5493,A,0.135,as,
44.0,0.5004,0.1,1.0,0.22518,0.25854,0.61716,44.0,2.0433,-0.11,-0.05838,0.44202,5.0,2D1U,2.0,True,0.284,2.0,False,right,0.1668,0.1613,0.736,0.5747,1.2029,2.0023,0.7994,A,0.13,as,
45.0,0.5004,0.1,2.0,0.20016,0.38364,0.81732,45.0,1.92654,-0.95,-0.47538,0.02502,5.0,lapse_rate,1.0,True,0.492,0.0,False,left,-0.0834,1.4727,1.631,0.1583,0.1728,0.7229,0.5502,A,0.13,as,
46.0,0.5004,0.1,1.0,0.35862,0.30858,0.42534,46.0,1.85982,-0.47,-0.23352,0.26688,5.0,1D2U,1.0,False,0.825,1.0,False,left,0.1668,0.2877,0.6877,0.4,0.9629,1.7627,0.7998,A,0.13,as,
47.0,0.5004,1.2,1.0,0.25854,0.44202,0.73392,47.0,2.17674,-0.51,-0.25854,0.24186,5.0,1D2U,2.0,True,0.276,2.0,True,right,-0.0834,0.1886,0.5626,0.374,1.2715,1.8212,0.5497,A,0.135,as,
48.0,0.5004,1.2,1.0,0.35028,0.3753,0.43368,48.0,1.68468,-0.95,-0.47538,0.02502,5.0,lapse_rate,2.0,True,0.113,0.0,False,right,0.1668,0.285,0.4431,0.1581,0.7266,1.5266,0.8,A,0.135,as,
49.0,0.5004,1.2,1.0,0.417,0.34194,0.61716,49.0,2.34354,-0.07,-0.03336,0.46704,5.0,2D1U,2.0,True,0.35,2.0,False,right,-0.0834,0.3514,0.9508,0.5993,1.5434,2.0932,0.5498,A,0.135,as,
50.0,0.5004,0.1,1.0,0.28356,0.27522,0.63384,50.0,1.71804,-0.95,-0.47538,0.02502,5.0,lapse_rate,2.0,True,0.35,0.0,False,right,0.1668,0.2139,0.3723,0.1584,0.8557,1.6554,0.7997,A,0.13,as,
51.0,0.5004,0.1,2.0,0.34194,0.44202,0.55878,51.0,2.085,-0.51,-0.25854,0.24186,5.0,1D2U,1.0,True,0.358,2.0,True,left,-0.0834,1.3559,1.731,0.3751,0.3144,0.8644,0.55,A,0.13,as,
52.0,0.5004,0.1,2.0,0.42534,0.22518,0.42534,52.0,2.05998,-0.03,-0.01668,0.48372,5.0,2D1U,1.0,True,0.617,2.0,False,left,0.1668,1.4322,2.0488,0.6166,0.2732,1.0737,0.8004,A,0.13,as,
53.0,0.5004,1.2,1.0,0.32526,0.3336,0.7089,53.0,2.13504,-0.47,-0.23352,0.26688,5.0,1D2U,2.0,True,0.366,3.0,True,right,-0.0834,0.2548,0.6555,0.4007,1.3377,1.8882,0.5505,A,0.135,as,
54.0,0.5004,1.2,1.0,0.417,0.20016,0.44202,54.0,2.06832,0.01,0.00834,0.50874,5.0,2D1U,2.0,False,0.383,2.0,False,right,0.1668,0.3507,0.9926,0.6418,1.2844,2.089,0.8046,A,0.135,as,
55.0,0.5004,0.1,2.0,0.40032,0.25854,0.81732,55.0,2.0016,-0.95,-0.47538,0.02502,5.0,lapse_rate,1.0,True,0.442,0.0,False,left,-0.0834,1.6782,1.8364,0.1583,0.3783,0.9284,0.5501,A,0.13,as,
56.0,0.5004,0.1,2.0,0.40866,0.27522,0.82566,56.0,2.53536,0.05,0.02502,0.52542,5.0,2D1U,1.0,False,0.467,2.0,False,left,0.1668,1.8205,2.4784,0.6579,0.2619,1.0618,0.7999,A,0.13,as,
57.0,0.5004,0.1,2.0,0.3336,0.20016,0.65052,57.0,1.95156,-0.47,-0.23352,0.26688,5.0,1D2U,1.0,True,0.426,3.0,True,left,-0.0834,1.4401,1.8403,0.4001,0.3064,0.8564,0.55,A,0.13,as,
58.0,0.5004,1.2,1.0,0.26688,0.34194,0.55878,58.0,1.69302,-0.95,-0.47538,0.02502,5.0,lapse_rate,2.0,True,0.308,0.0,False,right,0.1668,0.1977,0.3558,0.1582,0.7637,1.5643,0.8007,A,0.135,as,
59.0,0.5004,1.2,2.0,0.2502,0.2502,0.7506,59.0,2.2935,0.09,0.0417,0.5421,5.0,2D1U,2.0,True,0.376,2.0,False,right,-0.0834,1.4621,2.1372,0.6751,0.2285,0.7781,0.5496,A,0.135,as,
60.0,0.5004,1.2,2.0,0.26688,0.2919,0.40866,60.0,1.7514,-0.43,-0.21684,0.28356,5.0,1D2U,1.0,True,0.291,3.0,False,left,0.1668,1.2577,1.6744,0.4167,0.1161,0.9163,0.8002,A,0.135,as,
61.0,0.5004,0.1,1.0,0.21684,0.40032,0.74226,61.0,2.81058,0.9,0.45036,0.95076,5.0,lapse_rate,1.0,True,0.366,0.0,False,left,-0.0834,0.1463,1.2301,1.0839,1.9462,2.4965,0.5502,A,0.13,as,
62.0,0.5004,0.1,1.0,0.23352,0.36696,0.82566,62.0,2.46864,0.09,0.0417,0.5421,5.0,2D1U,1.0,True,0.2,2.0,False,left,0.1668,0.1683,0.8433,0.675,1.5183,2.3183,0.8,A,0.13,as,
63.0,0.5004,1.2,1.0,0.32526,0.32526,0.61716,63.0,2.71884,0.9,0.45036,0.95076,5.0,lapse_rate,1.0,True,0.607,0.0,False,left,-0.0834,0.2562,1.3396,1.0834,1.9307,2.4807,0.55,A,0.135,as,
64.0,0.5004,0.1,2.0,0.40866,0.43368,0.59214,64.0,2.21844,-0.43,-0.21684,0.28356,5.0,1D2U,1.0,True,0.342,3.0,False,left,0.1668,1.5814,1.9982,0.4168,0.2564,1.0558,0.7994,A,0.13,as,
65.0,0.5004,1.2,1.0,0.417,0.36696,0.834,65.0,2.64378,0.05,0.02502,0.52542,5.0,2D1U,1.0,True,0.466,3.0,True,left,-0.0834,0.3468,1.0048,0.658,1.8138,2.3638,0.55,A,0.135,as,
66.0,0.5004,1.2,1.0,0.35028,0.26688,0.40032,66.0,2.46864,0.9,0.45036,0.95076,5.0,lapse_rate,1.0,True,0.443,0.0,False,left,0.1668,0.2805,1.3632,1.0827,1.6132,2.4133,0.8001,A,0.135,as,
67.0,0.5004,1.2,2.0,0.30024,0.23352,0.45036,67.0,1.7931,-0.39,-0.19182,0.30858,5.0,1D2U,1.0,True,0.417,3.0,False,left,-0.0834,1.2079,1.6494,0.4416,0.2743,0.8242,0.5499,A,0.135,as,
68.0,0.5004,0.1,1.0,0.43368,0.25854,0.55044,68.0,2.05164,-0.39,-0.19182,0.30858,5.0,1D2U,2.0,True,0.251,3.0,False,right,0.1668,0.365,0.8068,0.4418,1.2068,2.007,0.8002,A,0.13,as,
69.0,0.5004,0.1,1.0,0.40866,0.28356,0.55878,69.0,1.77642,-0.95,-0.47538,0.02502,5.0,lapse_rate,2.0,True,0.309,0.0,False,right,-0.0834,0.3448,0.5027,0.1578,1.036,1.5854,0.5494,A,0.13,as,
70.0,0.5004,0.1,2.0,0.28356,0.30858,0.60882,70.0,2.22678,0.05,0.02502,0.52542,5.0,2D1U,2.0,True,0.691,3.0,True,right,0.1668,1.4757,2.1339,0.6582,0.133,0.9338,0.8008,A,0.13,as,
71.0,0.5004,1.2,1.0,0.34194,0.25854,0.80064,71.0,1.92654,-0.95,-0.47538,0.02502,5.0,lapse_rate,2.0,True,0.342,0.0,False,right,-0.0834,0.2732,0.4316,0.1584,1.2065,1.7563,0.5499,A,0.135,as,
72.0,0.5004,1.2,1.0,0.44202,0.34194,0.5421,72.0,2.15172,-0.35,-0.17514,0.32526,5.0,1D2U,2.0,True,0.325,3.0,False,right,0.1668,0.374,0.8314,0.4574,1.2243,2.0232,0.7988,A,0.135,as,
73.0,0.5004,1.2,1.0,0.21684,0.44202,0.69222,73.0,2.36022,0.01,0.00834,0.50874,5.0,2D1U,2.0,False,0.4,3.0,False,right,-0.0834,0.149,0.7904,0.6414,1.4572,2.0072,0.55,A,0.135,as,
74.0,0.5004,0.1,2.0,0.30024,0.28356,0.47538,74.0,2.085,0.05,0.02502,0.52542,5.0,2D1U,2.0,True,0.424,4.0,True,right,0.1668,1.3557,2.0138,0.6581,0.1471,0.9472,0.8001,A,0.13,as,
75.0,0.5004,0.1,2.0,0.3753,0.21684,0.50874,75.0,1.92654,-0.35,-0.17514,0.32526,5.0,1D2U,1.0,True,0.617,3.0,False,left,-0.0834,1.3456,1.8037,0.4582,0.3535,0.9029,0.5494,A,0.13,as,
76.0,0.5004,0.1,2.0,0.27522,0.22518,0.74226,76.0,2.69382,0.9,0.45036,0.95076,5.0,lapse_rate,2.0,True,0.351,0.0,False,right,0.1668,1.5965,2.6795,1.083,0.1209,0.9219,0.801,A,0.13,as,
77.0,0.5004,1.2,1.0,0.44202,0.42534,0.74226,77.0,2.63544,0.05,0.02502,0.52542,5.0,2D1U,2.0,False,0.4,4.0,True,right,-0.0834,0.3768,1.0348,0.658,1.7513,2.3011,0.5499,A,0.135,as,
78.0,0.5004,1.2,1.0,0.42534,0.35028,0.5421,78.0,2.16006,-0.31,-0.15846,0.34194,5.0,1D2U,2.0,True,0.112,3.0,False,right,0.1668,0.3537,0.8287,0.475,1.2203,2.0203,0.8,A,0.135,as,
79.0,0.5004,1.2,2.0,0.27522,0.35862,0.55044,79.0,2.63544,0.9,0.45036,0.95076,5.0,lapse_rate,2.0,True,0.267,0.0,False,right,-0.0834,1.2809,2.3643,1.0834,0.2478,0.7982,0.5504,A,0.135,as,
80.0,0.5004,0.1,2.0,0.2085,0.3336,0.40032,80.0,1.78476,-0.31,-0.15846,0.34194,5.0,1D2U,1.0,True,0.276,3.0,False,left,0.1668,1.1899,1.6649,0.475,0.0572,0.8562,0.799,A,0.13,as,
81.0,0.5004,0.1,1.0,0.34194,0.30858,0.76728,81.0,2.86896,0.9,0.45036,0.95076,5.0,lapse_rate,1.0,True,0.35,0.0,False,left,-0.0834,0.2699,1.353,1.0831,2.0955,2.6453,0.5498,A,0.13,as,
82.0,0.5004,0.1,2.0,0.35028,0.24186,0.5004,82.0,2.13504,0.09,0.0417,0.5421,5.0,2D1U,1.0,False,0.325,4.0,False,left,0.1668,1.428,2.104,0.676,0.1955,0.9953,0.7998,A,0.13,as,
83.0,0.5004,1.2,1.0,0.36696,0.34194,0.80898,83.0,2.38524,-0.27,-0.13344,0.36696,5.0,1D2U,1.0,False,0.575,3.0,False,left,-0.0834,0.2978,0.798,0.5002,1.5825,2.132,0.5495,A,0.135,as,
84.0,0.5004,1.2,2.0,0.21684,0.2919,0.72558,84.0,2.68548,0.9,0.45036,0.95076,5.0,lapse_rate,1.0,False,0.441,0.0,False,left,0.1668,1.5265,2.6095,1.083,0.0683,0.8681,0.7997,A,0.135,as,
85.0,0.5004,1.2,1.0,0.40866,0.35862,0.5421,85.0,2.3769,0.13,0.06672,0.56712,5.0,2D1U,1.0,True,0.601,4.0,False,left,-0.0834,0.3402,1.0398,0.6995,1.5564,2.1064,0.55,A,0.135,as,
86.0,0.5004,0.1,1.0,0.23352,0.23352,0.57546,86.0,2.11002,0.13,0.06672,0.56712,5.0,2D1U,1.0,True,0.367,4.0,False,left,0.1668,0.1622,0.8623,0.7,1.2873,2.0873,0.8,A,0.13,as,
87.0,0.5004,0.1,2.0,0.35028,0.2502,0.84234,87.0,2.28516,-0.31,-0.15846,0.34194,5.0,1D2U,1.0,True,0.692,4.0,True,left,-0.0834,1.6509,2.1259,0.475,0.3254,0.8752,0.5498,A,0.13,as,
88.0,0.5004,0.1,1.0,0.28356,0.34194,0.5004,88.0,1.65132,-0.95,-0.47538,0.02502,5.0,lapse_rate,2.0,True,0.284,0.0,False,right,0.1668,0.2201,0.378,0.1579,0.7286,1.5286,0.7999,A,0.13,as,
89.0,0.5004,1.2,1.0,0.3753,0.43368,0.49206,89.0,2.34354,0.09,0.0417,0.5421,5.0,2D1U,2.0,False,0.425,5.0,True,right,-0.0834,0.3082,0.9835,0.6753,1.4503,2.0005,0.5502,A,0.135,as,
90.0,0.5004,1.2,1.0,0.35028,0.30858,0.85068,90.0,2.35188,-0.31,-0.15846,0.34194,5.0,1D2U,2.0,True,0.113,4.0,True,right,0.1668,0.2844,0.7592,0.4748,1.4596,2.2592,0.7996,A,0.135,as,
91.0,0.5004,0.1,1.0,0.39198,0.24186,0.47538,91.0,1.63464,-0.95,-0.47538,0.02502,5.0,lapse_rate,2.0,True,0.475,0.0,False,right,-0.0834,0.3216,0.4793,0.1577,0.9299,1.48,0.5501,A,0.13,as,
92.0,0.5004,0.1,1.0,0.40866,0.30858,0.85068,92.0,2.43528,-0.27,-0.13344,0.36696,5.0,1D2U,1.0,False,0.4,5.0,True,left,0.1668,0.3392,0.8392,0.5,1.5391,2.3391,0.8,A,0.13,as,
93.0,0.5004,1.2,2.0,0.40032,0.26688,0.76728,93.0,2.88564,0.9,0.45036,0.95076,5.0,lapse_rate,2.0,True,0.534,0.0,False,right,-0.0834,1.6206,2.704,1.0834,0.3714,0.9211,0.5498,A,0.135,as,
94.0,0.5004,0.1,2.0,0.26688,0.3336,0.7506,94.0,2.4186,0.13,0.06672,0.56712,5.0,2D1U,2.0,True,0.667,6.0,True,right,0.1668,1.6015,2.3012,0.6997,0.1178,0.9183,0.8005,A,0.13,as,
95.0,0.5004,1.2,1.0,0.35862,0.36696,0.7506,95.0,2.5437,0.13,0.06672,0.56712,5.0,2D1U,1.0,True,0.35,6.0,True,left,-0.0834,0.2881,0.9882,0.7001,1.7134,2.2636,0.5502,A,0.135,as,
96.0,0.5004,0.1,1.0,0.36696,0.40866,0.60882,96.0,2.8356,0.9,0.45036,0.95076,5.0,lapse_rate,1.0,True,0.183,0.0,False,left,0.1668,0.2981,1.3814,1.0833,1.8395,2.6398,0.8003,A,0.13,as,
97.0,0.5004,1.2,2.0,0.31692,0.2085,0.55044,97.0,1.9182,-0.31,-0.15846,0.34194,5.0,1D2U,1.0,True,0.81,6.0,True,left,-0.0834,1.3223,1.7977,0.4754,0.2891,0.839,0.5499,A,0.135,as,
98.0,0.5004,1.2,1.0,0.43368,0.36696,0.80064,98.0,2.1267,-0.95,-0.47538,0.02502,5.0,lapse_rate,2.0,True,0.267,0.0,False,right,0.1668,0.3651,0.5233,0.1582,1.1734,1.974,0.8006,A,0.135,as,
99.0,0.5004,0.1,1.0,0.3336,0.44202,0.84234,99.0,2.4603,-0.31,-0.15846,0.34194,5.0,1D2U,2.0,True,0.484,6.0,True,right,-0.0834,0.2631,0.738,0.4749,1.5541,2.1053,0.5512,A,0.13,as,
100.0,0.5004,0.1,2.0,0.417,0.40032,0.77562,100.0,2.63544,0.09,0.0417,0.5421,5.0,2D1U,2.0,True,0.858,7.0,True,right,0.1668,1.7761,2.4507,0.6745,0.2679,1.0678,0.8,A,0.13,as,
101.0,0.5004,1.2,2.0,0.2919,0.2502,0.834,101.0,2.4186,0.09,0.0417,0.5421,5.0,2D1U,2.0,True,0.4,7.0,True,right,-0.0834,1.5797,2.2543,0.6746,0.2627,0.8127,0.55,A,0.135,as,
102.0,0.5004,1.2,1.0,0.32526,0.21684,0.8757,102.0,2.86896,0.9,0.45036,0.95076,5.0,lapse_rate,1.0,True,0.558,0.0,False,left,0.1668,0.2567,1.3398,1.0831,2.0641,2.8647,0.8006,A,0.135,as,
103.0,0.5004,1.2,2.0,0.42534,0.3336,0.4587,103.0,2.085,-0.27,-0.13344,0.36696,5.0,1D2U,2.0,False,0.633,7.0,True,right,-0.0834,1.3432,1.8434,0.5003,0.401,0.9516,0.5506,A,0.135,as,
104.0,0.5004,0.1,2.0,0.44202,0.38364,0.67554,104.0,2.02662,-0.95,-0.47538,0.02502,5.0,lapse_rate,1.0,True,0.441,0.0,False,left,0.1668,1.6959,1.8541,0.1582,0.2872,1.0871,0.7999,A,0.13,as,
105.0,0.5004,0.1,1.0,0.44202,0.24186,0.85902,105.0,2.38524,-0.31,-0.15846,0.34194,5.0,1D2U,2.0,True,0.5,8.0,True,right,-0.0834,0.3757,0.85,0.4743,1.6835,2.234,0.5505,A,0.13,as,
106.0,0.5004,0.1,2.0,0.2919,0.39198,0.52542,106.0,2.23512,0.05,0.02502,0.52542,5.0,2D1U,2.0,True,0.666,7.0,False,right,0.1668,1.3982,2.0562,0.658,0.14,0.9394,0.7994,A,0.13,as,
107.0,0.5004,1.2,2.0,0.22518,0.40032,0.45036,107.0,2.10168,0.05,0.02502,0.52542,5.0,2D1U,2.0,True,0.333,7.0,False,right,-0.0834,1.134,1.7919,0.6578,0.2011,0.7508,0.5498,A,0.135,as,
108.0,0.5004,0.1,1.0,0.38364,0.21684,0.52542,108.0,2.57706,0.9,0.45036,0.95076,5.0,lapse_rate,1.0,True,0.4,0.0,False,left,0.1668,0.3181,1.4014,1.0833,1.7763,2.5767,0.8004,A,0.13,as,
109.0,0.5004,1.2,1.0,0.43368,0.26688,0.90072,109.0,2.44362,-0.31,-0.15846,0.34194,5.0,1D2U,2.0,True,0.417,8.0,True,right,-0.0834,0.3656,0.8412,0.4756,1.7156,2.2656,0.5501,A,0.135,as,
110.0,0.5004,0.1,2.0,0.24186,0.23352,0.61716,110.0,1.9599,-0.27,-0.13344,0.36696,5.0,1D2U,2.0,False,0.875,9.0,True,right,0.1668,1.4396,1.9396,0.5,0.0898,0.8892,0.7994,A,0.13,as,
111.0,0.5004,0.1,2.0,0.40032,0.3753,0.67554,111.0,2.90232,0.9,0.45036,0.95076,5.0,lapse_rate,2.0,True,0.35,0.0,False,right,-0.0834,1.5363,2.6192,1.0829,0.3779,0.9274,0.5495,A,0.13,as,
112.0,0.5004,0.1,2.0,0.39198,0.21684,0.60882,112.0,2.22678,0.01,0.00834,0.50874,5.0,2D1U,1.0,False,0.341,7.0,False,left,0.1668,1.5828,2.2243,0.6415,0.2418,1.041,0.7992,A,0.13,as,
113.0,0.5004,1.2,1.0,0.25854,0.35862,0.45036,113.0,2.09334,0.05,0.02502,0.52542,5.0,2D1U,1.0,True,0.299,8.0,True,left,-0.0834,0.1892,0.8483,0.659,1.2732,1.8231,0.5499,A,0.135,as,
114.0,0.5004,1.2,2.0,0.21684,0.35028,0.85902,114.0,2.8773,0.9,0.45036,0.95076,5.0,lapse_rate,2.0,True,0.891,0.0,False,right,0.1668,1.659,2.7427,1.0837,0.0674,0.8673,0.8,A,0.135,as,
115.0,0.5004,1.2,1.0,0.27522,0.2085,0.53376,115.0,1.85982,-0.31,-0.15846,0.34194,5.0,1D2U,2.0,True,0.467,10.0,True,right,-0.0834,0.2067,0.6814,0.4746,1.1899,1.7397,0.5498,A,0.135,as,
116.0,0.5004,0.1,1.0,0.44202,0.24186,0.64218,116.0,2.1684,-0.31,-0.15846,0.34194,5.0,1D2U,2.0,True,0.3,10.0,True,right,0.1668,0.3732,0.8477,0.4745,1.3394,2.1394,0.8,A,0.13,as,
117.0,0.5004,0.1,2.0,0.44202,0.25854,0.89238,117.0,2.61876,0.05,0.02502,0.52542,5.0,2D1U,2.0,True,0.458,8.0,True,right,-0.0834,1.7886,2.4473,0.6587,0.4139,0.9638,0.5499,A,0.13,as,
118.0,0.5004,0.1,2.0,0.28356,0.21684,0.72558,118.0,2.67714,0.9,0.45036,0.95076,5.0,lapse_rate,2.0,True,0.334,0.0,False,right,0.1668,1.5953,2.6778,1.0824,0.1366,0.9366,0.8,A,0.13,as,
119.0,0.5004,1.2,2.0,0.43368,0.417,0.85902,119.0,2.71884,0.01,0.00834,0.50874,5.0,2D1U,2.0,True,0.45,9.0,True,right,-0.0834,1.7472,2.3887,0.6415,0.4047,0.9553,0.5507,A,0.135,as,
120.0,0.5004,1.2,2.0,0.2502,0.32526,0.52542,120.0,1.96824,-0.27,-0.13344,0.36696,5.0,1D2U,1.0,True,0.376,11.0,True,left,0.1668,1.3619,1.862,0.5001,0.1036,0.9034,0.7999,A,0.135,as,
121.0,0.5004,1.2,1.0,0.27522,0.3753,0.81732,121.0,1.99326,-0.95,-0.47538,0.02502,5.0,lapse_rate,2.0,True,0.283,0.0,False,right,-0.0834,0.2073,0.3657,0.1584,1.1573,1.7073,0.55,A,0.135,as,
122.0,0.5004,0.1,1.0,0.44202,0.42534,0.61716,122.0,2.49366,0.01,0.00834,0.50874,5.0,2D1U,2.0,False,0.441,9.0,True,right,0.1668,0.3736,1.0151,0.6415,1.4813,2.2811,0.7998,A,0.13,as,
123.0,0.5004,0.1,2.0,0.2919,0.2085,0.52542,123.0,1.55124,-0.95,-0.47538,0.02502,5.0,lapse_rate,1.0,True,0.425,0.0,False,left,-0.0834,1.2732,1.4314,0.1583,0.2644,0.8149,0.5504,A,0.13,as,
124.0,0.5004,0.1,2.0,0.38364,0.22518,0.59214,124.0,2.06832,-0.27,-0.13344,0.36696,5.0,1D2U,1.0,True,0.683,11.0,True,left,0.1668,1.5553,2.0555,0.5002,0.2303,1.0296,0.7993,A,0.13,as,
125.0,0.5004,1.2,2.0,0.43368,0.40866,0.49206,125.0,2.36022,0.05,0.02502,0.52542,5.0,2D1U,1.0,False,0.2,10.0,True,left,-0.0834,1.3855,2.0437,0.6582,0.4102,0.9606,0.5503,A,0.135,as,
126.0,0.5004,0.1,2.0,0.2085,0.40866,0.6672,126.0,2.73552,0.9,0.45036,0.95076,5.0,lapse_rate,2.0,True,0.375,0.0,False,right,0.1668,1.4545,2.537,1.0825,0.0546,0.854,0.7994,A,0.13,as,
127.0,0.5004,1.2,2.0,0.27522,0.34194,0.85902,127.0,2.36022,-0.23,-0.11676,0.38364,5.0,1D2U,2.0,False,0.342,11.0,False,right,-0.0834,1.5942,2.1113,0.517,0.253,0.8029,0.5499,A,0.135,as,
128.0,0.5004,0.1,1.0,0.27522,0.25854,0.55878,128.0,1.9599,-0.27,-0.13344,0.36696,5.0,1D2U,2.0,True,0.333,12.0,True,right,0.1668,0.2043,0.7046,0.5003,1.1127,1.9129,0.8002,A,0.13,as,
129.0,0.5004,1.2,2.0,0.43368,0.42534,0.53376,129.0,2.84394,0.9,0.45036,0.95076,5.0,lapse_rate,2.0,True,0.242,0.0,False,right,-0.0834,1.4208,2.5039,1.0831,0.4033,0.954,0.5507,A,0.135,as,
130.0,0.5004,0.1,1.0,0.36696,0.43368,0.63384,130.0,2.47698,0.09,0.0417,0.5421,5.0,2D1U,2.0,False,0.113,10.0,False,right,0.1668,0.2972,0.9719,0.6748,1.4557,2.2559,0.8001,A,0.13,as,
131.0,0.5004,1.2,1.0,0.42534,0.40866,0.5004,131.0,2.78556,0.9,0.45036,0.95076,5.0,lapse_rate,1.0,True,0.375,0.0,False,left,-0.0834,0.3554,1.4386,1.0832,1.9138,2.4639,0.5501,A,0.135,as,
132.0,0.5004,1.2,2.0,0.24186,0.40866,0.75894,132.0,2.47698,0.13,0.06672,0.56712,5.0,2D1U,1.0,False,0.524,10.0,False,left,0.1668,1.5835,2.2837,0.7002,0.0914,0.8912,0.7998,A,0.135,as,
133.0,0.5004,1.2,1.0,0.23352,0.38364,0.4587,133.0,1.94322,-0.27,-0.13344,0.36696,5.0,1D2U,2.0,True,0.308,12.0,True,right,-0.0834,0.1626,0.6628,0.5001,1.0958,1.6455,0.5496,A,0.135,as,
134.0,0.5004,0.1,2.0,0.21684,0.21684,0.85902,134.0,1.81812,-0.95,-0.47538,0.02502,5.0,lapse_rate,1.0,True,0.616,0.0,False,left,0.1668,1.6574,1.8167,0.1593,0.0666,0.8667,0.8001,A,0.13,as,
135.0,0.5004,0.1,1.0,0.3753,0.45036,0.7506,135.0,2.66046,0.17,0.0834,0.5838,5.0,2D1U,1.0,True,0.284,10.0,False,left,-0.0834,0.3106,1.0276,0.717,1.7522,2.3024,0.5502,A,0.13,as,
136.0,0.5004,0.1,1.0,0.24186,0.42534,0.69222,136.0,2.24346,-0.23,-0.11676,0.38364,5.0,1D2U,2.0,True,0.116,13.0,True,right,0.1668,0.1731,0.6893,0.5162,1.2315,2.0317,0.8002,A,0.13,as,
137.0,0.5004,1.2,1.0,0.26688,0.30858,0.43368,137.0,1.53456,-0.95,-0.47538,0.02502,5.0,lapse_rate,2.0,True,0.408,0.0,False,right,-0.0834,0.1952,0.3538,0.1586,0.7621,1.312,0.5499,A,0.135,as,
138.0,0.5004,1.2,1.0,0.24186,0.23352,0.42534,138.0,1.78476,-0.23,-0.11676,0.38364,5.0,1D2U,1.0,False,1.484,13.0,True,left,0.1668,0.173,0.6899,0.5169,0.9651,1.7652,0.8001,A,0.135,as,
139.0,0.5004,1.2,2.0,0.40032,0.25854,0.78396,139.0,2.52702,0.17,0.0834,0.5838,5.0,2D1U,1.0,False,0.351,10.0,False,left,-0.0834,1.6372,2.3532,0.716,0.3704,0.9203,0.55,A,0.135,as,
140.0,0.5004,0.1,1.0,0.24186,0.42534,0.49206,140.0,2.26848,0.21,0.10842,0.60882,5.0,2D1U,2.0,False,0.258,10.0,False,right,0.1668,0.1782,0.9196,0.7414,1.2619,2.0617,0.7997,A,0.13,as,
141.0,0.5004,0.1,1.0,0.28356,0.39198,0.53376,141.0,2.66046,0.9,0.45036,0.95076,5.0,lapse_rate,1.0,True,0.301,0.0,False,left,-0.0834,0.219,1.3024,1.0834,1.811,2.3607,0.5497,A,0.13,as,
142.0,0.5004,0.1,1.0,0.2919,0.28356,0.45036,142.0,1.89318,-0.27,-0.13344,0.36696,5.0,1D2U,2.0,True,0.359,14.0,True,right,0.1668,0.2245,0.7242,0.4997,1.024,1.824,0.8,A,0.13,as,
143.0,0.5004,1.2,2.0,0.40866,0.43368,0.59214,143.0,2.30184,-0.27,-0.13344,0.36696,5.0,1D2U,2.0,False,1.417,14.0,True,right,-0.0834,1.459,1.9592,0.5002,0.3843,0.9341,0.5499,A,0.135,as,
144.0,0.5004,1.2,2.0,0.36696,0.21684,0.47538,144.0,2.18508,0.25,0.1251,0.6255,5.0,2D1U,2.0,True,0.367,10.0,False,right,0.1668,1.4198,2.1789,0.7591,0.2125,1.0122,0.7998,A,0.135,as,
145.0,0.5004,0.1,2.0,0.20016,0.35028,0.59214,145.0,1.668,-0.95,-0.47538,0.02502,5.0,lapse_rate,1.0,True,0.45,0.0,False,left,-0.0834,1.2512,1.4098,0.1586,0.1769,0.7268,0.5499,A,0.13,as,
146.0,0.5004,0.1,2.0,0.36696,0.31692,0.75894,146.0,2.28516,-0.31,-0.15846,0.34194,5.0,1D2U,2.0,False,0.9,14.0,False,right,0.1668,1.7067,2.1818,0.4751,0.2154,1.0157,0.8002,A,0.13,as,
147.0,0.5004,0.1,2.0,0.30858,0.39198,0.8757,147.0,2.70216,0.25,0.1251,0.6255,5.0,2D1U,2.0,True,0.408,10.0,False,right,-0.0834,1.6416,2.4,0.7584,0.2834,0.8337,0.5503,A,0.13,as,
148.0,0.5004,1.2,2.0,0.45036,0.32526,0.50874,148.0,1.80978,-0.95,-0.47538,0.02502,5.0,lapse_rate,1.0,True,0.567,0.0,False,left,0.1668,1.541,1.6996,0.1585,0.2997,1.0994,0.7998,A,0.135,as,
149.0,0.5004,1.2,1.0,0.35862,0.25854,0.81732,149.0,1.9599,-0.95,-0.47538,0.02502,5.0,lapse_rate,2.0,True,0.425,0.0,False,right,-0.0834,0.2933,0.452,0.1587,1.2433,1.7933,0.55,A,0.135,as,
150.0,0.5004,1.2,1.0,0.30024,0.32526,0.6255,150.0,2.07666,-0.35,-0.17514,0.32526,5.0,1D2U,2.0,True,0.132,14.0,False,right,0.1668,0.2313,0.6889,0.4576,1.1648,1.9647,0.8,A,0.135,as,
151.0,0.5004,1.2,1.0,0.23352,0.2502,0.82566,151.0,2.4186,0.21,0.10842,0.60882,5.0,2D1U,2.0,False,0.409,11.0,True,right,-0.0834,0.1694,0.911,0.7416,1.7111,2.2607,0.5497,A,0.135,as,
152.0,0.5004,0.1,1.0,0.32526,0.417,0.52542,152.0,2.71884,0.9,0.45036,0.95076,5.0,lapse_rate,1.0,True,0.15,0.0,False,left,0.1668,0.255,1.338,1.083,1.7129,2.5129,0.8,A,0.13,as,
153.0,0.5004,0.1,2.0,0.3753,0.23352,0.59214,153.0,2.32686,0.25,0.1251,0.6255,5.0,2D1U,1.0,False,0.416,12.0,True,left,-0.0834,1.4235,2.1812,0.7577,0.3487,0.898,0.5493,A,0.13,as,
154.0,0.5004,0.1,1.0,0.32526,0.2502,0.67554,154.0,2.07666,-0.35,-0.17514,0.32526,5.0,1D2U,1.0,False,0.417,14.0,False,left,0.1668,0.2569,0.7154,0.4585,1.2403,2.0403,0.8001,A,0.13,as,
155.0,0.5004,1.2,2.0,0.2919,0.27522,0.7089,155.0,2.085,-0.39,-0.19182,0.30858,5.0,1D2U,2.0,False,0.809,14.0,False,right,-0.0834,1.4619,1.9031,0.4413,0.2704,0.8203,0.5499,A,0.135,as,
156.0,0.5004,0.1,2.0,0.22518,0.35028,0.67554,156.0,1.77642,-0.95,-0.47538,0.02502,5.0,lapse_rate,1.0,True,0.467,0.0,False,left,0.1668,1.4804,1.6387,0.1584,0.0722,0.872,0.7998,A,0.13,as,
157.0,0.5004,1.2,1.0,0.23352,0.30858,0.5421,157.0,2.22678,0.29,0.14178,0.64218,5.0,2D1U,2.0,False,0.426,12.0,False,right,-0.0834,0.1647,0.9399,0.7752,1.4565,2.0062,0.5497,A,0.135,as,
158.0,0.5004,0.1,1.0,0.28356,0.39198,0.7089,158.0,2.1684,-0.43,-0.21684,0.28356,5.0,1D2U,1.0,False,0.425,14.0,False,left,0.1668,0.2153,0.6319,0.4166,1.1906,1.9902,0.7996,A,0.13,as,
159.0,0.5004,1.2,2.0,0.42534,0.30024,0.46704,159.0,1.71804,-0.95,-0.47538,0.02502,5.0,lapse_rate,1.0,True,0.376,0.0,False,left,-0.0834,1.3479,1.5064,0.1585,0.3977,0.9478,0.5501,A,0.135,as,
160.0,0.5004,0.1,2.0,0.34194,0.39198,0.65052,160.0,2.55204,0.33,0.1668,0.6672,5.0,2D1U,1.0,False,0.208,12.0,False,left,0.1668,1.5771,2.3771,0.8,0.1937,0.9937,0.8,A,0.13,as,
161.0,0.5004,1.2,2.0,0.3336,0.43368,0.59214,161.0,1.88484,-0.95,-0.47538,0.02502,5.0,lapse_rate,1.0,True,0.541,0.0,False,left,-0.0834,1.3828,1.5406,0.1577,0.3083,0.8574,0.5491,A,0.135,as,
162.0,0.5004,1.2,2.0,0.3753,0.2919,0.60048,162.0,2.03496,-0.47,-0.23352,0.26688,5.0,1D2U,1.0,True,0.583,14.0,False,left,0.1668,1.5615,1.9614,0.3999,0.2281,1.0281,0.8,A,0.135,as,
163.0,0.5004,1.2,1.0,0.26688,0.39198,0.40866,163.0,2.2518,0.37,0.18348,0.68388,5.0,2D1U,1.0,True,0.525,12.0,False,left,-0.0834,0.1965,1.0125,0.816,1.3966,1.9465,0.5499,A,0.135,as,
164.0,0.5004,0.1,1.0,0.3753,0.31692,0.78396,164.0,2.66046,0.37,0.18348,0.68388,5.0,2D1U,1.0,True,0.316,12.0,False,left,0.1668,0.3087,1.125,0.8164,1.7586,2.5586,0.7999,A,0.13,as,
165.0,0.5004,0.1,2.0,0.28356,0.32526,0.74226,165.0,2.11836,-0.47,-0.23352,0.26688,5.0,1D2U,1.0,True,0.434,14.0,False,left,-0.0834,1.4857,1.8854,0.3997,0.2609,0.8107,0.5498,A,0.13,as,
166.0,0.5004,0.1,2.0,0.26688,0.28356,0.82566,166.0,1.90152,-0.95,-0.47538,0.02502,5.0,lapse_rate,1.0,True,0.408,0.0,False,left,0.1668,1.6739,1.8324,0.1585,0.1158,0.9154,0.7996,A,0.13,as,
167.0,0.5004,1.2,2.0,0.2085,0.28356,0.49206,167.0,1.76808,-0.43,-0.21684,0.28356,5.0,1D2U,2.0,False,2.083,15.0,True,right,-0.0834,1.153,1.5703,0.4173,0.1791,0.729,0.5499,A,0.135,as,
168.0,0.5004,1.2,1.0,0.45036,0.31692,0.74226,168.0,2.67714,0.33,0.1668,0.6672,5.0,2D1U,2.0,False,0.55,13.0,True,right,0.1668,0.3858,1.1858,0.8,1.7777,2.5779,0.8002,A,0.135,as,
169.0,0.5004,1.2,2.0,0.42534,0.42534,0.51708,169.0,2.81892,0.9,0.45036,0.95076,5.0,lapse_rate,2.0,True,0.418,0.0,False,right,-0.0834,1.3971,2.4808,1.0837,0.3975,0.9475,0.55,A,0.135,as,
170.0,0.5004,0.1,2.0,0.44202,0.35862,0.63384,170.0,2.20176,-0.47,-0.23352,0.26688,5.0,1D2U,1.0,True,0.425,16.0,True,left,0.1668,1.655,2.0557,0.4007,0.2882,1.0879,0.7997,A,0.13,as,
171.0,0.5004,0.1,1.0,0.417,0.38364,0.50874,171.0,2.49366,0.37,0.18348,0.68388,5.0,2D1U,1.0,True,0.384,14.0,True,left,-0.0834,0.3467,1.1627,0.816,1.6466,2.1969,0.5502,A,0.13,as,
172.0,0.5004,1.2,2.0,0.43368,0.35028,0.65052,172.0,2.61876,0.37,0.18348,0.68388,5.0,2D1U,2.0,True,0.367,14.0,True,right,0.1668,1.6645,2.4812,0.8167,0.2812,1.0816,0.8004,A,0.135,as,
173.0,0.5004,1.2,1.0,0.42534,0.45036,0.75894,173.0,2.80224,0.33,0.1668,0.6672,5.0,2D1U,2.0,False,0.433,15.0,True,right,-0.0834,0.3537,1.1538,0.8001,1.8871,2.4373,0.5502,A,0.135,as,
174.0,0.5004,0.1,2.0,0.26688,0.26688,0.85068,174.0,2.56872,0.37,0.18348,0.68388,5.0,2D1U,2.0,True,0.166,16.0,True,right,0.1668,1.6985,2.515,0.8166,0.1154,0.915,0.7996,A,0.13,as,
175.0,0.5004,0.1,2.0,0.30858,0.42534,0.88404,175.0,2.38524,-0.47,-0.23352,0.26688,5.0,1D2U,1.0,True,0.525,16.0,True,left,-0.0834,1.6516,2.0516,0.4,0.2849,0.8346,0.5497,A,0.13,as,
176.0,0.5004,1.2,1.0,0.40032,0.28356,0.76728,176.0,2.63544,0.37,0.18348,0.68388,5.0,2D1U,1.0,True,0.316,16.0,True,left,0.1668,0.3372,1.1538,0.8166,1.7701,2.5699,0.7998,A,0.135,as,
177.0,0.5004,1.2,2.0,0.35028,0.32526,0.55044,177.0,2.00994,-0.43,-0.21684,0.28356,5.0,1D2U,1.0,True,0.559,17.0,True,left,-0.0834,1.3562,1.7725,0.4163,0.3223,0.8726,0.5503,A,0.135,as,
178.0,0.5004,0.1,2.0,0.24186,0.40032,0.74226,178.0,2.55204,0.33,0.1668,0.6672,5.0,2D1U,2.0,True,0.433,17.0,True,right,0.1668,1.5649,2.365,0.8001,0.09,0.8902,0.8001,A,0.13,as,
179.0,0.5004,0.1,2.0,0.35028,0.35028,0.7089,179.0,2.19342,-0.43,-0.21684,0.28356,5.0,1D2U,1.0,True,0.507,17.0,True,left,-0.0834,1.5122,1.929,0.4168,0.3204,0.8704,0.55,A,0.13,as,
180.0,0.5004,1.2,1.0,0.35028,0.23352,0.834,180.0,2.22678,-0.39,-0.19182,0.30858,5.0,1D2U,2.0,True,0.26,17.0,False,right,0.1668,0.2787,0.7202,0.4416,1.4037,2.2036,0.7999,A,0.135,as,
181.0,0.5004,1.2,2.0,0.34194,0.27522,0.81732,181.0,2.60208,0.33,0.1668,0.6672,5.0,2D1U,2.0,True,0.909,17.0,True,right,-0.0834,1.6148,2.4147,0.7999,0.3147,0.8647,0.55,A,0.135,as,
182.0,0.5004,0.1,1.0,0.42534,0.35028,0.57546,182.0,2.16006,-0.39,-0.19182,0.30858,5.0,1D2U,2.0,True,0.375,17.0,False,right,0.1668,0.3619,0.8035,0.4416,1.2285,2.0284,0.8,A,0.13,as,
183.0,0.5004,0.1,1.0,0.25854,0.40866,0.85068,183.0,2.34354,-0.35,-0.17514,0.32526,5.0,1D2U,2.0,True,0.333,17.0,False,right,-0.0834,0.193,0.6513,0.4583,1.4758,2.0261,0.5503,A,0.13,as,
184.0,0.5004,1.2,2.0,0.22518,0.22518,0.84234,184.0,2.43528,0.29,0.14178,0.64218,5.0,2D1U,2.0,True,0.124,17.0,False,right,0.1668,1.6467,2.4216,0.7749,0.0717,0.8715,0.7998,A,0.135,as,
185.0,0.5004,1.2,1.0,0.34194,0.40032,0.5004,185.0,2.38524,0.29,0.14178,0.64218,5.0,2D1U,2.0,False,0.501,17.0,False,right,-0.0834,0.2734,1.049,0.7755,1.5227,2.0731,0.5505,A,0.135,as,
186.0,0.5004,0.1,1.0,0.30024,0.43368,0.65052,186.0,2.2101,-0.35,-0.17514,0.32526,5.0,1D2U,2.0,True,0.3,17.0,False,right,0.1668,0.2325,0.6909,0.4584,1.1909,1.9909,0.8001,A,0.13,as,
187.0,0.5004,0.1,2.0,0.40032,0.3336,0.4587,187.0,2.36022,0.33,0.1668,0.6672,5.0,2D1U,2.0,True,0.442,18.0,True,right,-0.0834,1.3185,2.1187,0.8001,0.3766,0.9267,0.5501,A,0.13,as,
188.0,0.5004,1.2,2.0,0.2502,0.36696,0.5421,188.0,2.32686,0.33,0.1668,0.6672,5.0,2D1U,2.0,True,0.343,18.0,True,right,0.1668,1.3765,2.1762,0.7997,0.1017,0.9012,0.7996,A,0.135,as,
189.0,0.5004,1.2,2.0,0.24186,0.40032,0.4587,189.0,1.94322,-0.31,-0.15846,0.34194,5.0,1D2U,2.0,False,0.525,17.0,False,right,-0.0834,1.1573,1.6323,0.475,0.2155,0.7657,0.5501,A,0.135,as,
190.0,0.5004,0.1,2.0,0.23352,0.40866,0.84234,190.0,2.6271,0.29,0.14178,0.64218,5.0,2D1U,2.0,True,0.157,19.0,True,right,0.1668,1.6592,2.4338,0.7746,0.0837,0.8842,0.8006,A,0.13,as,
191.0,0.5004,0.1,1.0,0.24186,0.3753,0.47538,191.0,2.23512,0.29,0.14178,0.64218,5.0,2D1U,2.0,False,0.559,19.0,True,right,-0.0834,0.1722,0.9474,0.7752,1.3971,1.9472,0.5501,A,0.13,as,
192.0,0.5004,1.2,1.0,0.3336,0.26688,0.70056,192.0,2.1267,-0.35,-0.17514,0.32526,5.0,1D2U,2.0,True,0.308,18.0,True,right,0.1668,0.2693,0.7275,0.4581,1.2775,2.0775,0.8,A,0.135,as,
193.0,0.5004,1.2,2.0,0.35028,0.417,0.4587,193.0,2.05164,-0.35,-0.17514,0.32526,5.0,1D2U,2.0,False,0.817,18.0,True,right,-0.0834,1.2652,1.7227,0.4574,0.3233,0.8737,0.5505,A,0.135,as,
194.0,0.5004,0.1,1.0,0.39198,0.36696,0.50874,194.0,2.43528,0.33,0.1668,0.6672,5.0,2D1U,1.0,True,0.267,20.0,True,left,0.1668,0.3263,1.1263,0.8,1.4846,2.2852,0.8006,A,0.13,as,
195.0,0.5004,0.1,2.0,0.3336,0.38364,0.40866,195.0,1.93488,-0.39,-0.19182,0.30858,5.0,1D2U,1.0,True,0.359,18.0,False,left,-0.0834,1.2019,1.6435,0.4416,0.3096,0.86,0.5504,A,0.13,as,
196.0,0.5004,1.2,2.0,0.38364,0.28356,0.80064,196.0,2.63544,0.33,0.1668,0.6672,5.0,2D1U,2.0,True,0.399,20.0,True,right,0.1668,1.7645,2.5644,0.7999,0.2311,1.0312,0.8001,A,0.135,as,
197.0,0.5004,1.2,2.0,0.24186,0.44202,0.53376,197.0,2.02662,-0.39,-0.19182,0.30858,5.0,1D2U,1.0,True,0.492,18.0,False,left,-0.0834,1.2347,1.676,0.4413,0.2176,0.7677,0.5501,A,0.135,as,
198.0,0.5004,0.1,2.0,0.26688,0.36696,0.75894,198.0,2.53536,0.29,0.14178,0.64218,5.0,2D1U,2.0,True,0.375,21.0,True,right,0.1668,1.6056,2.3808,0.7753,0.1141,0.9141,0.8,A,0.13,as,
199.0,0.5004,0.1,1.0,0.22518,0.26688,0.86736,199.0,2.18508,-0.35,-0.17514,0.32526,5.0,1D2U,2.0,True,0.416,19.0,True,right,-0.0834,0.1535,0.6119,0.4584,1.4538,2.0034,0.5496,A,0.13,as,
200.0,0.5004,1.2,1.0,0.3336,0.40866,0.53376,200.0,2.4186,0.29,0.14178,0.64218,5.0,2D1U,2.0,False,0.383,21.0,True,right,0.1668,0.2702,1.0451,0.775,1.4285,2.2278,0.7992,A,0.135,as,
201.0,0.5004,1.2,1.0,0.43368,0.45036,0.42534,201.0,2.13504,-0.35,-0.17514,0.32526,5.0,1D2U,1.0,False,0.475,19.0,True,left,-0.0834,0.3638,0.8223,0.4585,1.2222,1.7718,0.5496,A,0.135,as,
202.0,0.5004,0.1,1.0,0.28356,0.35862,0.45036,202.0,2.26014,0.33,0.1668,0.6672,5.0,2D1U,1.0,True,0.526,22.0,True,left,0.1668,0.219,1.0182,0.7993,1.3185,2.1179,0.7994,A,0.13,as,
203.0,0.5004,0.1,1.0,0.42534,0.32526,0.56712,203.0,2.1267,-0.39,-0.19182,0.30858,5.0,1D2U,2.0,True,0.392,20.0,True,right,-0.0834,0.3593,0.8013,0.442,1.3425,1.8931,0.5507,A,0.13,as,
204.0,0.5004,1.2,1.0,0.27522,0.3753,0.46704,204.0,2.28516,0.33,0.1668,0.6672,5.0,2D1U,1.0,True,1.783,22.0,True,left,0.1668,0.2118,1.0112,0.7994,1.3284,2.1285,0.8001,A,0.135,as,
205.0,0.5004,1.2,2.0,0.30024,0.2502,0.73392,205.0,2.42694,0.29,0.14178,0.64218,5.0,2D1U,2.0,True,0.4,23.0,True,right,-0.0834,1.4929,2.268,0.7751,0.2765,0.8261,0.5496,A,0.135,as,
206.0,0.5004,0.1,1.0,0.30858,0.40866,0.80898,206.0,2.6688,0.29,0.14178,0.64218,5.0,2D1U,1.0,True,0.409,23.0,True,left,0.1668,0.2402,1.0152,0.775,1.6736,2.4727,0.7991,A,0.13,as,
207.0,0.5004,0.1,2.0,0.30858,0.35028,0.40866,207.0,1.8765,-0.39,-0.19182,0.30858,5.0,1D2U,1.0,True,0.567,20.0,True,left,-0.0834,1.1701,1.6117,0.4416,0.2784,0.8283,0.5499,A,0.13,as,
208.0,0.5004,1.2,1.0,0.35028,0.20016,0.67554,208.0,2.05164,-0.35,-0.17514,0.32526,5.0,1D2U,1.0,False,0.483,21.0,True,left,0.1668,0.2804,0.7393,0.4589,1.2639,2.0641,0.8002,A,0.135,as,
209.0,0.5004,1.2,2.0,0.40032,0.30024,0.71724,209.0,2.22678,-0.39,-0.19182,0.30858,5.0,1D2U,1.0,True,0.35,22.0,True,left,-0.0834,1.5737,2.0156,0.4419,0.3731,0.9241,0.5509,A,0.135,as,
210.0,0.5004,0.1,1.0,0.36696,0.30858,0.7089,210.0,2.51034,0.25,0.1251,0.6255,5.0,2D1U,1.0,True,0.115,23.0,False,left,0.1668,0.3007,1.0591,0.7583,1.6172,2.4175,0.8002,A,0.13,as,
211.0,0.5004,0.1,1.0,0.36696,0.2502,0.7089,211.0,2.13504,-0.39,-0.19182,0.30858,5.0,1D2U,2.0,True,0.25,22.0,True,right,-0.0834,0.2952,0.7371,0.4419,1.4203,1.9709,0.5506,A,0.13,as,
212.0,0.5004,1.2,1.0,0.43368,0.3753,0.8757,212.0,2.81058,0.25,0.1251,0.6255,5.0,2D1U,1.0,True,0.766,23.0,False,left,0.1668,0.3636,1.1222,0.7586,1.8469,2.647,0.8001,A,0.135,as,
213.0,0.5004,1.2,1.0,0.30024,0.25854,0.49206,213.0,1.8765,-0.35,-0.17514,0.32526,5.0,1D2U,1.0,False,0.326,23.0,True,left,-0.0834,0.2312,0.6893,0.4581,1.1557,1.706,0.5504,A,0.135,as,
214.0,0.5004,0.1,2.0,0.25854,0.40866,0.80064,214.0,2.27682,-0.39,-0.19182,0.30858,5.0,1D2U,1.0,True,0.409,24.0,True,left,0.1668,1.6442,2.086,0.4417,0.1111,0.9109,0.7998,A,0.13,as,
215.0,0.5004,0.1,1.0,0.40032,0.23352,0.42534,215.0,2.1684,0.21,0.10842,0.60882,5.0,2D1U,2.0,False,0.492,23.0,False,right,-0.0834,0.331,1.0721,0.7411,1.4721,2.0222,0.5501,A,0.13,as,
216.0,0.5004,1.2,1.0,0.21684,0.27522,0.64218,216.0,1.94322,-0.39,-0.19182,0.30858,5.0,1D2U,2.0,True,1.509,24.0,True,right,0.1668,0.1457,0.5873,0.4417,1.0796,1.8789,0.7993,A,0.135,as,
217.0,0.5004,1.2,1.0,0.27522,0.3336,0.68388,217.0,2.11836,-0.35,-0.17514,0.32526,5.0,1D2U,2.0,True,0.342,25.0,True,right,-0.0834,0.2062,0.6647,0.4585,1.3231,1.8729,0.5498,A,0.135,as,
218.0,0.5004,0.1,1.0,0.42534,0.39198,0.81732,218.0,2.76054,0.25,0.1251,0.6255,5.0,2D1U,2.0,False,0.299,24.0,True,right,0.1668,0.3577,1.1156,0.7579,1.7823,2.5825,0.8002,A,0.13,as,
219.0,0.5004,0.1,2.0,0.20016,0.2919,0.64218,219.0,1.9599,-0.35,-0.17514,0.32526,5.0,1D2U,2.0,False,1.358,25.0,True,right,-0.0834,1.3031,1.7612,0.4581,0.1782,0.728,0.5499,A,0.13,as,
220.0,0.5004,1.2,2.0,0.40032,0.30024,0.63384,220.0,2.47698,0.29,0.14178,0.64218,5.0,2D1U,2.0,True,0.409,24.0,False,right,0.1668,1.6194,2.394,0.7746,0.2525,1.0528,0.8003,A,0.135,as,
221.0,0.5004,1.2,1.0,0.27522,0.417,0.50874,221.0,2.00994,-0.39,-0.19182,0.30858,5.0,1D2U,1.0,False,0.112,26.0,True,left,-0.0834,0.2106,0.6523,0.4417,1.1356,1.6855,0.5499,A,0.135,as,
222.0,0.5004,0.1,2.0,0.43368,0.21684,0.82566,222.0,2.61876,0.29,0.14178,0.64218,5.0,2D1U,1.0,False,0.417,24.0,False,left,0.1668,1.8409,2.615,0.7742,0.2821,1.082,0.7999,A,0.13,as,
223.0,0.5004,0.1,1.0,0.30024,0.25854,0.60048,223.0,1.94322,-0.43,-0.21684,0.28356,5.0,1D2U,2.0,True,0.433,26.0,False,right,-0.0834,0.2295,0.6462,0.4167,1.2209,1.771,0.5501,A,0.13,as,
224.0,0.5004,1.2,1.0,0.21684,0.40032,0.69222,224.0,2.47698,0.33,0.1668,0.6672,5.0,2D1U,2.0,False,0.114,24.0,False,right,0.1668,0.1531,0.953,0.7999,1.4945,2.2945,0.8,A,0.135,as,
225.0,0.5004,1.2,2.0,0.39198,0.417,0.834,225.0,2.42694,-0.43,-0.21684,0.28356,5.0,1D2U,2.0,False,0.649,26.0,False,right,-0.0834,1.6828,2.0996,0.4168,0.3666,0.9159,0.5493,A,0.135,as,
226.0,0.5004,0.1,2.0,0.23352,0.35028,0.63384,226.0,2.40192,0.37,0.18348,0.68388,5.0,2D1U,1.0,False,0.535,24.0,False,left,0.1668,1.4529,2.2703,0.8174,0.0868,0.8864,0.7996,A,0.13,as,
227.0,0.5004,0.1,1.0,0.24186,0.2502,0.89238,227.0,2.59374,0.41,0.2085,0.7089,5.0,2D1U,1.0,True,0.424,24.0,False,left,-0.0834,0.1734,1.0155,0.8421,1.8819,2.4312,0.5493,A,0.13,as,
228.0,0.5004,1.2,1.0,0.43368,0.2085,0.69222,228.0,2.5437,0.41,0.2085,0.7089,5.0,2D1U,1.0,True,0.567,24.0,False,left,0.1668,0.3696,1.2112,0.8416,1.7532,2.5529,0.7998,A,0.135,as,
229.0,0.5004,1.2,2.0,0.3336,0.35862,0.77562,229.0,2.23512,-0.47,-0.23352,0.26688,5.0,1D2U,1.0,True,0.392,26.0,False,left,-0.0834,1.5647,1.9647,0.4,0.3057,0.8565,0.5508,A,0.135,as,
230.0,0.5004,0.1,1.0,0.28356,0.34194,0.47538,230.0,2.28516,0.37,0.18348,0.68388,5.0,2D1U,1.0,True,0.4,25.0,True,left,0.1668,0.2198,1.0362,0.8164,1.3613,2.1611,0.7997,A,0.13,as,
231.0,0.5004,0.1,1.0,0.42534,0.42534,0.4587,231.0,2.07666,-0.47,-0.23352,0.26688,5.0,1D2U,2.0,True,0.459,26.0,False,right,-0.0834,0.3574,0.7583,0.4009,1.1916,1.7416,0.5499,A,0.13,as,
232.0,0.5004,1.2,1.0,0.36696,0.31692,0.72558,232.0,2.19342,-0.43,-0.21684,0.28356,5.0,1D2U,2.0,True,0.114,27.0,True,right,0.1668,0.2973,0.714,0.4167,1.2893,2.088,0.7987,A,0.135,as,
233.0,0.5004,1.2,1.0,0.42534,0.3336,0.56712,233.0,2.11002,-0.43,-0.21684,0.28356,5.0,1D2U,2.0,True,0.299,27.0,True,right,-0.0834,0.361,0.7779,0.4169,1.3193,1.8692,0.55,A,0.135,as,
234.0,0.5004,0.1,2.0,0.42534,0.417,0.5004,234.0,2.15172,-0.39,-0.19182,0.30858,5.0,1D2U,1.0,True,0.383,27.0,False,left,0.1668,1.5062,1.9482,0.442,0.2735,1.0733,0.7999,A,0.13,as,
235.0,0.5004,0.1,2.0,0.26688,0.24186,0.72558,235.0,2.4186,0.37,0.18348,0.68388,5.0,2D1U,2.0,True,0.425,25.0,True,right,-0.0834,1.4469,2.2636,0.8168,0.2386,0.7878,0.5492,A,0.13,as,
236.0,0.5004,1.2,2.0,0.42534,0.35862,0.64218,236.0,2.59374,0.33,0.1668,0.6672,5.0,2D1U,1.0,False,1.609,25.0,False,left,0.1668,1.6478,2.448,0.8002,0.273,1.073,0.8,A,0.135,as,
237.0,0.5004,1.2,2.0,0.35028,0.40866,0.55044,237.0,2.49366,0.37,0.18348,0.68388,5.0,2D1U,2.0,True,0.709,26.0,True,right,-0.0834,1.355,2.1719,0.8169,0.3222,0.8711,0.5489,A,0.135,as,
238.0,0.5004,0.1,2.0,0.32526,0.3336,0.73392,238.0,2.20176,-0.39,-0.19182,0.30858,5.0,1D2U,1.0,True,0.375,27.0,False,left,0.1668,1.6433,2.0848,0.4415,0.1759,0.9765,0.8006,A,0.13,as,
239.0,0.5004,0.1,1.0,0.3753,0.35862,0.89238,239.0,2.81058,0.37,0.18348,0.68388,5.0,2D1U,1.0,True,0.383,26.0,True,left,-0.0834,0.3086,1.1253,0.8167,1.9921,2.5422,0.5501,A,0.13,as,
240.0,0.5004,1.2,1.0,0.2085,0.22518,0.44202,240.0,1.70136,-0.35,-0.17514,0.32526,5.0,1D2U,1.0,False,0.775,27.0,False,left,0.1668,0.1408,0.5991,0.4583,0.8909,1.6913,0.8004,A,0.135,as,
241.0,0.5004,1.2,1.0,0.43368,0.43368,0.40866,241.0,2.44362,0.33,0.1668,0.6672,5.0,2D1U,1.0,True,0.391,27.0,True,left,-0.0834,0.3683,1.1689,0.8006,1.5523,2.1025,0.5502,A,0.135,as,
242.0,0.5004,0.1,1.0,0.36696,0.417,0.7923,242.0,2.74386,0.33,0.1668,0.6672,5.0,2D1U,2.0,False,0.317,27.0,True,right,0.1668,0.2985,1.0985,0.8001,1.7402,2.5401,0.7999,A,0.13,as,
243.0,0.5004,0.1,1.0,0.27522,0.35862,0.77562,243.0,2.59374,0.37,0.18348,0.68388,5.0,2D1U,1.0,True,0.525,28.0,True,left,-0.0834,0.2087,1.0254,0.8167,1.7757,2.3251,0.5495,A,0.13,as,
244.0,0.5004,1.2,1.0,0.24186,0.2085,0.417,244.0,1.67634,-0.39,-0.19182,0.30858,5.0,1D2U,2.0,True,0.409,28.0,True,right,0.1668,0.1723,0.6137,0.4414,0.8803,1.6805,0.8002,A,0.135,as,
245.0,0.5004,1.2,2.0,0.23352,0.30024,0.5838,245.0,2.30184,0.37,0.18348,0.68388,5.0,2D1U,2.0,True,0.367,28.0,True,right,-0.0834,1.2747,2.0913,0.8166,0.208,0.7579,0.5499,A,0.135,as,
246.0,0.5004,0.1,2.0,0.26688,0.35862,0.81732,246.0,2.2518,-0.39,-0.19182,0.30858,5.0,1D2U,1.0,True,0.424,28.0,True,left,0.1668,1.6679,2.1093,0.4414,0.1168,0.9175,0.8007,A,0.13,as,
247.0,0.5004,0.1,2.0,0.31692,0.26688,0.46704,247.0,2.21844,0.33,0.1668,0.6672,5.0,2D1U,2.0,True,0.584,29.0,True,right,-0.0834,1.2441,2.0438,0.7998,0.2928,0.8434,0.5506,A,0.13,as,
248.0,0.5004,1.2,2.0,0.2919,0.32526,0.65052,248.0,2.09334,-0.35,-0.17514,0.32526,5.0,1D2U,1.0,True,0.4,29.0,True,left,0.1668,1.5241,1.9829,0.4587,0.1412,0.9409,0.7997,A,0.135,as,
249.0,0.5004,1.2,1.0,0.44202,0.43368,0.52542,249.0,2.56872,0.33,0.1668,0.6672,5.0,2D1U,1.0,True,0.95,29.0,True,left,-0.0834,0.3753,1.1758,0.8005,1.6754,2.2255,0.5502,A,0.135,as,
250.0,0.5004,0.1,1.0,0.30024,0.3753,0.68388,250.0,2.18508,-0.35,-0.17514,0.32526,5.0,1D2U,2.0,True,0.216,29.0,True,right,0.1668,0.2311,0.6896,0.4586,1.2229,2.0229,0.7999,A,0.13,as,
251.0,0.5004,0.1,1.0,0.43368,0.35028,0.43368,251.0,2.36022,0.29,0.14178,0.64218,5.0,2D1U,2.0,False,0.592,29.0,False,right,-0.0834,0.3686,1.143,0.7744,1.5519,2.1017,0.5498,A,0.13,as,
252.0,0.5004,1.2,1.0,0.25854,0.22518,0.76728,252.0,2.4186,0.33,0.1668,0.6672,5.0,2D1U,2.0,False,0.509,30.0,True,right,0.1668,0.1883,0.9886,0.8003,1.6055,2.4056,0.8001,A,0.135,as,
253.0,0.5004,1.2,1.0,0.3336,0.417,0.47538,253.0,2.06832,-0.31,-0.15846,0.34194,5.0,1D2U,2.0,True,2.401,29.0,False,right,-0.0834,0.2655,0.7408,0.4752,1.1903,1.7409,0.5506,A,0.135,as,
254.0,0.5004,0.1,1.0,0.44202,0.21684,0.52542,254.0,2.36856,0.37,0.18348,0.68388,5.0,2D1U,1.0,True,0.384,30.0,False,left,0.1668,0.3776,1.1944,0.8168,1.5686,2.3694,0.8008,A,0.13,as,
255.0,0.5004,0.1,2.0,0.28356,0.40866,0.75894,255.0,2.2935,-0.31,-0.15846,0.34194,5.0,1D2U,1.0,True,0.384,29.0,False,left,-0.0834,1.4984,1.9735,0.4751,0.257,0.8065,0.5496,A,0.13,as,
256.0,0.5004,1.2,2.0,0.32526,0.2502,0.85068,256.0,2.61042,0.37,0.18348,0.68388,5.0,2D1U,2.0,True,0.416,30.0,False,right,0.1668,1.7544,2.5704,0.816,0.1714,0.9709,0.7995,A,0.135,as,
257.0,0.5004,1.2,2.0,0.2919,0.43368,0.7923,257.0,2.68548,0.33,0.1668,0.6672,5.0,2D1U,2.0,True,0.518,31.0,True,right,-0.0834,1.5403,2.3401,0.7998,0.2654,0.8147,0.5493,A,0.135,as,
258.0,0.5004,0.1,2.0,0.3753,0.43368,0.77562,258.0,2.7522,0.33,0.1668,0.6672,5.0,2D1U,2.0,True,1.35,31.0,True,right,0.1668,1.737,2.5374,0.8004,0.2286,1.0288,0.8002,A,0.13,as,
259.0,0.5004,0.1,1.0,0.35862,0.22518,0.46704,259.0,1.9182,-0.27,-0.13344,0.36696,5.0,1D2U,2.0,True,0.608,29.0,False,right,-0.0834,0.2871,0.7872,0.5001,1.2289,1.7787,0.5498,A,0.13,as,
260.0,0.5004,1.2,2.0,0.30858,0.31692,0.60882,260.0,2.3769,0.29,0.14178,0.64218,5.0,2D1U,2.0,True,0.625,31.0,False,right,0.1668,1.4996,2.2745,0.7749,0.1578,0.9577,0.7999,A,0.135,as,
261.0,0.5004,1.2,2.0,0.31692,0.40032,0.51708,261.0,2.3769,0.29,0.14178,0.64218,5.0,2D1U,2.0,True,0.259,31.0,False,right,-0.0834,1.2883,2.0636,0.7752,0.2889,0.8377,0.5489,A,0.135,as,
262.0,0.5004,0.1,2.0,0.39198,0.24186,0.44202,262.0,1.94322,-0.27,-0.13344,0.36696,5.0,1D2U,2.0,False,0.625,29.0,False,right,0.1668,1.4154,1.9155,0.5001,0.2403,1.0405,0.8001,A,0.13,as,
263.0,0.5004,0.1,2.0,0.31692,0.3753,0.6672,263.0,2.20176,-0.31,-0.15846,0.34194,5.0,1D2U,1.0,True,0.508,30.0,True,left,-0.0834,1.4435,1.9186,0.4751,0.2938,0.8437,0.55,A,0.13,as,
264.0,0.5004,1.2,2.0,0.30024,0.3753,0.70056,264.0,2.21844,-0.31,-0.15846,0.34194,5.0,1D2U,1.0,True,0.434,30.0,True,left,0.1668,1.5846,2.0594,0.4748,0.1512,0.9514,0.8001,A,0.135,as,
265.0,0.5004,1.2,2.0,0.2502,0.2085,0.7089,265.0,2.2935,0.25,0.1251,0.6255,5.0,2D1U,1.0,False,0.192,31.0,False,left,-0.0834,1.4136,2.1717,0.7581,0.2216,0.7717,0.5502,A,0.135,as,
266.0,0.5004,0.1,2.0,0.27522,0.2085,0.46704,266.0,2.09334,0.29,0.14178,0.64218,5.0,2D1U,2.0,True,0.426,32.0,True,right,0.1668,1.3272,2.1022,0.7749,0.1274,0.9273,0.7999,A,0.13,as,
267.0,0.5004,0.1,2.0,0.25854,0.35028,0.71724,267.0,2.46864,0.29,0.14178,0.64218,5.0,2D1U,2.0,True,0.4,32.0,True,right,-0.0834,1.43,2.2053,0.7753,0.2302,0.7804,0.5501,A,0.13,as,
268.0,0.5004,1.2,1.0,0.23352,0.44202,0.8757,268.0,2.4186,-0.27,-0.13344,0.36696,5.0,1D2U,2.0,True,0.425,31.0,True,right,0.1668,0.1643,0.6641,0.4998,1.3892,2.1884,0.7992,A,0.135,as,
269.0,0.5004,1.2,2.0,0.2085,0.26688,0.47538,269.0,2.07666,0.25,0.1251,0.6255,5.0,2D1U,2.0,True,0.375,33.0,True,right,-0.0834,1.1399,1.8987,0.7589,0.1814,0.7315,0.5501,A,0.135,as,
270.0,0.5004,0.1,1.0,0.28356,0.43368,0.73392,270.0,2.31852,-0.27,-0.13344,0.36696,5.0,1D2U,2.0,True,0.4,31.0,True,right,0.1668,0.2135,0.7127,0.4992,1.2967,2.0967,0.8,A,0.13,as,
271.0,0.5004,0.1,2.0,0.38364,0.23352,0.5838,271.0,2.085,-0.23,-0.11676,0.38364,5.0,1D2U,1.0,True,0.567,31.0,False,left,-0.0834,1.4229,1.9395,0.5166,0.3563,0.9063,0.55,A,0.13,as,
272.0,0.5004,1.2,1.0,0.24186,0.30024,0.81732,272.0,2.24346,-0.23,-0.11676,0.38364,5.0,1D2U,2.0,True,0.375,31.0,False,right,0.1668,0.1727,0.69,0.5174,1.3567,2.1567,0.8,A,0.135,as,
273.0,0.5004,1.2,1.0,0.30858,0.38364,0.74226,273.0,2.34354,-0.19,-0.09174,0.40866,5.0,1D2U,2.0,True,0.46,31.0,False,right,-0.0834,0.24,0.7811,0.5411,1.4983,2.0483,0.5501,A,0.135,as,
274.0,0.5004,0.1,1.0,0.34194,0.32526,0.7923,274.0,2.5854,0.25,0.1251,0.6255,5.0,2D1U,1.0,True,0.424,33.0,True,left,0.1668,0.2745,1.0329,0.7584,1.6744,2.4745,0.8001,A,0.13,as,
275.0,0.5004,0.1,1.0,0.32526,0.3753,0.72558,275.0,2.53536,0.21,0.10842,0.60882,5.0,2D1U,1.0,True,0.316,33.0,False,left,-0.0834,0.2594,1.0011,0.7417,1.7011,2.2511,0.55,A,0.13,as,
276.0,0.5004,1.2,1.0,0.40032,0.26688,0.68388,276.0,2.26014,-0.19,-0.09174,0.40866,5.0,1D2U,2.0,True,0.292,31.0,False,right,0.1668,0.3348,0.8762,0.5414,1.4095,2.2096,0.8001,A,0.135,as,
277.0,0.5004,1.2,1.0,0.26688,0.42534,0.51708,277.0,2.13504,-0.15,-0.07506,0.42534,5.0,1D2U,1.0,False,0.267,31.0,False,left,-0.0834,0.1974,0.7556,0.5582,1.2477,1.7978,0.55,A,0.135,as,
278.0,0.5004,0.1,1.0,0.30858,0.31692,0.69222,278.0,2.22678,-0.19,-0.09174,0.40866,5.0,1D2U,2.0,True,0.112,32.0,True,right,0.1668,0.2412,0.7827,0.5415,1.325,2.1249,0.7999,A,0.13,as,
279.0,0.5004,0.1,1.0,0.22518,0.36696,0.42534,279.0,2.1267,0.21,0.10842,0.60882,5.0,2D1U,1.0,True,0.393,33.0,False,left,-0.0834,0.1558,0.8972,0.7414,1.2975,1.847,0.5495,A,0.13,as,
280.0,0.5004,1.2,2.0,0.35862,0.417,0.49206,280.0,2.17674,-0.19,-0.09174,0.40866,5.0,1D2U,1.0,True,0.125,32.0,True,left,0.1668,1.4369,1.9785,0.5416,0.2111,1.0119,0.8009,A,0.135,as,
281.0,0.5004,1.2,1.0,0.39198,0.35862,0.88404,281.0,2.56038,-0.15,-0.07506,0.42534,5.0,1D2U,1.0,False,0.317,33.0,True,left,-0.0834,0.3278,0.8859,0.5581,1.7443,2.2942,0.5498,A,0.135,as,
282.0,0.5004,0.1,2.0,0.2085,0.3336,0.57546,282.0,2.20176,0.17,0.0834,0.5838,5.0,2D1U,2.0,True,0.113,33.0,False,right,0.1668,1.3689,2.0855,0.7166,0.0606,0.861,0.8004,A,0.13,as,
283.0,0.5004,0.1,1.0,0.2919,0.43368,0.49206,283.0,2.30184,0.17,0.0834,0.5838,5.0,2D1U,1.0,True,0.325,33.0,False,left,-0.0834,0.2221,0.9397,0.7176,1.4056,1.9562,0.5505,A,0.13,as,
284.0,0.5004,1.2,1.0,0.36696,0.38364,0.7923,284.0,2.61042,0.13,0.06672,0.56712,5.0,2D1U,1.0,True,0.366,33.0,False,left,0.1668,0.3022,1.0021,0.6998,1.6437,2.4431,0.7994,A,0.135,as,
285.0,0.5004,1.2,2.0,0.30024,0.38364,0.76728,285.0,2.51868,0.13,0.06672,0.56712,5.0,2D1U,1.0,False,0.225,33.0,False,left,-0.0834,1.5232,2.2237,0.7005,0.273,0.8238,0.5508,A,0.135,as,
286.0,0.5004,0.1,2.0,0.30024,0.22518,0.80064,286.0,2.23512,-0.19,-0.09174,0.40866,5.0,1D2U,1.0,True,0.358,34.0,True,left,0.1668,1.6845,2.2255,0.541,0.1505,0.9506,0.8001,A,0.13,as,
287.0,0.5004,0.1,2.0,0.3753,0.2919,0.59214,287.0,2.1684,-0.19,-0.09174,0.40866,5.0,1D2U,1.0,True,0.333,34.0,True,left,-0.0834,1.4278,1.9692,0.5414,0.3523,0.9025,0.5502,A,0.13,as,
288.0,0.5004,1.2,2.0,0.40032,0.22518,0.47538,288.0,2.18508,0.17,0.0834,0.5838,5.0,2D1U,1.0,False,0.182,34.0,True,left,0.1668,1.4609,2.1769,0.716,0.2518,1.0515,0.7997,A,0.135,as,
289.0,0.5004,1.2,2.0,0.40866,0.20016,0.6672,289.0,2.20176,-0.15,-0.07506,0.42534,5.0,1D2U,1.0,True,0.317,35.0,True,left,-0.0834,1.5295,2.0884,0.5589,0.38,0.9297,0.5497,A,0.135,as,
290.0,0.5004,0.1,1.0,0.34194,0.44202,0.5004,290.0,2.39358,0.21,0.10842,0.60882,5.0,2D1U,1.0,True,0.433,34.0,False,left,0.1668,0.2729,1.0149,0.742,1.3645,2.1645,0.8001,A,0.13,as,
291.0,0.5004,0.1,2.0,0.32526,0.30858,0.68388,291.0,2.24346,-0.15,-0.07506,0.42534,5.0,1D2U,1.0,True,0.459,35.0,True,left,-0.0834,1.4694,2.0273,0.5578,0.3023,0.8523,0.5501,A,0.13,as,
292.0,0.5004,1.2,2.0,0.35028,0.44202,0.4587,292.0,2.36022,0.21,0.10842,0.60882,5.0,2D1U,1.0,False,0.233,34.0,False,left,0.1668,1.3897,2.1308,0.7411,0.1974,0.9979,0.8005,A,0.135,as,
293.0,0.5004,1.2,1.0,0.31692,0.30858,0.60048,293.0,2.35188,0.25,0.1251,0.6255,5.0,2D1U,1.0,True,0.408,34.0,False,left,-0.0834,0.2474,1.0058,0.7584,1.5808,2.1305,0.5497,A,0.135,as,
294.0,0.5004,0.1,1.0,0.2085,0.40866,0.60048,294.0,2.16006,-0.11,-0.05838,0.44202,5.0,1D2U,2.0,True,0.325,35.0,False,right,0.1668,0.1387,0.714,0.5753,1.1637,1.9639,0.8001,A,0.13,as,
295.0,0.5004,0.1,2.0,0.2085,0.26688,0.82566,295.0,2.24346,-0.11,-0.05838,0.44202,5.0,1D2U,1.0,True,0.485,35.0,False,left,-0.0834,1.4904,2.0654,0.575,0.1814,0.7314,0.55,A,0.13,as,
296.0,0.5004,1.2,1.0,0.30024,0.35862,0.61716,296.0,2.40192,0.25,0.1251,0.6255,5.0,2D1U,2.0,False,0.292,34.0,False,right,0.1668,0.2285,0.9871,0.7586,1.4535,2.2535,0.8,A,0.135,as,
297.0,0.5004,1.2,1.0,0.2919,0.38364,0.69222,297.0,2.51034,0.29,0.14178,0.64218,5.0,2D1U,1.0,True,0.484,34.0,False,left,-0.0834,0.2275,1.0032,0.7757,1.6698,2.2197,0.5499,A,0.135,as,
298.0,0.5004,0.1,1.0,0.39198,0.25854,0.70056,298.0,2.31852,-0.07,-0.03336,0.46704,5.0,1D2U,2.0,True,0.325,35.0,False,right,0.1668,0.3251,0.9254,0.6003,1.476,2.276,0.8,A,0.13,as,
299.0,0.5004,0.1,1.0,0.21684,0.35028,0.8757,299.0,2.5854,0.29,0.14178,0.64218,5.0,2D1U,1.0,True,0.509,34.0,False,left,-0.0834,0.1514,0.9265,0.775,1.776,2.3262,0.5502,A,0.13,as,
300.0,0.5004,1.2,1.0,0.38364,0.32526,0.63384,300.0,2.31018,-0.07,-0.03336,0.46704,5.0,1D2U,2.0,True,0.167,35.0,False,right,0.1668,0.3181,0.918,0.5999,1.4022,2.2023,0.8001,A,0.135,as,
301.0,0.5004,1.2,1.0,0.31692,0.2502,0.40032,301.0,1.95156,-0.03,-0.01668,0.48372,5.0,1D2U,2.0,True,0.609,35.0,False,right,-0.0834,0.252,0.8686,0.6166,1.2436,1.794,0.5504,A,0.135,as,
302.0,0.5004,0.1,1.0,0.23352,0.45036,0.51708,302.0,2.32686,0.25,0.1251,0.6255,5.0,2D1U,2.0,False,0.116,35.0,True,right,0.1668,0.1641,0.9234,0.7593,1.2896,2.09,0.8004,A,0.13,as,
303.0,0.5004,0.1,2.0,0.2919,0.40866,0.48372,303.0,2.1684,-0.03,-0.01668,0.48372,5.0,1D2U,1.0,True,0.526,35.0,False,left,-0.0834,1.2313,1.8488,0.6175,0.2653,0.8146,0.5493,A,0.13,as,
304.0,0.5004,1.2,1.0,0.27522,0.22518,0.61716,304.0,2.1267,0.01,0.00834,0.50874,5.0,1D2U,2.0,False,0.425,35.0,False,right,0.1668,0.2095,0.8521,0.6425,1.3187,2.1185,0.7998,A,0.135,as,
305.0,0.5004,1.2,1.0,0.32526,0.30858,0.7506,305.0,2.39358,0.01,0.00834,0.50874,5.0,1D2U,2.0,False,0.433,35.0,False,right,-0.0834,0.2607,0.903,0.6422,1.6282,2.1779,0.5497,A,0.135,as,
306.0,0.5004,0.1,1.0,0.39198,0.22518,0.60048,306.0,2.36022,0.29,0.14178,0.64218,5.0,2D1U,2.0,False,0.192,36.0,True,right,0.1668,0.322,1.0976,0.7756,1.5474,2.3467,0.7992,A,0.13,as,
307.0,0.5004,0.1,1.0,0.34194,0.27522,0.45036,307.0,2.23512,0.33,0.1668,0.6672,5.0,2D1U,1.0,True,0.441,36.0,False,left,-0.0834,0.2747,1.0743,0.7996,1.4993,2.0494,0.55,A,0.13,as,
308.0,0.5004,1.2,2.0,0.21684,0.43368,0.75894,308.0,2.43528,0.05,0.02502,0.52542,5.0,1D2U,1.0,False,0.35,35.0,False,left,0.1668,1.557,2.2152,0.6582,0.0655,0.8651,0.7996,A,0.135,as,
309.0,0.5004,1.2,2.0,0.21684,0.30858,0.50874,309.0,2.20176,0.33,0.1668,0.6672,5.0,2D1U,1.0,False,0.333,36.0,False,left,-0.0834,1.1818,1.9818,0.8001,0.1904,0.7401,0.5497,A,0.135,as,
310.0,0.5004,0.1,1.0,0.25854,0.25854,0.86736,310.0,2.41026,0.05,0.02502,0.52542,5.0,1D2U,1.0,True,0.343,35.0,False,left,0.1668,0.1868,0.8454,0.6586,1.5617,2.3616,0.7999,A,0.13,as,
311.0,0.5004,0.1,1.0,0.25854,0.3753,0.74226,311.0,2.38524,0.01,0.00834,0.50874,5.0,1D2U,1.0,True,0.475,36.0,True,left,-0.0834,0.1877,0.8294,0.6417,1.5463,2.096,0.5497,A,0.13,as,
312.0,0.5004,1.2,2.0,0.44202,0.3753,0.43368,312.0,2.43528,0.37,0.18348,0.68388,5.0,2D1U,2.0,True,0.4,36.0,False,right,0.1668,1.4553,2.2725,0.8172,0.2898,1.0895,0.7997,A,0.135,as,
313.0,0.5004,1.2,1.0,0.32526,0.40032,0.71724,313.0,2.42694,-0.03,-0.01668,0.48372,5.0,1D2U,1.0,False,1.391,36.0,False,left,-0.0834,0.261,0.8783,0.6174,1.57,2.1198,0.5498,A,0.135,as,
314.0,0.5004,0.1,1.0,0.44202,0.45036,0.85068,314.0,2.92734,0.37,0.18348,0.68388,5.0,2D1U,1.0,True,0.374,36.0,False,left,0.1668,0.3724,1.1891,0.8167,1.8886,2.6887,0.8,A,0.13,as,
315.0,0.5004,0.1,2.0,0.23352,0.2502,0.55878,315.0,2.00994,-0.07,-0.03336,0.46704,5.0,1D2U,1.0,True,0.441,36.0,False,left,-0.0834,1.2453,1.8461,0.6008,0.2037,0.7539,0.5502,A,0.13,as,
316.0,0.5004,1.2,1.0,0.3336,0.40866,0.65052,316.0,2.56038,0.33,0.1668,0.6672,5.0,2D1U,1.0,True,0.3,37.0,True,left,0.1668,0.2631,1.0635,0.8004,1.563,2.3627,0.7997,A,0.135,as,
317.0,0.5004,1.2,1.0,0.3753,0.2502,0.84234,317.0,2.63544,0.33,0.1668,0.6672,5.0,2D1U,1.0,True,0.442,37.0,True,left,-0.0834,0.31,1.1103,0.8003,1.9263,2.4771,0.5508,A,0.135,as,
318.0,0.5004,0.1,1.0,0.35028,0.3336,0.49206,318.0,2.14338,-0.07,-0.03336,0.46704,5.0,1D2U,1.0,False,0.391,36.0,False,left,0.1668,0.2798,0.8793,0.5995,1.2211,2.0217,0.8006,A,0.13,as,
319.0,0.5004,0.1,1.0,0.30024,0.32526,0.82566,319.0,2.59374,0.29,0.14178,0.64218,5.0,2D1U,1.0,True,0.292,37.0,False,left,-0.0834,0.2309,1.0059,0.775,1.8058,2.3558,0.55,A,0.13,as,
320.0,0.5004,1.2,2.0,0.26688,0.2085,0.85068,320.0,2.46864,0.29,0.14178,0.64218,5.0,2D1U,1.0,False,0.467,37.0,False,left,0.1668,1.7024,2.4891,0.7867,0.1196,0.9195,0.8,A,0.135,as,
321.0,0.5004,1.2,2.0,0.22518,0.2502,0.5004,321.0,2.14338,0.33,0.1668,0.6672,5.0,2D1U,2.0,True,0.383,38.0,True,right,-0.0834,1.1849,1.9857,0.8008,0.2023,0.7517,0.5493,A,0.135,as,
322.0,0.5004,0.1,1.0,0.42534,0.35862,0.43368,322.0,2.16006,-0.11,-0.05838,0.44202,5.0,1D2U,2.0,True,0.357,36.0,False,right,0.1668,0.3542,0.9292,0.575,1.2118,2.0126,0.8008,A,0.13,as,
323.0,0.5004,0.1,2.0,0.43368,0.32526,0.40032,323.0,2.32686,0.33,0.1668,0.6672,5.0,2D1U,2.0,True,0.367,38.0,True,right,-0.0834,1.2942,2.0945,0.8003,0.4116,0.9616,0.55,A,0.13,as,
324.0,0.5004,1.2,1.0,0.3336,0.2085,0.81732,324.0,2.502,0.29,0.14178,0.64218,5.0,2D1U,2.0,False,0.666,39.0,True,right,0.1668,0.264,1.0395,0.7755,1.7061,2.5063,0.8002,A,0.135,as,
325.0,0.5004,1.2,2.0,0.40032,0.31692,0.42534,325.0,2.085,-0.11,-0.05838,0.44202,5.0,1D2U,2.0,False,0.409,36.0,False,right,-0.0834,1.2815,1.857,0.5755,0.3738,0.9234,0.5497,A,0.135,as,
326.0,0.5004,0.1,1.0,0.35028,0.32526,0.6672,326.0,2.51034,0.33,0.1668,0.6672,5.0,2D1U,1.0,True,0.766,40.0,True,left,0.1668,0.2825,1.0819,0.7994,1.5986,2.3984,0.7999,A,0.13,as,
327.0,0.5004,0.1,2.0,0.36696,0.26688,0.72558,327.0,2.52702,0.33,0.1668,0.6672,5.0,2D1U,2.0,True,0.416,40.0,True,right,-0.0834,1.5485,2.3483,0.7998,0.3404,0.8905,0.5501,A,0.13,as,
328.0,0.5004,1.2,1.0,0.25854,0.417,0.51708,328.0,2.11836,-0.15,-0.07506,0.42534,5.0,1D2U,2.0,True,0.292,36.0,False,right,0.1668,0.1952,0.7529,0.5577,1.1195,1.92,0.8005,A,0.135,as,
329.0,0.5004,1.2,2.0,0.20016,0.36696,0.65886,329.0,2.15172,-0.15,-0.07506,0.42534,5.0,1D2U,1.0,True,0.501,36.0,False,left,-0.0834,1.3168,1.8752,0.5583,0.1747,0.7252,0.5505,A,0.135,as,
330.0,0.5004,0.1,2.0,0.417,0.44202,0.76728,330.0,2.76888,0.29,0.14178,0.64218,5.0,2D1U,2.0,True,0.392,41.0,True,right,0.1668,1.7658,2.5411,0.7752,0.266,1.0659,0.7999,A,0.13,as,
331.0,0.5004,0.1,1.0,0.40032,0.28356,0.55878,331.0,2.38524,0.29,0.14178,0.64218,5.0,2D1U,2.0,False,0.192,41.0,True,right,-0.0834,0.3307,1.1059,0.7752,1.6395,2.1897,0.5502,A,0.13,as,
332.0,0.5004,1.2,2.0,0.25854,0.42534,0.71724,332.0,2.34354,-0.11,-0.05838,0.44202,5.0,1D2U,2.0,False,0.716,37.0,True,right,0.1668,1.556,2.131,0.5751,0.1058,0.9058,0.8,A,0.135,as,
333.0,0.5004,1.2,1.0,0.27522,0.23352,0.74226,333.0,2.17674,-0.15,-0.07506,0.42534,5.0,1D2U,1.0,False,0.549,38.0,True,left,-0.0834,0.2048,0.7632,0.5584,1.4788,2.0292,0.5503,A,0.135,as,
334.0,0.5004,0.1,1.0,0.20016,0.21684,0.50874,334.0,2.09334,0.33,0.1668,0.6672,5.0,2D1U,1.0,True,0.409,42.0,True,left,0.1668,0.1307,0.9307,0.8,1.289,2.0883,0.7993,A,0.13,as,
335.0,0.5004,0.1,2.0,0.35028,0.30024,0.55878,335.0,2.11836,-0.19,-0.09174,0.40866,5.0,1D2U,1.0,True,0.442,38.0,False,left,-0.0834,1.3636,1.9051,0.5415,0.3213,0.8714,0.5501,A,0.13,as,
336.0,0.5004,1.2,2.0,0.28356,0.39198,0.78396,336.0,2.6271,0.33,0.1668,0.6672,5.0,2D1U,1.0,False,0.114,42.0,True,left,0.1668,1.6524,2.4518,0.7994,0.1358,0.9361,0.8003,A,0.135,as,
337.0,0.5004,1.2,2.0,0.24186,0.28356,0.80064,337.0,2.23512,-0.19,-0.09174,0.40866,5.0,1D2U,1.0,True,0.317,38.0,False,left,-0.0834,1.4967,2.0384,0.5417,0.2134,0.7631,0.5497,A,0.135,as,
338.0,0.5004,0.1,2.0,0.22518,0.2085,0.48372,338.0,2.10168,0.37,0.18348,0.68388,5.0,2D1U,1.0,False,0.367,42.0,False,left,0.1668,1.2939,2.1105,0.8166,0.0775,0.8772,0.7998,A,0.13,as,
339.0,0.5004,0.1,1.0,0.35862,0.31692,0.82566,339.0,2.42694,-0.15,-0.07506,0.42534,5.0,1D2U,1.0,False,0.417,39.0,True,left,-0.0834,0.2875,0.8457,0.5581,1.6458,2.1959,0.5501,A,0.13,as,
340.0,0.5004,1.2,2.0,0.3753,0.40032,0.88404,340.0,2.86896,0.41,0.2085,0.7089,5.0,2D1U,2.0,True,0.367,42.0,False,right,0.1668,1.8408,2.6823,0.8415,0.2238,1.0241,0.8003,A,0.135,as,
341.0,0.5004,1.2,2.0,0.22518,0.36696,0.5838,341.0,2.38524,0.41,0.2085,0.7089,5.0,2D1U,1.0,False,0.275,42.0,False,left,-0.0834,1.2653,2.1075,0.8422,0.1995,0.7492,0.5498,A,0.135,as,
342.0,0.5004,0.1,2.0,0.3336,0.32526,0.417,342.0,2.30184,0.45,0.22518,0.72558,5.0,2D1U,2.0,True,1.184,42.0,False,right,0.1668,1.3346,2.1928,0.8583,0.1846,0.9848,0.8002,A,0.13,as,
343.0,0.5004,0.1,1.0,0.23352,0.31692,0.81732,343.0,2.27682,-0.19,-0.09174,0.40866,5.0,1D2U,2.0,True,0.45,40.0,True,right,-0.0834,0.1687,0.7102,0.5414,1.5024,2.0526,0.5503,A,0.13,as,
344.0,0.5004,1.2,2.0,0.40866,0.25854,0.40866,344.0,2.30184,0.45,0.22518,0.72558,5.0,2D1U,1.0,False,0.114,42.0,False,left,0.1668,1.4033,2.2618,0.8585,0.2614,1.0615,0.8001,A,0.135,as,
345.0,0.5004,1.2,1.0,0.23352,0.27522,0.48372,345.0,1.90152,-0.19,-0.09174,0.40866,5.0,1D2U,2.0,True,0.408,40.0,True,right,-0.0834,0.1657,0.707,0.5413,1.1648,1.7151,0.5503,A,0.135,as,
346.0,0.5004,0.1,1.0,0.34194,0.40866,0.5004,346.0,2.49366,0.49,0.24186,0.74226,5.0,2D1U,1.0,True,0.126,42.0,False,left,0.1668,0.2765,1.1529,0.8764,1.5026,2.3019,0.7992,A,0.13,as,
347.0,0.5004,0.1,2.0,0.24186,0.3336,0.76728,347.0,2.26848,-0.15,-0.07506,0.42534,5.0,1D2U,1.0,True,0.375,41.0,True,left,-0.0834,1.4637,2.0227,0.559,0.2142,0.7639,0.5496,A,0.13,as,
348.0,0.5004,1.2,1.0,0.34194,0.45036,0.53376,348.0,2.56872,0.49,0.24186,0.74226,5.0,2D1U,1.0,True,0.114,42.0,False,left,0.1668,0.2727,1.1477,0.8751,1.5315,2.3303,0.7988,A,0.135,as,
349.0,0.5004,1.2,2.0,0.30024,0.30024,0.85902,349.0,2.38524,-0.15,-0.07506,0.42534,5.0,1D2U,1.0,True,0.392,41.0,True,left,-0.0834,1.6178,2.1751,0.5573,0.2752,0.8252,0.55,A,0.135,as,
350.0,0.5004,0.1,1.0,0.24186,0.3336,0.56712,350.0,2.36856,0.45,0.22518,0.72558,5.0,2D1U,1.0,True,0.114,43.0,True,left,0.1668,0.1713,1.0296,0.8583,1.4463,2.2457,0.7994,A,0.13,as,
351.0,0.5004,0.1,1.0,0.40866,0.417,0.5421,351.0,2.59374,0.45,0.22518,0.72558,5.0,2D1U,1.0,True,0.367,43.0,True,left,-0.0834,0.3408,1.199,0.8582,1.7157,2.2657,0.55,A,0.13,as,
352.0,0.5004,1.2,2.0,0.27522,0.2919,0.42534,352.0,1.93488,-0.11,-0.05838,0.44202,5.0,1D2U,2.0,False,0.326,41.0,False,right,0.1668,1.2863,1.8613,0.575,0.1274,0.9276,0.8002,A,0.135,as,
353.0,0.5004,1.2,1.0,0.21684,0.39198,0.73392,353.0,2.55204,0.41,0.2085,0.7089,5.0,2D1U,2.0,False,0.4,43.0,False,right,-0.0834,0.1451,0.9869,0.8418,1.6952,2.2453,0.55,A,0.135,as,
354.0,0.5004,0.1,2.0,0.32526,0.39198,0.46704,354.0,2.11002,-0.15,-0.07506,0.42534,5.0,1D2U,2.0,False,0.775,42.0,True,right,0.1668,1.3726,1.9309,0.5583,0.1728,0.9726,0.7999,A,0.13,as,
355.0,0.5004,0.1,1.0,0.2502,0.26688,0.57546,355.0,2.0016,-0.19,-0.09174,0.40866,5.0,1D2U,2.0,True,0.367,42.0,False,right,-0.0834,0.181,0.7225,0.5415,1.2725,1.8219,0.5494,A,0.13,as,
356.0,0.5004,1.2,2.0,0.44202,0.26688,0.4587,356.0,2.07666,-0.19,-0.09174,0.40866,5.0,1D2U,1.0,True,0.342,42.0,False,left,0.1668,1.4799,2.0212,0.5413,0.2887,1.0884,0.7997,A,0.135,as,
357.0,0.5004,1.2,1.0,0.39198,0.21684,0.85902,357.0,2.69382,0.45,0.22518,0.72558,5.0,2D1U,1.0,True,0.591,44.0,True,left,-0.0834,0.321,1.1797,0.8587,2.0128,2.5627,0.5499,A,0.135,as,
358.0,0.5004,0.1,2.0,0.24186,0.2919,0.64218,358.0,2.10168,-0.15,-0.07506,0.42534,5.0,1D2U,2.0,False,0.35,43.0,True,right,0.1668,1.4643,2.0223,0.558,0.0892,0.8894,0.8003,A,0.13,as,
359.0,0.5004,0.1,2.0,0.22518,0.30024,0.65052,359.0,2.40192,0.45,0.22518,0.72558,5.0,2D1U,2.0,True,0.335,44.0,True,right,-0.0834,1.3291,2.187,0.8579,0.1958,0.7457,0.5498,A,0.13,as,
360.0,0.5004,1.2,1.0,0.28356,0.31692,0.57546,360.0,2.38524,0.41,0.2085,0.7089,5.0,2D1U,1.0,True,0.265,45.0,True,left,0.1668,0.2162,1.0571,0.8409,1.4828,2.2823,0.7996,A,0.135,as,
361.0,0.5004,1.2,2.0,0.43368,0.3753,0.55044,361.0,2.26848,-0.19,-0.09174,0.40866,5.0,1D2U,1.0,True,0.258,44.0,True,left,-0.0834,1.4402,1.9817,0.5415,0.4068,0.9568,0.55,A,0.135,as,
362.0,0.5004,0.1,2.0,0.27522,0.25854,0.7089,362.0,2.15172,-0.19,-0.09174,0.40866,5.0,1D2U,1.0,True,0.114,44.0,True,left,0.1668,1.5696,2.1112,0.5416,0.1277,0.9272,0.7995,A,0.13,as,
363.0,0.5004,0.1,1.0,0.24186,0.30024,0.47538,363.0,1.94322,-0.15,-0.07506,0.42534,5.0,1D2U,2.0,True,0.433,45.0,True,right,-0.0834,0.1779,0.7368,0.5589,1.1867,1.7366,0.5499,A,0.13,as,
364.0,0.5004,1.2,1.0,0.22518,0.45036,0.85068,364.0,2.73552,0.41,0.2085,0.7089,5.0,2D1U,1.0,True,0.767,45.0,True,left,0.1668,0.1614,1.0031,0.8417,1.7037,2.5031,0.7994,A,0.135,as,
365.0,0.5004,1.2,2.0,0.26688,0.27522,0.71724,365.0,2.18508,-0.15,-0.07506,0.42534,5.0,1D2U,2.0,False,0.525,45.0,True,right,-0.0834,1.4446,2.0032,0.5585,0.2437,0.7941,0.5504,A,0.135,as,
366.0,0.5004,0.1,2.0,0.25854,0.417,0.8757,366.0,2.4603,-0.19,-0.09174,0.40866,5.0,1D2U,2.0,False,0.593,46.0,True,right,0.1668,1.7125,2.2542,0.5416,0.1043,0.9044,0.8001,A,0.13,as,
367.0,0.5004,0.1,1.0,0.31692,0.44202,0.64218,367.0,2.5854,0.37,0.18348,0.68388,5.0,2D1U,2.0,False,0.291,45.0,False,right,-0.0834,0.2531,1.0694,0.8163,1.6868,2.2367,0.5498,A,0.13,as,
368.0,0.5004,1.2,2.0,0.40866,0.22518,0.76728,368.0,2.28516,-0.23,-0.11676,0.38364,5.0,1D2U,1.0,True,0.667,46.0,False,left,0.1668,1.7608,2.2774,0.5166,0.2616,1.0608,0.7992,A,0.135,as,
369.0,0.5004,1.2,2.0,0.22518,0.25854,0.42534,369.0,2.11836,0.41,0.2085,0.7089,5.0,2D1U,2.0,True,0.942,46.0,True,right,-0.0834,1.1062,1.9483,0.8421,0.1976,0.7476,0.55,A,0.135,as,
370.0,0.5004,0.1,2.0,0.31692,0.30858,0.55044,370.0,2.05998,-0.23,-0.11676,0.38364,5.0,1D2U,1.0,True,0.625,46.0,False,left,0.1668,1.4517,1.9684,0.5167,0.1685,0.9684,0.7999,A,0.13,as,
371.0,0.5004,0.1,1.0,0.2919,0.30858,0.80064,371.0,2.61042,0.41,0.2085,0.7089,5.0,2D1U,2.0,False,0.392,46.0,True,right,-0.0834,0.2234,1.0661,0.8427,1.8407,2.3911,0.5504,A,0.13,as,
372.0,0.5004,1.2,1.0,0.38364,0.40866,0.60882,372.0,2.31018,-0.19,-0.09174,0.40866,5.0,1D2U,1.0,False,0.409,47.0,True,left,0.1668,0.3143,0.8563,0.542,1.3143,2.1143,0.8,A,0.135,as,
373.0,0.5004,1.2,1.0,0.32526,0.40032,0.68388,373.0,2.63544,0.45,0.22518,0.72558,5.0,2D1U,1.0,True,0.242,46.0,False,left,-0.0834,0.2558,1.1145,0.8587,1.7725,2.3224,0.5499,A,0.135,as,
374.0,0.5004,0.1,1.0,0.43368,0.35862,0.55878,374.0,2.23512,-0.23,-0.11676,0.38364,5.0,1D2U,2.0,True,0.391,48.0,True,right,0.1668,0.3636,0.8804,0.5169,1.2893,2.089,0.7997,A,0.13,as,
375.0,0.5004,0.1,1.0,0.28356,0.39198,0.6255,375.0,2.18508,-0.23,-0.11676,0.38364,5.0,1D2U,2.0,True,0.333,48.0,True,right,-0.0834,0.2147,0.7317,0.517,1.3309,1.8821,0.5512,A,0.13,as,
376.0,0.5004,1.2,1.0,0.2919,0.44202,0.47538,376.0,2.43528,0.45,0.22518,0.72558,5.0,2D1U,1.0,True,0.114,46.0,False,left,0.1668,0.2203,1.0796,0.8593,1.4045,2.2046,0.8,A,0.135,as,
377.0,0.5004,1.2,2.0,0.40866,0.39198,0.417,377.0,2.42694,0.41,0.2085,0.7089,5.0,2D1U,1.0,False,1.292,47.0,True,left,-0.0834,1.2809,2.123,0.8421,0.3813,0.9313,0.55,A,0.135,as,
378.0,0.5004,0.1,1.0,0.24186,0.31692,0.5004,378.0,1.96824,-0.19,-0.09174,0.40866,5.0,1D2U,2.0,True,0.374,49.0,True,right,0.1668,0.1716,0.7135,0.5418,1.0639,1.8639,0.8,A,0.13,as,
379.0,0.5004,0.1,1.0,0.40032,0.25854,0.63384,379.0,2.20176,-0.19,-0.09174,0.40866,5.0,1D2U,1.0,False,0.217,49.0,True,left,-0.0834,0.3321,0.8733,0.5411,1.4819,2.0321,0.5502,A,0.13,as,
380.0,0.5004,1.2,1.0,0.3753,0.35862,0.74226,380.0,2.70216,0.45,0.22518,0.72558,5.0,2D1U,1.0,True,0.951,48.0,True,left,0.1668,0.3064,1.1647,0.8583,1.7558,2.5558,0.8,A,0.135,as,
381.0,0.5004,1.2,2.0,0.22518,0.31692,0.82566,381.0,2.2518,-0.23,-0.11676,0.38364,5.0,1D2U,1.0,True,0.601,50.0,True,left,-0.0834,1.5075,2.0243,0.5168,0.1996,0.7491,0.5494,A,0.135,as,
382.0,0.5004,0.1,2.0,0.21684,0.30858,0.6255,382.0,2.03496,-0.23,-0.11676,0.38364,5.0,1D2U,1.0,True,0.458,50.0,True,left,0.1668,1.4224,1.939,0.5166,0.0636,0.8641,0.8006,A,0.13,as,
383.0,0.5004,0.1,1.0,0.39198,0.39198,0.85902,383.0,2.86896,0.45,0.22518,0.72558,5.0,2D1U,1.0,True,0.418,48.0,True,left,-0.0834,0.328,1.1863,0.8583,2.0198,2.5698,0.55,A,0.13,as,
384.0,0.5004,1.2,1.0,0.31692,0.30858,0.6255,384.0,2.16006,-0.19,-0.09174,0.40866,5.0,1D2U,1.0,False,0.45,51.0,True,left,0.1668,0.2489,0.7905,0.5416,1.2658,2.0653,0.7995,A,0.135,as,
385.0,0.5004,1.2,1.0,0.23352,0.39198,0.64218,385.0,2.15172,-0.23,-0.11676,0.38364,5.0,1D2U,2.0,True,0.783,52.0,True,right,-0.0834,0.1698,0.6862,0.5164,1.3031,1.853,0.5499,A,0.135,as,
386.0,0.5004,0.1,1.0,0.38364,0.27522,0.43368,386.0,2.30184,0.41,0.2085,0.7089,5.0,2D1U,1.0,True,0.341,49.0,True,left,0.1668,0.3184,1.1606,0.8423,1.4437,2.2441,0.8004,A,0.13,as,
387.0,0.5004,0.1,1.0,0.3753,0.45036,0.40866,387.0,2.11836,-0.23,-0.11676,0.38364,5.0,1D2U,2.0,True,0.385,52.0,True,right,-0.0834,0.3069,0.8237,0.5168,1.2077,1.7582,0.5504,A,0.13,as,
388.0,0.5004,1.2,2.0,0.38364,0.43368,0.63384,388.0,2.36022,-0.19,-0.09174,0.40866,5.0,1D2U,1.0,True,0.267,53.0,True,left,0.1668,1.5956,2.1376,0.5419,0.2291,1.0294,0.8002,A,0.135,as,
389.0,0.5004,1.2,1.0,0.27522,0.42534,0.57546,389.0,2.18508,-0.19,-0.09174,0.40866,5.0,1D2U,2.0,True,0.459,53.0,True,right,-0.0834,0.2046,0.746,0.5413,1.2967,1.8465,0.5498,A,0.135,as,
390.0,0.5004,0.1,1.0,0.22518,0.2502,0.52542,390.0,2.2101,0.41,0.2085,0.7089,5.0,2D1U,2.0,False,0.391,49.0,True,right,0.1668,0.1612,1.0029,0.8417,1.3781,2.1777,0.7996,A,0.13,as,
391.0,0.5004,0.1,1.0,0.417,0.22518,0.59214,391.0,2.4603,0.45,0.22518,0.72558,5.0,2D1U,2.0,False,0.35,50.0,True,right,-0.0834,0.352,1.2101,0.8581,1.7772,2.3269,0.5498,A,0.13,as,
392.0,0.5004,1.2,1.0,0.30858,0.42534,0.68388,392.0,2.34354,-0.15,-0.07506,0.42534,5.0,1D2U,1.0,False,0.358,53.0,False,left,0.1668,0.2429,0.8012,0.5583,1.3349,2.1347,0.7999,A,0.135,as,
393.0,0.5004,1.2,1.0,0.31692,0.20016,0.60048,393.0,2.36022,0.49,0.24186,0.74226,5.0,2D1U,1.0,True,0.375,50.0,False,left,-0.0834,0.2533,1.1281,0.8748,1.7031,2.2536,0.5506,A,0.135,as,
394.0,0.5004,0.1,2.0,0.26688,0.22518,0.55878,394.0,2.2935,0.49,0.24186,0.74226,5.0,2D1U,2.0,True,0.317,50.0,False,right,0.1668,1.4085,2.2828,0.8743,0.116,0.9163,0.8003,A,0.13,as,
395.0,0.5004,0.1,2.0,0.2502,0.25854,0.59214,395.0,2.32686,0.45,0.22518,0.72558,5.0,2D1U,2.0,True,0.112,51.0,True,right,-0.0834,1.2981,2.1562,0.8581,0.2233,0.7723,0.549,A,0.13,as,
396.0,0.5004,1.2,1.0,0.45036,0.35862,0.70056,396.0,2.73552,0.45,0.22518,0.72558,5.0,2D1U,2.0,False,0.158,51.0,True,right,0.1668,0.3798,1.2381,0.8583,1.788,2.5882,0.8003,A,0.135,as,
397.0,0.5004,1.2,1.0,0.35028,0.35862,0.65886,397.0,2.27682,-0.19,-0.09174,0.40866,5.0,1D2U,2.0,True,0.333,54.0,True,right,-0.0834,0.2793,0.8213,0.542,1.4546,2.0045,0.5499,A,0.135,as,
398.0,0.5004,0.1,1.0,0.21684,0.22518,0.5004,398.0,1.85148,-0.19,-0.09174,0.40866,5.0,1D2U,2.0,True,0.358,54.0,True,right,0.1668,0.1456,0.6875,0.542,1.037,1.837,0.8001,A,0.13,as,
399.0,0.5004,0.1,1.0,0.39198,0.23352,0.834,399.0,2.70216,0.49,0.24186,0.74226,5.0,2D1U,1.0,True,0.525,52.0,True,left,-0.0834,0.3234,1.1982,0.8748,2.0059,2.5564,0.5504,A,0.13,as,
400.0,0.5004,1.2,2.0,0.40866,0.417,0.60882,400.0,2.36022,-0.15,-0.07506,0.42534,5.0,1D2U,2.0,False,0.183,55.0,True,right,0.1668,1.5989,2.1576,0.5586,0.2577,1.0578,0.8002,A,0.135,as,
401.0,0.5004,1.2,1.0,0.35028,0.25854,0.834,401.0,2.35188,-0.19,-0.09174,0.40866,5.0,1D2U,2.0,True,0.433,56.0,True,right,-0.0834,0.2798,0.822,0.5422,1.6299,2.1804,0.5505,A,0.135,as,
402.0,0.5004,0.1,1.0,0.24186,0.43368,0.55044,402.0,2.46864,0.49,0.24186,0.74226,5.0,2D1U,2.0,False,0.243,52.0,True,right,0.1668,0.1762,1.0516,0.8754,1.4517,2.2514,0.7996,A,0.13,as,
403.0,0.5004,0.1,2.0,0.45036,0.40866,0.88404,403.0,3.01074,0.53,0.26688,0.76728,5.0,2D1U,2.0,True,0.624,52.0,False,right,-0.0834,1.7888,2.6889,0.9001,0.422,0.9725,0.5505,A,0.13,as,
404.0,0.5004,1.2,2.0,0.35862,0.34194,0.8757,404.0,2.84394,0.53,0.26688,0.76728,5.0,2D1U,2.0,True,0.301,52.0,False,right,0.1668,1.8152,2.7154,0.9002,0.2073,1.007,0.7996,A,0.135,as,
405.0,0.5004,1.2,2.0,0.27522,0.32526,0.89238,405.0,2.40192,-0.19,-0.09174,0.40866,5.0,1D2U,1.0,True,0.476,56.0,True,left,-0.0834,1.6257,2.1674,0.5417,0.251,0.8008,0.5499,A,0.135,as,
406.0,0.5004,0.1,2.0,0.31692,0.34194,0.5004,406.0,2.40192,0.49,0.24186,0.74226,5.0,2D1U,2.0,True,0.692,53.0,True,right,0.1668,1.3984,2.2741,0.8756,0.1656,0.9657,0.8001,A,0.13,as,
407.0,0.5004,0.1,1.0,0.3336,0.2085,0.86736,407.0,2.65212,0.49,0.24186,0.74226,5.0,2D1U,1.0,True,0.4,53.0,True,left,-0.0834,0.267,1.1371,0.8702,1.9797,2.5294,0.5496,A,0.13,as,
408.0,0.5004,1.2,1.0,0.3336,0.30024,0.63384,408.0,2.19342,-0.15,-0.07506,0.42534,5.0,1D2U,1.0,False,0.842,57.0,True,left,0.1668,0.2645,0.8228,0.5583,1.3059,2.1062,0.8003,A,0.135,as,
409.0,0.5004,1.2,2.0,0.31692,0.31692,0.81732,409.0,2.67714,0.45,0.22518,0.72558,5.0,2D1U,2.0,True,0.416,53.0,False,right,-0.0834,1.5899,2.4483,0.8584,0.2898,0.8398,0.5499,A,0.135,as,
410.0,0.5004,0.1,1.0,0.30024,0.43368,0.57546,410.0,2.53536,0.45,0.22518,0.72558,5.0,2D1U,1.0,True,0.217,53.0,False,left,0.1668,0.2308,1.0894,0.8586,1.5139,2.3136,0.7997,A,0.13,as,
411.0,0.5004,0.1,2.0,0.35028,0.42534,0.6672,411.0,2.35188,-0.19,-0.09174,0.40866,5.0,1D2U,1.0,True,0.45,58.0,True,left,-0.0834,1.4736,2.0159,0.5423,0.3238,0.8742,0.5504,A,0.13,as,
412.0,0.5004,1.2,2.0,0.30024,0.3753,0.80898,412.0,2.39358,-0.19,-0.09174,0.40866,5.0,1D2U,1.0,True,0.293,58.0,True,left,0.1668,1.6881,2.2302,0.5421,0.1468,0.947,0.8002,A,0.135,as,
413.0,0.5004,1.2,1.0,0.31692,0.43368,0.80064,413.0,2.47698,-0.15,-0.07506,0.42534,5.0,1D2U,1.0,False,0.384,59.0,True,left,-0.0834,0.2468,0.8053,0.5586,1.5798,2.1298,0.55,A,0.135,as,
414.0,0.5004,0.1,2.0,0.24186,0.3336,0.40032,414.0,2.18508,0.41,0.2085,0.7089,5.0,2D1U,2.0,True,0.133,53.0,False,right,0.1668,1.2214,2.0631,0.8416,0.088,0.8881,0.8001,A,0.13,as,
415.0,0.5004,0.1,1.0,0.38364,0.27522,0.69222,415.0,2.26014,-0.19,-0.09174,0.40866,5.0,1D2U,1.0,False,0.5,60.0,True,left,-0.0834,0.3138,0.8547,0.5409,1.5221,2.0716,0.5495,A,0.13,as,
416.0,0.5004,1.2,2.0,0.30024,0.25854,0.46704,416.0,2.23512,0.41,0.2085,0.7089,5.0,2D1U,2.0,True,0.291,53.0,False,right,0.1668,1.3478,2.1896,0.8418,0.1482,0.9476,0.7994,A,0.135,as,
417.0,0.5004,1.2,2.0,0.28356,0.35862,0.86736,417.0,2.69382,0.37,0.18348,0.68388,5.0,2D1U,2.0,True,0.391,53.0,False,right,-0.0834,1.6041,2.421,0.8168,0.2543,0.8041,0.5498,A,0.135,as,
418.0,0.5004,0.1,1.0,0.38364,0.2919,0.56712,418.0,2.1267,-0.23,-0.11676,0.38364,5.0,1D2U,2.0,True,0.433,60.0,False,right,0.1668,0.3201,0.8368,0.5167,1.2538,2.0533,0.7995,A,0.13,as,
419.0,0.5004,0.1,1.0,0.2502,0.21684,0.60882,419.0,1.9599,-0.23,-0.11676,0.38364,5.0,1D2U,2.0,True,0.492,60.0,False,right,-0.0834,0.1856,0.7024,0.5167,1.2858,1.8355,0.5497,A,0.13,as,
420.0,0.5004,1.2,2.0,0.31692,0.26688,0.80064,420.0,2.56872,0.37,0.18348,0.68388,5.0,2D1U,2.0,True,0.333,53.0,False,right,0.1668,1.7001,2.5167,0.8166,0.1668,0.9661,0.7993,A,0.135,as,
421.0,0.5004,1.2,2.0,0.20016,0.31692,0.72558,421.0,2.41026,0.33,0.1668,0.6672,5.0,2D1U,2.0,True,0.258,53.0,False,right,-0.0834,1.3798,2.1801,0.8004,0.1716,0.7213,0.5497,A,0.135,as,
422.0,0.5004,0.1,2.0,0.40866,0.34194,0.48372,422.0,2.14338,-0.19,-0.09174,0.40866,5.0,1D2U,1.0,True,0.358,61.0,True,left,0.1668,1.4765,2.018,0.5415,0.2596,1.0599,0.8003,A,0.13,as,
423.0,0.5004,0.1,2.0,0.38364,0.30024,0.64218,423.0,2.23512,-0.19,-0.09174,0.40866,5.0,1D2U,1.0,True,0.383,61.0,True,left,-0.0834,1.4806,2.0222,0.5415,0.3557,0.9056,0.5499,A,0.13,as,
424.0,0.5004,1.2,1.0,0.3336,0.22518,0.88404,424.0,2.61042,0.33,0.1668,0.6672,5.0,2D1U,2.0,False,0.4,53.0,False,right,0.1668,0.2648,1.0642,0.7994,1.7977,2.5978,0.8001,A,0.135,as,
425.0,0.5004,1.2,2.0,0.3753,0.34194,0.5838,425.0,2.48532,0.37,0.18348,0.68388,5.0,2D1U,2.0,True,0.492,54.0,True,right,-0.0834,1.4146,2.2314,0.8168,0.3481,0.8977,0.5496,A,0.135,as,
426.0,0.5004,0.1,1.0,0.36696,0.40866,0.47538,426.0,2.17674,-0.15,-0.07506,0.42534,5.0,1D2U,1.0,False,0.342,61.0,False,left,0.1668,0.2977,0.8566,0.5588,1.1812,1.9809,0.7997,A,0.13,as,
427.0,0.5004,0.1,1.0,0.43368,0.34194,0.44202,427.0,2.40192,0.37,0.18348,0.68388,5.0,2D1U,1.0,True,0.367,54.0,True,left,-0.0834,0.3645,1.1811,0.8166,1.5979,2.1477,0.5498,A,0.13,as,
428.0,0.5004,1.2,2.0,0.22518,0.25854,0.67554,428.0,2.06832,-0.19,-0.09174,0.40866,5.0,1D2U,1.0,True,0.551,62.0,True,left,0.1668,1.4832,2.025,0.5417,0.075,0.875,0.8,A,0.135,as,
429.0,0.5004,1.2,1.0,0.42534,0.36696,0.4587,429.0,2.16006,-0.19,-0.09174,0.40866,5.0,1D2U,1.0,False,0.599,62.0,True,left,-0.0834,0.355,0.8963,0.5413,1.3289,1.8797,0.5508,A,0.135,as,
430.0,0.5004,0.1,2.0,0.40032,0.32526,0.7923,430.0,2.68548,0.33,0.1668,0.6672,5.0,2D1U,2.0,True,0.883,55.0,True,right,0.1668,1.7722,2.5726,0.8004,0.2472,1.0463,0.799,A,0.13,as,
431.0,0.5004,0.1,1.0,0.39198,0.21684,0.45036,431.0,1.94322,-0.23,-0.11676,0.38364,5.0,1D2U,2.0,True,0.475,62.0,False,right,-0.0834,0.3271,0.8439,0.5168,1.2692,1.8192,0.5501,A,0.13,as,
432.0,0.5004,1.2,1.0,0.23352,0.21684,0.43368,432.0,1.76808,-0.23,-0.11676,0.38364,5.0,1D2U,1.0,False,0.114,62.0,False,left,0.1668,0.1673,0.6849,0.5176,0.9674,1.7681,0.8007,A,0.135,as,
433.0,0.5004,1.2,2.0,0.43368,0.24186,0.57546,433.0,2.4186,0.33,0.1668,0.6672,5.0,2D1U,2.0,True,0.41,55.0,True,right,-0.0834,1.4663,2.2664,0.8001,0.4079,0.9581,0.5502,A,0.135,as,
434.0,0.5004,0.1,1.0,0.43368,0.25854,0.5004,434.0,2.3352,0.29,0.14178,0.64218,5.0,2D1U,1.0,True,0.368,55.0,False,left,0.1668,0.365,1.1395,0.7745,1.4902,2.2897,0.7995,A,0.13,as,
435.0,0.5004,0.1,2.0,0.25854,0.36696,0.90072,435.0,2.6688,0.29,0.14178,0.64218,5.0,2D1U,2.0,True,0.425,55.0,False,right,-0.0834,1.6176,2.393,0.7754,0.2351,0.7845,0.5494,A,0.13,as,
436.0,0.5004,1.2,1.0,0.22518,0.27522,0.6672,436.0,2.03496,-0.27,-0.13344,0.36696,5.0,1D2U,2.0,True,0.341,62.0,False,right,0.1668,0.1556,0.6554,0.4998,1.1727,1.9729,0.8002,A,0.135,as,
437.0,0.5004,1.2,2.0,0.23352,0.24186,0.84234,437.0,2.44362,0.25,0.1251,0.6255,5.0,2D1U,2.0,True,0.442,55.0,False,right,-0.0834,1.5367,2.295,0.7583,0.2115,0.761,0.5495,A,0.135,as,
438.0,0.5004,0.1,2.0,0.26688,0.21684,0.50874,438.0,2.11836,0.25,0.1251,0.6255,5.0,2D1U,2.0,True,1.15,55.0,False,right,0.1668,1.3563,2.1152,0.7589,0.1148,0.9146,0.7998,A,0.13,as,
439.0,0.5004,0.1,1.0,0.27522,0.27522,0.5421,439.0,1.9599,-0.27,-0.13344,0.36696,5.0,1D2U,2.0,True,0.375,62.0,False,right,-0.0834,0.206,0.7059,0.4999,1.2233,1.7731,0.5499,A,0.13,as,
440.0,0.5004,1.2,1.0,0.32526,0.38364,0.81732,440.0,2.41026,-0.23,-0.11676,0.38364,5.0,1D2U,2.0,True,0.113,63.0,True,right,0.1668,0.2617,0.7779,0.5162,1.4448,2.2445,0.7997,A,0.135,as,
441.0,0.5004,1.2,1.0,0.32526,0.21684,0.59214,441.0,2.01828,-0.23,-0.11676,0.38364,5.0,1D2U,2.0,True,0.525,63.0,True,right,-0.0834,0.2551,0.7719,0.5167,1.3394,1.8892,0.5498,A,0.135,as,
442.0,0.5004,0.1,1.0,0.40032,0.417,0.65052,442.0,2.57706,0.21,0.10842,0.60882,5.0,2D1U,2.0,False,0.114,55.0,False,right,0.1668,0.3363,1.0784,0.7421,1.5779,2.3785,0.8006,A,0.13,as,
443.0,0.5004,0.1,2.0,0.40032,0.32526,0.76728,443.0,2.61876,0.25,0.1251,0.6255,5.0,2D1U,2.0,True,0.391,56.0,True,right,-0.0834,1.6229,2.381,0.7582,0.3732,0.9229,0.5497,A,0.13,as,
444.0,0.5004,1.2,2.0,0.22518,0.34194,0.51708,444.0,2.2101,0.25,0.1251,0.6255,5.0,2D1U,1.0,False,0.425,56.0,True,left,0.1668,1.3272,2.0857,0.7585,0.0767,0.8765,0.7998,A,0.135,as,
445.0,0.5004,1.2,2.0,0.39198,0.21684,0.71724,445.0,2.23512,-0.19,-0.09174,0.40866,5.0,1D2U,1.0,True,0.567,63.0,False,left,-0.0834,1.5635,2.1063,0.5427,0.364,0.9144,0.5504,A,0.135,as,
446.0,0.5004,0.1,2.0,0.32526,0.2502,0.85902,446.0,2.57706,0.29,0.14178,0.64218,5.0,2D1U,2.0,True,0.526,56.0,False,right,0.1668,1.764,2.5388,0.7748,0.172,0.972,0.8,A,0.13,as,
447.0,0.5004,0.1,1.0,0.35028,0.26688,0.40866,447.0,2.1684,0.29,0.14178,0.64218,5.0,2D1U,1.0,True,0.393,56.0,False,left,-0.0834,0.2819,1.0571,0.7752,1.4404,1.9902,0.5498,A,0.13,as,
448.0,0.5004,1.2,1.0,0.36696,0.44202,0.49206,448.0,2.2101,-0.19,-0.09174,0.40866,5.0,1D2U,1.0,False,1.066,63.0,False,left,0.1668,0.2963,0.8379,0.5416,1.1794,1.9794,0.8,A,0.135,as,
449.0,0.5004,1.2,2.0,0.22518,0.31692,0.51708,449.0,1.94322,-0.23,-0.11676,0.38364,5.0,1D2U,2.0,False,0.469,64.0,True,right,-0.0834,1.203,1.7194,0.5165,0.2027,0.7521,0.5493,A,0.135,as,
450.0,0.5004,0.1,2.0,0.34194,0.32526,0.417,450.0,2.2101,0.25,0.1251,0.6255,5.0,2D1U,1.0,False,0.416,57.0,True,left,0.1668,1.3402,2.0983,0.7581,0.1899,0.9899,0.8,A,0.13,as,
451.0,0.5004,0.1,1.0,0.2919,0.28356,0.7923,451.0,2.51034,0.29,0.14178,0.64218,5.0,2D1U,1.0,True,0.425,58.0,True,left,-0.0834,0.2283,1.0032,0.7749,1.7696,2.3199,0.5502,A,0.13,as,
452.0,0.5004,1.2,1.0,0.43368,0.39198,0.68388,452.0,2.65212,0.29,0.14178,0.64218,5.0,2D1U,1.0,True,0.384,58.0,True,left,0.1668,0.3671,1.1421,0.775,1.6753,2.4749,0.7996,A,0.135,as,
453.0,0.5004,1.2,1.0,0.44202,0.2919,0.65052,453.0,2.2518,-0.27,-0.13344,0.36696,5.0,1D2U,1.0,False,0.49,64.0,False,left,-0.0834,0.3728,0.8725,0.4997,1.4969,2.0477,0.5508,A,0.135,as,
454.0,0.5004,0.1,2.0,0.31692,0.28356,0.7089,454.0,2.15172,-0.31,-0.15846,0.34194,5.0,1D2U,1.0,True,0.392,64.0,False,left,0.1668,1.6099,2.0847,0.4748,0.1681,0.9681,0.8,A,0.13,as,
455.0,0.5004,0.1,2.0,0.35028,0.3336,0.55878,455.0,2.36856,0.25,0.1251,0.6255,5.0,2D1U,2.0,True,0.482,59.0,True,right,-0.0834,1.3625,2.1208,0.7583,0.3212,0.8703,0.5491,A,0.13,as,
456.0,0.5004,1.2,1.0,0.2502,0.24186,0.82566,456.0,2.16006,-0.31,-0.15846,0.34194,5.0,1D2U,2.0,True,0.375,64.0,False,right,0.1668,0.1806,0.6554,0.4748,1.3311,2.131,0.7999,A,0.135,as,
457.0,0.5004,1.2,1.0,0.38364,0.3753,0.7089,457.0,2.59374,0.25,0.1251,0.6255,5.0,2D1U,1.0,True,0.551,59.0,True,left,-0.0834,0.3129,1.071,0.7581,1.7545,2.3045,0.55,A,0.135,as,
458.0,0.5004,0.1,2.0,0.42534,0.21684,0.85068,458.0,2.60208,0.21,0.10842,0.60882,5.0,2D1U,2.0,True,0.424,59.0,False,right,0.1668,1.8581,2.5996,0.7415,0.2745,1.0746,0.8001,A,0.13,as,
459.0,0.5004,0.1,1.0,0.36696,0.21684,0.84234,459.0,2.53536,0.21,0.10842,0.60882,5.0,2D1U,2.0,False,0.458,59.0,False,right,-0.0834,0.2956,1.0383,0.7427,1.8554,2.405,0.5496,A,0.13,as,
460.0,0.5004,1.2,1.0,0.43368,0.22518,0.60882,460.0,2.13504,-0.27,-0.13344,0.36696,5.0,1D2U,2.0,True,0.526,65.0,True,right,0.1668,0.3686,0.8693,0.5008,1.3277,2.1277,0.8,A,0.135,as,
461.0,0.5004,1.2,2.0,0.40032,0.417,0.5004,461.0,2.44362,0.25,0.1251,0.6255,5.0,2D1U,2.0,True,0.41,60.0,True,right,-0.0834,1.3596,2.1175,0.758,0.3758,0.9253,0.5495,A,0.135,as,
462.0,0.5004,0.1,2.0,0.30858,0.40032,0.63384,462.0,2.2101,-0.27,-0.13344,0.36696,5.0,1D2U,1.0,True,0.392,65.0,True,left,0.1668,1.5254,2.0249,0.4995,0.1586,0.9587,0.8001,A,0.13,as,
463.0,0.5004,0.1,2.0,0.24186,0.3336,0.72558,463.0,2.18508,-0.23,-0.11676,0.38364,5.0,1D2U,1.0,True,0.541,65.0,False,left,-0.0834,1.4212,1.9367,0.5154,0.2125,0.7618,0.5493,A,0.13,as,
464.0,0.5004,1.2,1.0,0.39198,0.2919,0.53376,464.0,2.10168,-0.23,-0.11676,0.38364,5.0,1D2U,2.0,True,0.467,65.0,False,right,0.1668,0.3254,0.8424,0.5171,1.2258,2.0257,0.8,A,0.135,as,
465.0,0.5004,1.2,2.0,0.3336,0.35028,0.86736,465.0,2.67714,0.25,0.1251,0.6255,5.0,2D1U,2.0,True,0.567,60.0,True,right,-0.0834,1.6567,2.4144,0.7577,0.306,0.8562,0.5502,A,0.135,as,
466.0,0.5004,0.1,2.0,0.42534,0.2085,0.69222,466.0,2.43528,0.21,0.10842,0.60882,5.0,2D1U,2.0,True,0.416,61.0,True,right,0.1668,1.7012,2.4433,0.7421,0.2766,1.076,0.7994,A,0.13,as,
467.0,0.5004,0.1,1.0,0.22518,0.30858,0.5421,467.0,1.98492,-0.19,-0.09174,0.40866,5.0,1D2U,2.0,True,0.44,65.0,False,right,-0.0834,0.1553,0.6975,0.5422,1.2139,1.7639,0.55,A,0.13,as,
468.0,0.5004,1.2,1.0,0.23352,0.28356,0.46704,468.0,2.09334,0.21,0.10842,0.60882,5.0,2D1U,1.0,True,0.475,61.0,True,left,0.1668,0.1644,0.9067,0.7423,1.2232,2.0233,0.8002,A,0.135,as,
469.0,0.5004,1.2,1.0,0.35028,0.25854,0.82566,469.0,2.51868,0.17,0.0834,0.5838,5.0,2D1U,1.0,True,0.509,61.0,False,left,-0.0834,0.2854,1.002,0.7167,1.802,2.3521,0.55,A,0.135,as,
470.0,0.5004,0.1,1.0,0.26688,0.20016,0.65052,470.0,2.20176,0.17,0.0834,0.5838,5.0,2D1U,2.0,False,0.399,61.0,False,right,0.1668,0.1989,0.9153,0.7164,1.415,2.2154,0.8004,A,0.13,as,
471.0,0.5004,0.1,1.0,0.32526,0.34194,0.77562,471.0,2.35188,-0.19,-0.09174,0.40866,5.0,1D2U,2.0,True,0.542,65.0,False,right,-0.0834,0.2557,0.7979,0.5421,1.5477,2.0976,0.5499,A,0.13,as,
472.0,0.5004,1.2,1.0,0.35862,0.30024,0.8757,472.0,2.4603,-0.15,-0.07506,0.42534,5.0,1D2U,2.0,True,0.425,65.0,False,right,0.1668,0.2934,0.852,0.5586,1.5772,2.3766,0.7994,A,0.135,as,
473.0,0.5004,1.2,1.0,0.32526,0.43368,0.49206,473.0,2.36022,0.21,0.10842,0.60882,5.0,2D1U,1.0,True,1.608,62.0,True,left,-0.0834,0.2594,1.0008,0.7414,1.4679,2.0175,0.5496,A,0.135,as,
474.0,0.5004,0.1,1.0,0.2502,0.2502,0.88404,474.0,2.31018,-0.15,-0.07506,0.42534,5.0,1D2U,2.0,True,0.384,65.0,False,right,0.1668,0.1786,0.7366,0.5581,1.4706,2.2705,0.7999,A,0.13,as,
475.0,0.5004,0.1,2.0,0.3753,0.36696,0.85068,475.0,2.53536,-0.11,-0.05838,0.44202,5.0,1D2U,2.0,False,0.45,65.0,False,right,-0.0834,1.6794,2.2544,0.575,0.3467,0.8961,0.5494,A,0.13,as,
476.0,0.5004,1.2,1.0,0.40866,0.35862,0.57546,476.0,2.26848,-0.15,-0.07506,0.42534,5.0,1D2U,2.0,True,0.492,66.0,True,right,0.1668,0.3429,0.9009,0.5579,1.3262,2.1259,0.7997,A,0.135,as,
477.0,0.5004,1.2,2.0,0.21684,0.3336,0.63384,477.0,2.11002,-0.15,-0.07506,0.42534,5.0,1D2U,1.0,True,0.433,66.0,True,left,-0.0834,1.3109,1.8694,0.5586,0.1944,0.7436,0.5492,A,0.135,as,
478.0,0.5004,0.1,2.0,0.27522,0.20016,0.84234,478.0,2.42694,0.21,0.10842,0.60882,5.0,2D1U,1.0,False,0.484,62.0,True,left,0.1668,1.6971,2.4441,0.7471,0.1224,0.9219,0.7995,A,0.13,as,
479.0,0.5004,0.1,2.0,0.24186,0.40032,0.7089,479.0,2.47698,0.25,0.1251,0.6255,5.0,2D1U,2.0,True,0.384,62.0,False,right,-0.0834,1.406,2.1642,0.7582,0.2144,0.7643,0.55,A,0.13,as,
480.0,0.5004,1.2,2.0,0.31692,0.30024,0.88404,480.0,2.6271,0.25,0.1251,0.6255,5.0,2D1U,2.0,True,0.251,62.0,False,right,0.1668,1.779,2.5377,0.7587,0.1624,0.9629,0.8005,A,0.135,as,
481.0,0.5004,1.2,2.0,0.27522,0.44202,0.7089,481.0,2.36856,-0.11,-0.05838,0.44202,5.0,1D2U,1.0,True,0.592,67.0,True,left,-0.0834,1.4434,2.0181,0.5747,0.2516,0.8012,0.5496,A,0.135,as,
482.0,0.5004,0.1,1.0,0.2085,0.35028,0.52542,482.0,2.19342,0.21,0.10842,0.60882,5.0,2D1U,1.0,True,0.483,63.0,True,left,0.1668,0.1414,0.8831,0.7417,1.2581,2.0575,0.7994,A,0.13,as,
483.0,0.5004,0.1,2.0,0.32526,0.38364,0.48372,483.0,2.13504,-0.11,-0.05838,0.44202,5.0,1D2U,2.0,False,0.392,67.0,True,right,-0.0834,1.2696,1.8442,0.5746,0.3032,0.8525,0.5492,A,0.13,as,
484.0,0.5004,1.2,2.0,0.26688,0.38364,0.43368,484.0,2.00994,-0.15,-0.07506,0.42534,5.0,1D2U,1.0,True,0.351,68.0,True,left,0.1668,1.2833,1.8413,0.558,0.1163,0.9164,0.8001,A,0.135,as,
485.0,0.5004,1.2,2.0,0.35862,0.40866,0.71724,485.0,2.59374,0.21,0.10842,0.60882,5.0,2D1U,2.0,True,0.35,63.0,True,right,-0.0834,1.532,2.2736,0.7416,0.3317,0.8819,0.5502,A,0.135,as,
486.0,0.5004,0.1,1.0,0.44202,0.43368,0.5421,486.0,2.34354,-0.15,-0.07506,0.42534,5.0,1D2U,2.0,True,0.317,68.0,True,right,0.1668,0.3735,0.9317,0.5582,1.3234,2.1234,0.8,A,0.13,as,
487.0,0.5004,0.1,1.0,0.44202,0.27522,0.7089,487.0,2.51034,0.17,0.0834,0.5838,5.0,2D1U,2.0,False,0.375,63.0,False,right,-0.0834,0.3739,1.0905,0.7166,1.7729,2.3236,0.5507,A,0.13,as,
488.0,0.5004,1.2,1.0,0.26688,0.35862,0.6672,488.0,2.23512,-0.11,-0.05838,0.44202,5.0,1D2U,2.0,True,0.366,69.0,True,right,0.1668,0.1973,0.7726,0.5753,1.2892,2.0895,0.8003,A,0.135,as,
489.0,0.5004,1.2,1.0,0.2502,0.36696,0.85902,489.0,2.5854,0.21,0.10842,0.60882,5.0,2D1U,2.0,False,0.35,64.0,True,right,-0.0834,0.1786,0.9202,0.7416,1.754,2.3032,0.5492,A,0.135,as,
490.0,0.5004,0.1,2.0,0.2085,0.39198,0.5421,490.0,2.26848,0.25,0.1251,0.6255,5.0,2D1U,2.0,True,0.416,64.0,False,right,0.1668,1.3298,2.0881,0.7583,0.0551,0.8546,0.7994,A,0.13,as,
491.0,0.5004,0.1,1.0,0.35862,0.43368,0.45036,491.0,2.18508,-0.11,-0.05838,0.44202,5.0,1D2U,2.0,True,0.434,69.0,True,right,-0.0834,0.2926,0.8674,0.5748,1.2926,1.8419,0.5492,A,0.13,as,
492.0,0.5004,1.2,1.0,0.3336,0.30858,0.73392,492.0,2.502,0.25,0.1251,0.6255,5.0,2D1U,2.0,False,0.425,64.0,False,right,0.1668,0.2637,1.0225,0.7588,1.606,2.4058,0.7999,A,0.135,as,
493.0,0.5004,1.2,2.0,0.36696,0.32526,0.57546,493.0,2.23512,-0.07,-0.03336,0.46704,5.0,1D2U,2.0,False,0.367,69.0,False,right,-0.0834,1.3999,2.0001,0.6002,0.3419,0.892,0.5501,A,0.135,as,
494.0,0.5004,0.1,2.0,0.26688,0.417,0.76728,494.0,2.59374,0.29,0.14178,0.64218,5.0,2D1U,2.0,True,0.459,64.0,False,right,0.1668,1.6196,2.3944,0.7748,0.1193,0.9192,0.7998,A,0.13,as,
495.0,0.5004,0.1,2.0,0.30858,0.43368,0.6255,495.0,2.31018,-0.11,-0.05838,0.44202,5.0,1D2U,2.0,False,0.4,70.0,True,right,-0.0834,1.3898,1.9649,0.5751,0.2818,0.8315,0.5497,A,0.13,as,
496.0,0.5004,1.2,2.0,0.25854,0.44202,0.45036,496.0,2.2935,0.29,0.14178,0.64218,5.0,2D1U,2.0,True,0.433,64.0,False,right,0.1668,1.2944,2.07,0.7756,0.1107,0.9112,0.8005,A,0.135,as,
497.0,0.5004,1.2,1.0,0.39198,0.35862,0.89238,497.0,2.76888,0.25,0.1251,0.6255,5.0,2D1U,2.0,False,0.517,65.0,True,right,-0.0834,0.3219,1.0801,0.7581,1.9469,2.497,0.55,A,0.135,as,
498.0,0.5004,0.1,2.0,0.43368,0.3336,0.78396,498.0,2.69382,0.29,0.14178,0.64218,5.0,2D1U,2.0,True,0.35,66.0,True,right,0.1668,1.7989,2.5736,0.7748,0.2824,1.0823,0.7999,A,0.13,as,
499.0,0.5004,0.1,2.0,0.35862,0.35862,0.72558,499.0,2.36856,-0.15,-0.07506,0.42534,5.0,1D2U,2.0,False,0.334,70.0,False,right,-0.0834,1.543,2.1015,0.5585,0.3345,0.8847,0.5502,A,0.13,as,
500.0,0.5004,1.2,2.0,0.43368,0.40032,0.69222,500.0,2.6688,0.29,0.14178,0.64218,5.0,2D1U,1.0,False,0.367,66.0,True,left,0.1668,1.7062,2.4808,0.7746,0.2815,1.0813,0.7998,A,0.135,as,
501.0,0.5004,1.2,2.0,0.24186,0.43368,0.45036,501.0,2.03496,-0.19,-0.09174,0.40866,5.0,1D2U,1.0,True,0.317,70.0,False,left,-0.0834,1.1479,1.6899,0.542,0.2146,0.7646,0.55,A,0.135,as,
502.0,0.5004,0.1,1.0,0.35028,0.3753,0.82566,502.0,2.4603,-0.19,-0.09174,0.40866,5.0,1D2U,2.0,True,0.125,70.0,False,right,0.1668,0.2798,0.8211,0.5413,1.4964,2.2958,0.7994,A,0.13,as,
503.0,0.5004,0.1,2.0,0.35862,0.40032,0.834,503.0,2.51868,-0.15,-0.07506,0.42534,5.0,1D2U,1.0,True,0.832,71.0,True,left,-0.0834,1.6504,2.2089,0.5585,0.3337,0.8837,0.5501,A,0.13,as,
504.0,0.5004,1.2,1.0,0.35862,0.34194,0.64218,504.0,2.51034,0.33,0.1668,0.6672,5.0,2D1U,1.0,True,0.4,66.0,False,left,0.1668,0.2923,1.0927,0.8004,1.5847,2.3846,0.7999,A,0.135,as,
505.0,0.5004,1.2,2.0,0.32526,0.32526,0.60882,505.0,2.18508,-0.15,-0.07506,0.42534,5.0,1D2U,2.0,False,0.383,71.0,True,right,-0.0834,1.3896,1.9473,0.5576,0.2973,0.8479,0.5506,A,0.135,as,
506.0,0.5004,0.1,2.0,0.27522,0.30024,0.77562,506.0,2.51868,0.33,0.1668,0.6672,5.0,2D1U,2.0,True,1.492,66.0,False,right,0.1668,1.6311,2.4302,0.7991,0.1226,0.9222,0.7996,A,0.13,as,
507.0,0.5004,0.1,1.0,0.45036,0.2919,0.834,507.0,2.71884,0.29,0.14178,0.64218,5.0,2D1U,1.0,True,0.491,67.0,True,left,-0.0834,0.3817,1.1569,0.7752,1.9642,2.5148,0.5506,A,0.13,as,
508.0,0.5004,1.2,2.0,0.417,0.36696,0.63384,508.0,2.32686,-0.19,-0.09174,0.40866,5.0,1D2U,1.0,True,0.483,72.0,True,left,0.1668,1.6364,2.178,0.5416,0.2698,1.0696,0.7999,A,0.135,as,
509.0,0.5004,1.2,2.0,0.30024,0.417,0.56712,509.0,2.19342,-0.19,-0.09174,0.40866,5.0,1D2U,2.0,False,0.483,72.0,True,right,-0.0834,1.324,1.8657,0.5417,0.2742,0.8245,0.5503,A,0.135,as,
510.0,0.5004,0.1,2.0,0.28356,0.3336,0.43368,510.0,2.19342,0.29,0.14178,0.64218,5.0,2D1U,2.0,True,0.159,67.0,True,right,0.1668,1.3025,2.0771,0.7746,0.136,0.9361,0.8002,A,0.13,as,
511.0,0.5004,0.1,2.0,0.2085,0.22518,0.8757,511.0,2.19342,-0.23,-0.11676,0.38364,5.0,1D2U,1.0,True,0.674,72.0,False,left,-0.0834,1.5403,2.0574,0.5171,0.1824,0.7318,0.5494,A,0.13,as,
512.0,0.5004,1.2,2.0,0.21684,0.32526,0.68388,512.0,2.11002,-0.23,-0.11676,0.38364,5.0,1D2U,1.0,True,0.483,72.0,False,left,0.1668,1.4816,1.9981,0.5166,0.0646,0.8649,0.8003,A,0.135,as,
513.0,0.5004,1.2,2.0,0.42534,0.20016,0.55044,513.0,2.085,-0.19,-0.09174,0.40866,5.0,1D2U,1.0,True,0.542,73.0,True,left,-0.0834,1.4304,1.9723,0.5419,0.3966,0.9473,0.5507,A,0.135,as,
514.0,0.5004,0.1,1.0,0.38364,0.30024,0.72558,514.0,2.53536,0.25,0.1251,0.6255,5.0,2D1U,1.0,True,0.475,67.0,False,left,0.1668,0.3116,1.071,0.7594,1.6454,2.4454,0.8,A,0.13,as,
515.0,0.5004,0.1,1.0,0.44202,0.3336,0.49206,515.0,2.17674,-0.19,-0.09174,0.40866,5.0,1D2U,2.0,True,0.467,73.0,True,right,-0.0834,0.3704,0.9126,0.5422,1.3797,1.9295,0.5498,A,0.13,as,
516.0,0.5004,1.2,2.0,0.26688,0.35028,0.5838,516.0,2.32686,0.25,0.1251,0.6255,5.0,2D1U,1.0,False,0.342,67.0,False,left,0.1668,1.4308,2.1893,0.7585,0.1141,0.9144,0.8003,A,0.135,as,
517.0,0.5004,1.2,2.0,0.31692,0.3753,0.56712,517.0,2.40192,0.29,0.14178,0.64218,5.0,2D1U,1.0,False,0.459,68.0,True,left,-0.0834,1.3369,2.1124,0.7756,0.287,0.8377,0.5507,A,0.135,as,
518.0,0.5004,0.1,2.0,0.24186,0.30024,0.60048,518.0,2.06832,-0.15,-0.07506,0.42534,5.0,1D2U,1.0,True,0.467,73.0,False,left,0.1668,1.4208,1.9789,0.5581,0.087,0.8876,0.8005,A,0.13,as,
519.0,0.5004,0.1,2.0,0.39198,0.30858,0.50874,519.0,2.3769,0.33,0.1668,0.6672,5.0,2D1U,2.0,True,0.375,68.0,False,right,-0.0834,1.3532,2.1536,0.8004,0.3612,0.912,0.5507,A,0.13,as,
520.0,0.5004,1.2,1.0,0.36696,0.38364,0.43368,520.0,2.11002,-0.15,-0.07506,0.42534,5.0,1D2U,2.0,True,0.208,73.0,False,right,0.1668,0.2973,0.8556,0.5583,1.139,1.939,0.8,A,0.135,as,
521.0,0.5004,1.2,1.0,0.30024,0.2502,0.59214,521.0,2.085,-0.11,-0.05838,0.44202,5.0,1D2U,2.0,True,0.399,73.0,False,right,-0.0834,0.2347,0.8099,0.5751,1.3764,1.9258,0.5494,A,0.135,as,
522.0,0.5004,0.1,1.0,0.417,0.3753,0.85068,522.0,2.81058,0.33,0.1668,0.6672,5.0,2D1U,1.0,True,0.3,68.0,False,left,0.1668,0.3485,1.1484,0.7999,1.8486,2.6485,0.7999,A,0.13,as,
523.0,0.5004,0.1,2.0,0.32526,0.31692,0.68388,523.0,2.26848,-0.11,-0.05838,0.44202,5.0,1D2U,2.0,False,0.408,73.0,False,right,-0.0834,1.465,2.0406,0.5756,0.2988,0.848,0.5492,A,0.13,as,
524.0,0.5004,1.2,1.0,0.22518,0.40032,0.88404,524.0,2.43528,-0.15,-0.07506,0.42534,5.0,1D2U,2.0,True,0.2,74.0,True,right,0.1668,0.1594,0.7171,0.5577,1.4502,2.2511,0.8009,A,0.135,as,
525.0,0.5004,1.2,2.0,0.36696,0.44202,0.7089,525.0,2.66046,0.29,0.14178,0.64218,5.0,2D1U,1.0,False,0.382,69.0,True,left,-0.0834,1.5298,2.3052,0.7754,0.3373,0.888,0.5507,A,0.135,as,
526.0,0.5004,0.1,1.0,0.39198,0.30024,0.42534,526.0,2.0433,-0.15,-0.07506,0.42534,5.0,1D2U,2.0,True,0.275,74.0,True,right,0.1668,0.3262,0.8853,0.5591,1.1604,1.9602,0.7999,A,0.13,as,
527.0,0.5004,0.1,1.0,0.36696,0.40032,0.68388,527.0,2.39358,-0.11,-0.05838,0.44202,5.0,1D2U,1.0,False,0.45,75.0,True,left,-0.0834,0.3031,0.8781,0.575,1.5356,2.0864,0.5508,A,0.13,as,
528.0,0.5004,1.2,2.0,0.23352,0.45036,0.7506,528.0,2.60208,0.33,0.1668,0.6672,5.0,2D1U,1.0,False,0.451,70.0,True,left,0.1668,1.5641,2.3634,0.7993,0.0807,0.8807,0.8001,A,0.135,as,
529.0,0.5004,1.2,1.0,0.417,0.43368,0.5421,529.0,2.57706,0.37,0.18348,0.68388,5.0,2D1U,1.0,True,0.567,70.0,False,left,-0.0834,0.3515,1.1679,0.8163,1.6844,2.2348,0.5504,A,0.135,as,
530.0,0.5004,0.1,2.0,0.34194,0.39198,0.60882,530.0,2.52702,0.37,0.18348,0.68388,5.0,2D1U,2.0,True,0.616,70.0,False,right,0.1668,1.5289,2.3456,0.8167,0.1874,0.9871,0.7998,A,0.13,as,
531.0,0.5004,0.1,2.0,0.3336,0.2085,0.72558,531.0,2.43528,0.33,0.1668,0.6672,5.0,2D1U,2.0,True,0.55,71.0,True,right,-0.0834,1.5157,2.3155,0.7998,0.3063,0.8571,0.5508,A,0.13,as,
532.0,0.5004,1.2,2.0,0.3753,0.40032,0.73392,532.0,2.43528,-0.15,-0.07506,0.42534,5.0,1D2U,1.0,True,0.45,76.0,True,left,0.1668,1.6939,2.2525,0.5586,0.2271,1.0273,0.8002,A,0.135,as,
533.0,0.5004,1.2,2.0,0.3753,0.2502,0.56712,533.0,2.11836,-0.15,-0.07506,0.42534,5.0,1D2U,1.0,True,0.458,76.0,True,left,-0.0834,1.3953,1.9538,0.5585,0.3453,0.8946,0.5493,A,0.135,as,
534.0,0.5004,0.1,2.0,0.35028,0.26688,0.48372,534.0,2.0433,-0.11,-0.05838,0.44202,5.0,1D2U,1.0,True,0.5,77.0,True,left,0.1668,1.4192,1.9935,0.5743,0.2029,1.0024,0.7995,A,0.13,as,
535.0,0.5004,0.1,1.0,0.2919,0.25854,0.55878,535.0,2.27682,0.33,0.1668,0.6672,5.0,2D1U,1.0,True,0.492,71.0,True,left,-0.0834,0.2226,1.0224,0.7999,1.5565,2.1057,0.5492,A,0.13,as,
536.0,0.5004,1.2,2.0,0.23352,0.39198,0.40866,536.0,2.17674,0.29,0.14178,0.64218,5.0,2D1U,1.0,False,0.449,71.0,False,left,0.1668,1.2268,2.0019,0.775,0.0854,0.8848,0.7995,A,0.135,as,
537.0,0.5004,1.2,1.0,0.3336,0.35862,0.71724,537.0,2.35188,-0.11,-0.05838,0.44202,5.0,1D2U,1.0,False,0.467,77.0,True,left,-0.0834,0.2635,0.8384,0.5749,1.5301,2.0797,0.5497,A,0.135,as,
538.0,0.5004,0.1,1.0,0.2085,0.36696,0.67554,538.0,2.4186,0.33,0.1668,0.6672,5.0,2D1U,1.0,True,0.4,72.0,True,left,0.1668,0.1454,0.9451,0.7997,1.4699,2.2699,0.8,A,0.13,as,
539.0,0.5004,0.1,2.0,0.42534,0.22518,0.80898,539.0,2.38524,-0.15,-0.07506,0.42534,5.0,1D2U,1.0,True,0.484,78.0,True,left,-0.0834,1.6923,2.2514,0.5591,0.4009,0.9518,0.5509,A,0.13,as,
540.0,0.5004,1.2,2.0,0.2919,0.21684,0.71724,540.0,2.15172,-0.15,-0.07506,0.42534,5.0,1D2U,1.0,True,0.475,78.0,True,left,0.1668,1.591,2.1497,0.5586,0.1414,0.9414,0.8,A,0.135,as,
541.0,0.5004,1.2,2.0,0.23352,0.24186,0.52542,541.0,2.1684,0.33,0.1668,0.6672,5.0,2D1U,2.0,True,0.55,72.0,True,right,-0.0834,1.2145,2.0147,0.8002,0.2066,0.7562,0.5496,A,0.135,as,
542.0,0.5004,0.1,1.0,0.43368,0.38364,0.55044,542.0,2.31018,-0.11,-0.05838,0.44202,5.0,1D2U,2.0,True,0.458,79.0,True,right,0.1668,0.3658,0.9411,0.5752,1.3415,2.1408,0.7994,A,0.13,as,
543.0,0.5004,0.1,1.0,0.417,0.417,0.59214,543.0,2.36856,-0.11,-0.05838,0.44202,5.0,1D2U,2.0,True,0.384,79.0,True,right,-0.0834,0.3462,0.9212,0.5751,1.4877,2.0371,0.5494,A,0.13,as,
544.0,0.5004,1.2,1.0,0.28356,0.35028,0.61716,544.0,2.39358,0.29,0.14178,0.64218,5.0,2D1U,1.0,True,0.359,73.0,True,left,0.1668,0.2204,0.9949,0.7746,1.4609,2.2616,0.8006,A,0.135,as,
545.0,0.5004,1.2,2.0,0.34194,0.43368,0.61716,545.0,2.36022,-0.07,-0.03336,0.46704,5.0,1D2U,1.0,True,0.559,79.0,False,left,-0.0834,1.4123,2.0121,0.5998,0.3123,0.8617,0.5494,A,0.135,as,
546.0,0.5004,0.1,1.0,0.42534,0.30024,0.40866,546.0,2.27682,0.29,0.14178,0.64218,5.0,2D1U,1.0,True,0.433,73.0,True,left,0.1668,0.3571,1.1323,0.7752,1.3901,2.1908,0.8007,A,0.13,as,
547.0,0.5004,0.1,1.0,0.27522,0.40866,0.82566,547.0,2.47698,-0.07,-0.03336,0.46704,5.0,1D2U,2.0,True,0.475,79.0,False,right,-0.0834,0.207,0.8071,0.6001,1.6074,2.1569,0.5495,A,0.13,as,
548.0,0.5004,1.2,2.0,0.39198,0.31692,0.6255,548.0,2.31852,-0.03,-0.01668,0.48372,5.0,1D2U,1.0,True,0.474,79.0,False,left,0.1668,1.6029,2.2198,0.6169,0.245,1.0443,0.7993,A,0.135,as,
549.0,0.5004,1.2,2.0,0.23352,0.22518,0.69222,549.0,2.13504,-0.03,-0.01668,0.48372,5.0,1D2U,1.0,True,0.516,79.0,False,left,-0.0834,1.3817,1.9989,0.6172,0.2064,0.7568,0.5503,A,0.135,as,
550.0,0.5004,0.1,2.0,0.35028,0.42534,0.70056,550.0,2.60208,0.25,0.1251,0.6255,5.0,2D1U,2.0,True,0.392,73.0,False,right,0.1668,1.6307,2.3892,0.7586,0.1974,0.9976,0.8002,A,0.13,as,
551.0,0.5004,0.1,1.0,0.23352,0.35028,0.65886,551.0,2.2518,0.01,0.00834,0.50874,5.0,1D2U,1.0,True,0.467,79.0,False,left,-0.0834,0.163,0.8048,0.6418,1.4383,1.9882,0.5499,A,0.13,as,
552.0,0.5004,1.2,1.0,0.40866,0.44202,0.81732,552.0,2.65212,-0.03,-0.01668,0.48372,5.0,1D2U,1.0,False,0.441,80.0,True,left,0.1668,0.3384,0.9551,0.6167,1.6217,2.4217,0.8001,A,0.135,as,
