Unnamed: 0,standardDur,audNoise,order,preDur,postDur,isiDur,trial_num,totalDur,delta_dur_percents,deltaDurS,testDurS,intensities,current_stair,responses,is_correct,response_rts,stair_num_reversal,stair_is_reversal,response_keys,conflictDur,recordedOnsetAudioTest,recordedOffsetAudioTest,recordedDurAudioTest,recordedOnsetVisualStandard,recordedOffsetVisualStandard,recordedDurVisualStandard,modalityPostCueTest,participantID,VisualPSE
0,0.49964,1.2,2,0.21651,0.30811,0.50797,0,1.58219,-0.9,-0.44968,0.04996,5,1D1U,1.0,True,0.559,0,False,left,0.0,0.0007682000286877,1.5899201999418435,1.589151999913156,0.2157143999356776,0.715335899963975,0.4996215000282973,,DT,-1.8499971702667928e-05
1,0.49964,0.1,2,0.29146,0.38306,0.61622,1,1.84034,-0.9,-0.44968,0.04996,5,lapse_rate,1.0,True,0.41,0,False,left,0.0,0.000830499920994,1.8569696000777185,1.8561391001567245,0.283072599908337,0.7832464000675827,0.5001738001592457,,DT,0.0005338001592457564
2,0.49964,0.1,2,0.23317,0.33309,0.56626,2,1.68212,-0.9,-0.44968,0.04996,5,2D1U,1.0,True,0.271,0,False,left,0.0,0.0008815000765025,1.68922709999606,1.6883455999195576,0.2232039999216795,0.7232598999980837,0.5000559000764042,,DT,0.00041590007640424087
3,0.49964,1.2,2,0.38306,0.41637,0.6079,3,1.95693,-0.9,-0.44968,0.04996,5,1D1U,1.0,True,0.515,0,False,left,0.0,0.000745200086385,1.957514700014144,1.9567694999277592,0.3734168000519275,0.8737343000248075,0.5003174999728799,,DT,0.0006774999728799136
4,0.49964,0.1,2,0.44135,0.41637,0.70782,4,2.11514,-0.9,-0.44968,0.04996,5,1D2U,1.0,True,0.379,0,False,left,0.0,0.0007573999464511,2.1240467000752687,2.1232893001288176,0.4321017998736352,0.9317592000588776,0.4996574001852423,,DT,1.740018524232223e-05
5,0.49964,1.2,2,0.22484,0.40804,0.43302,5,1.69878,-0.74,-0.3664,0.13324,5,1D1U,1.0,True,0.532,0,False,left,0.0,0.0007311999797821,1.6984860999509692,1.6977548999711871,0.2152535000350326,0.7144623999483883,0.4992088999133557,,DT,-0.0004311000866442649
6,0.49964,0.1,2,0.20818,0.2748,0.74946,6,1.94026,-0.58,-0.29146,0.20818,5,1D1U,2.0,False,0.768,0,False,right,0.0,0.0008041998371481,1.9556736000813544,1.9548694002442064,0.1984033999033272,0.6987628000788391,0.5003594001755118,,DT,0.000719400175511864
7,0.49964,1.2,2,0.24982,0.35808,0.85771,7,2.09849,-0.74,-0.3664,0.13324,5,1D1U,1.0,True,0.269,0,False,left,0.0,0.0007694000378251,2.098824599990621,2.098055199952796,0.2407951999921351,0.7410295999143273,0.5002343999221921,,DT,0.0005943999221921237
8,0.49964,0.1,2,0.33309,0.44968,0.68284,8,2.01521,-0.9,-0.44968,0.04996,5,1D2U,1.0,True,0.37,0,False,left,0.0,0.0007690000347793,2.014641599962488,2.0138725999277085,0.3229347998276353,0.8231828999705613,0.500248100142926,,DT,0.0006081001429260047
9,0.49964,0.1,2,0.43302,0.28313,0.458,9,2.62311,0.9,0.44968,0.94932,5,lapse_rate,2.0,True,0.443,0,False,right,0.0,0.0007507000118494,2.6321909001562744,2.631440200144425,0.4242847000714391,0.9232913001906128,0.4990066001191735,,DT,-0.0006333998808264463
10,0.49964,1.2,1,0.41637,0.24982,0.61622,10,1.91529,-0.74,-0.3664,0.13324,5,2D1U,2.0,True,0.251,0,False,right,0.0,0.0008187999483197,1.9150573001243176,1.9142385001759976,1.1572974000591785,1.657530400203541,0.5002330001443624,,DT,0.0005930001443624766
11,0.49964,0.1,1,0.33309,0.35808,0.39971,11,1.75707,-0.66,-0.33309,0.16655,5,1D1U,2.0,True,1.242,1,True,right,0.0,0.0007986000273376,1.7555802001152188,1.754781600087881,0.888618899974972,1.390614900039509,0.5019960000645369,,DT,0.002356000064536956
12,0.49964,1.2,1,0.19986,0.31644,0.86604,12,2.09016,-0.58,-0.29146,0.20818,5,2D1U,2.0,True,0.25,0,False,right,0.0,0.0008010000456124,2.1064327000640333,2.105631700018421,1.2642938999924809,1.7644234001636503,0.5001295001711696,,DT,0.0004895001711696656
13,0.49964,0.1,1,0.28313,0.21651,0.85771,13,1.99023,-0.74,-0.3664,0.13324,5,1D2U,2.0,True,1.147,0,False,right,0.0,0.0007299000862985,1.9995966001879424,1.998866700101644,1.2661387000698596,1.766331900143996,0.5001932000741363,,DT,0.0005532000741362841
14,0.49964,1.2,1,0.24149,0.23317,0.65786,14,2.58148,0.9,0.44968,0.94932,5,lapse_rate,2.0,False,0.328,0,False,right,0.0,0.000817900057882,2.5808011998888105,2.5799832998309284,1.8481944999657571,2.3476839000359178,0.4994894000701606,,DT,-0.00015059992983934567
15,0.49964,1.2,1,0.3664,0.34975,0.7911,15,2.21507,-0.58,-0.29146,0.20818,5,1D1U,2.0,True,0.263,0,False,right,0.0,0.000678600044921,2.2155254997778684,2.2148468997329473,1.3572898998390883,1.8564462999347595,0.4991564000956714,,DT,-0.0004835999043285577
16,0.49964,0.1,1,0.37473,0.25815,0.71615,16,2.14013,-0.42,-0.20818,0.29146,5,1D1U,2.0,True,1.458,0,False,right,0.0,0.000755599932745,2.148974899901077,2.148219299968332,1.3737963000312448,1.8735235999338329,0.4997272999025881,,DT,8.72999025881005e-05
17,0.49964,1.2,1,0.34975,0.29146,0.85771,17,2.19009,-0.62,-0.30811,0.19153,5,1D1U,2.0,True,0.876,2,True,right,0.0,0.0002621999010443,2.1989321999717504,2.198670000070706,1.391461800085381,1.890744199976325,0.4992823998909443,,DT,-0.00035760010905566686
18,0.49964,0.1,1,0.39138,0.32477,0.8827,18,2.38995,-0.42,-0.20818,0.29146,5,2D1U,2.0,True,0.316,0,False,right,0.0,0.000838000094518,2.398729899898171,2.397891899803654,1.557865000097081,2.058046800084412,0.500181799987331,,DT,0.0005417999873310597
19,0.49964,1.2,1,0.35808,0.24149,0.61622,19,1.84867,-0.74,-0.3664,0.13324,5,1D2U,2.0,True,0.427,0,False,right,0.0,0.0002808000426739,1.8567393000703305,1.8564585000276568,1.0982052001636475,1.598850800190121,0.5006456000264734,,DT,0.00100560002647343
20,0.49964,1.2,2,0.22484,0.24149,0.78277,20,1.7987,-0.9,-0.44968,0.04996,5,lapse_rate,1.0,True,0.513,0,False,left,0.0,0.0006164999213069,1.8056389999110252,1.8050224999897184,0.2138785999268293,0.7143117999657989,0.5004332000389695,,DT,0.0007932000389695437
21,0.49964,0.1,2,0.26647,0.43302,0.68284,21,2.24837,-0.26,-0.13324,0.3664,5,2D1U,2.0,False,1.153,0,False,right,0.0,0.0003021999727934,2.2414942998439074,2.241192099871114,0.258002899819985,0.7585539999417961,0.500551100121811,,DT,0.0009111001218110593
22,0.49964,1.2,2,0.38306,0.29978,0.61622,22,2.00688,-0.58,-0.29146,0.20818,5,1D1U,1.0,True,0.555,2,False,left,0.0,0.000757000176236,2.014737999998033,2.013980999821797,0.3733874999452382,0.8736872998997569,0.5002997999545187,,DT,0.0006597999545187028
23,0.49964,0.1,2,0.44968,0.25815,0.83273,23,2.24838,-0.58,-0.29146,0.20818,5,1D2U,1.0,True,0.656,0,False,left,0.0,0.0008270998951047,2.247320899972692,2.2464938000775874,0.4399423999711871,0.9403540000785142,0.5004116001073271,,DT,0.0007716001073271306
24,0.49964,1.2,2,0.44135,0.30811,0.66619,24,1.96525,-0.9,-0.44968,0.04996,5,lapse_rate,1.0,True,0.381,0,False,left,0.0,0.0007327999919652,1.9742560000158849,1.9735232000239191,0.4313411000184715,0.9315049999859184,0.5001638999674469,,DT,0.0005238999674469502
25,0.49964,1.2,2,0.20818,0.37473,0.44135,25,1.8903,-0.26,-0.13324,0.3664,5,1D1U,1.0,True,0.382,0,False,left,0.0,0.0002737999893724,1.9000882001128048,1.8998144001234325,0.1999826999381184,0.6998183999676257,0.4998357000295073,,DT,0.00019570002950730636
26,0.49964,0.1,2,0.37473,0.35808,0.59957,26,2.06519,-0.54,-0.26647,0.23317,5,1D1U,2.0,False,0.98,2,False,right,0.0,0.0003597000613808,2.073987700045109,2.073627999983728,0.3655872999224812,0.8655927998479456,0.5000054999254644,,DT,0.0003654999254644187
27,0.49964,1.2,2,0.34975,0.25815,0.77444,27,2.33166,-0.1,-0.04996,0.44968,5,1D1U,1.0,True,0.325,0,False,left,0.0,0.0008487000595778,2.3402824997901917,2.339433799730614,0.3400024999864399,0.8409912998322397,0.5009887998457998,,DT,0.0013487998457998307
28,0.49964,0.1,2,0.29978,0.24149,0.80775,28,2.05684,-0.58,-0.29146,0.20818,5,1D2U,1.0,True,0.561,0,False,left,0.0,0.0007333001121878,2.0564487997908145,2.0557154996786267,0.2903223999310285,0.7897562999278307,0.4994338999968022,,DT,-0.00020610000319776223
29,0.49964,1.2,2,0.42469,0.2748,0.81608,29,2.38161,-0.26,-0.13324,0.3664,5,2D1U,1.0,True,0.267,0,False,left,0.0,0.0006282001268118,2.3907675999216735,2.3901393997948617,0.4156710000243038,0.9158071000128984,0.5001360999885947,,DT,0.0004960999885946782
30,0.49964,1.2,1,0.34142,0.22484,0.68284,30,2.69806,0.9,0.44968,0.94932,5,lapse_rate,2.0,False,0.376,0,False,right,0.0,0.0008072999771684,2.7001382999587804,2.699330999981612,1.9655508999712763,2.466332499869168,0.5007815998978913,,DT,0.00114159989789131
31,0.49964,0.1,1,0.22484,0.44135,0.89102,31,2.26503,-0.58,-0.29146,0.20818,5,1D1U,2.0,True,0.382,3,True,right,0.0,0.0007907000835984,2.2736450999509543,2.272854399867356,1.3151577999815345,1.815483400132507,0.5003256001509726,,DT,0.0006856001509726317
32,0.49964,1.2,1,0.31644,0.44135,0.74946,32,2.29835,-0.42,-0.20818,0.29146,5,1D2U,2.0,True,1.613,0,False,right,0.0,0.0007710999343544,2.298483399907127,2.2977122999727726,1.348625099984929,1.848547900095582,0.499922800110653,,DT,0.00028280011065301425
33,0.49964,0.1,1,0.41637,0.21651,0.59124,33,2.25671,0.06,0.03331,0.53295,5,1D1U,2.0,False,2.326,0,False,right,0.0,0.0006568999961018,2.258834599982947,2.2581776999868453,1.533177699893713,2.0338339000009,0.500656200107187,,DT,0.0010162001071870597
34,0.49964,1.2,1,0.29978,0.41637,0.42469,34,2.09016,-0.1,-0.04996,0.44968,5,2D1U,1.0,False,0.63,0,False,left,0.0,0.0007671997882425,2.0992542000021785,2.098487000213936,1.1649422999471426,1.6647588999476284,0.4998166000004858,,DT,0.00017660000048580482
35,0.49964,1.2,1,0.29978,0.44135,0.51629,35,2.70638,0.9,0.44968,0.94932,5,lapse_rate,2.0,False,0.561,0,False,right,0.0,0.0002838000655174,2.7154147000983357,2.7151309000328183,1.756024400005117,2.2562051999848336,0.5001807999797165,,DT,0.0005407999797165663
36,0.49964,0.1,1,0.39971,0.42469,0.58291,36,2.85627,0.9,0.44968,0.94932,5,lapse_rate,1.0,True,0.236,0,False,left,0.0,0.0002673999406397,2.854655200149864,2.854387800209224,1.9224307001568377,2.4220173000358045,0.4995865998789668,,DT,-5.3400121033164716e-05
37,0.49964,0.1,1,0.41637,0.25815,0.84106,37,2.62312,0.22,0.10826,0.6079,5,1D1U,1.0,True,0.453,0,False,left,0.0,0.0009357000235468,2.6324575999751687,2.631521899951622,1.8659743000753224,2.366098700091243,0.5001244000159204,,DT,0.0004844000159204276
38,0.49964,1.2,1,0.30811,0.29146,0.89102,38,2.2234,-0.54,-0.26647,0.23317,5,1D1U,2.0,True,0.459,4,True,right,0.0,0.0007430999539792,2.2238040000665933,2.223060900112614,1.423772200010717,1.9241591999307277,0.5003869999200106,,DT,0.0007469999200105937
39,0.49964,0.1,1,0.38306,0.26647,0.5496,39,2.14845,-0.1,-0.04996,0.44968,5,2D1U,1.0,False,0.582,0,False,left,0.0,0.0002844999544322,2.1497147001791745,2.1494302002247423,1.3738712000194937,1.8737660001497716,0.4998948001302778,,DT,0.00025480013027784354
40,0.49964,1.2,2,0.37473,0.3664,0.44968,40,1.98191,-0.42,-0.20818,0.29146,5,1D2U,1.0,True,0.262,0,False,left,0.0,0.0008142997976392,1.9829023000784216,1.9820880002807824,0.3649291999172419,0.8656313000246882,0.5007021001074463,,DT,0.0010621001074463399
41,0.49964,0.1,2,0.44135,0.29978,0.81608,41,2.46489,-0.18,-0.0916,0.40804,5,2D1U,2.0,False,0.265,1,True,right,0.0,0.0007440000772476,2.4735755999572575,2.47283159988001,0.431794999865815,0.9312005999963732,0.499405600130558,,DT,-0.00023439986944195912
42,0.49964,1.2,2,0.2748,0.24982,0.82441,42,2.21507,-0.26,-0.13324,0.3664,5,1D2U,2.0,False,0.328,0,False,right,0.0,0.0009550000540912,2.223086800193414,2.222131800139323,0.2656792001798749,0.7651876001618803,0.4995083999820053,,DT,-0.0001316000179946708
43,0.49964,0.1,2,0.35808,0.3664,0.6079,43,2.08184,-0.5,-0.24982,0.24982,5,1D1U,1.0,True,0.215,4,False,left,0.0,0.0007337999995797,2.0907833999954164,2.0900495999958366,0.3490600001532584,0.8487438000738621,0.4996837999206036,,DT,4.379992060360438e-05
44,0.49964,1.2,2,0.26647,0.26647,0.89935,44,2.49819,0.14,0.06662,0.56626,5,1D1U,2.0,True,0.434,1,True,right,0.0,0.0008040000684559,2.498333200113848,2.497529200045392,0.2564944000914693,0.7565854000858963,0.500090999994427,,DT,0.0004509999944269927
45,0.49964,0.1,2,0.21651,0.31644,0.57459,45,1.65714,-0.9,-0.44968,0.04996,5,lapse_rate,1.0,True,0.295,0,False,left,0.0,0.0002820999361574,1.6656494999770075,1.66536740004085,0.2065838000271469,0.7068566000089049,0.500272799981758,,DT,0.0006327999817580254
46,0.49964,1.2,2,0.33309,0.29146,0.46633,46,2.53984,0.9,0.44968,0.94932,5,lapse_rate,2.0,True,0.241,0,False,right,0.0,0.0007950998842716,2.548099200008437,2.5473041001241654,0.323094799881801,0.823107099859044,0.500012299977243,,DT,0.0003722999772429736
47,0.49964,0.1,2,0.38306,0.23317,0.89102,47,2.53984,0.06,0.03331,0.53295,5,1D1U,2.0,True,0.484,1,False,right,0.0,0.0007911999709904,2.548333500046283,2.5475423000752926,0.3747700999956578,0.8733526000287384,0.4985825000330806,,DT,-0.0010574999669193952
48,0.49964,1.2,2,0.42469,0.37473,0.5496,48,2.18175,-0.34,-0.16655,0.33309,5,1D2U,1.0,True,0.259,1,True,left,0.0,0.0003553999122232,2.1911601999308914,2.190804800018668,0.415581899927929,0.915222000097856,0.4996401001699269,,DT,1.0016992690875526e-07
49,0.49964,0.1,2,0.41637,0.28313,0.69117,49,2.15678,-0.46,-0.23317,0.26647,5,1D1U,1.0,True,0.313,4,False,left,0.0,0.0007772999815642,2.157460300019011,2.1566830000374466,0.4071138999424875,0.9069658000953496,0.499851900152862,,DT,0.00021190015286204344
50,0.49964,1.2,1,0.23317,0.44135,0.66619,50,2.24839,-0.18,-0.0916,0.40804,5,2D1U,2.0,True,0.428,1,True,right,0.0,0.0002693999558687,2.2487987000495195,2.248529300093651,1.29830150003545,1.7986254999414086,0.5003239999059588,,DT,0.0006839999059587987
51,0.49964,1.2,1,0.35808,0.37473,0.6079,51,2.78967,0.9,0.44968,0.94932,5,lapse_rate,1.0,True,0.874,0,False,left,0.0,0.000793999992311,2.789703099988401,2.78890909999609,1.907088699983433,2.4066393000539392,0.4995506000705063,,DT,-8.939992949369424e-05
52,0.49964,0.1,1,0.22484,0.39971,0.78277,52,2.33998,-0.14,-0.06662,0.43302,5,2D1U,2.0,True,0.574,2,True,right,0.0,0.0003116000443696,2.3485183001030236,2.348206700058654,1.4319703001528978,1.9319760000798851,0.5000056999269873,,DT,0.00036569992698731735
53,0.49964,1.2,1,0.34975,0.26647,0.47466,53,1.88198,-0.42,-0.20818,0.29146,5,1D1U,2.0,True,0.239,4,False,right,0.0,0.0007974000182002,1.891685999929905,1.8908885999117049,1.107850099913776,1.6075334998313338,0.4996833999175578,,DT,4.339991755780703e-05
54,0.49964,0.1,1,0.24982,0.23317,0.6995,54,2.01522,-0.34,-0.16655,0.33309,5,1D2U,1.0,False,0.602,1,True,left,0.0,0.0007910998538136,2.0153438998386264,2.0145527999848127,1.2742443999741226,1.7739618998020887,0.4997174998279661,,DT,7.749982796612098e-05
55,0.49964,1.2,1,0.42469,0.30811,0.6995,55,2.42325,-0.02,-0.00833,0.49131,5,1D1U,2.0,True,0.753,1,False,right,0.0,0.0007662000134587,2.4230237000156194,2.4222575000021607,1.606520500034094,2.1081797000952065,0.5016592000611126,,DT,0.0020192000611126693
56,0.49964,0.1,1,0.40804,0.24982,0.59124,56,2.19842,-0.1,-0.04996,0.44968,5,2D1U,1.0,False,0.85,2,False,left,0.0,0.000763300107792,2.1986900998745114,2.1979267997667193,1.4404480999801308,1.939829599810764,0.4993814998306334,,DT,-0.00025850016936657116
57,0.49964,0.1,1,0.35808,0.24982,0.47466,57,1.63216,-0.9,-0.44968,0.04996,5,lapse_rate,2.0,True,1.2,0,False,right,0.0,0.0007658000104129,1.640869699884206,1.6401038998737931,0.8740318999625742,1.3745927000418303,0.5005608000792563,,DT,0.0009208000792563231
58,0.49964,1.2,1,0.38306,0.35808,0.53295,58,2.06519,-0.42,-0.20818,0.29146,5,1D2U,1.0,False,0.349,1,False,left,0.0,0.0007914998568594,2.073318799957633,2.0725273001007736,1.1981377999763936,1.6989434999413788,0.5008056999649853,,DT,0.0011656999649852784
59,0.49964,0.1,1,0.33309,0.32477,0.89935,59,2.36496,-0.38,-0.19153,0.30811,5,1D1U,1.0,False,0.112,4,False,left,0.0,0.0006755001377314,2.374424000037834,2.3737484999001026,1.5331786000169814,2.032773500075564,0.4995949000585824,,DT,-4.509994141754792e-05
60,0.49964,1.2,2,0.42469,0.21651,0.84939,60,2.4982,0.02,0.00833,0.50797,5,1D1U,1.0,False,0.68,2,True,left,0.0,0.0008955998346209,2.5060775000602007,2.5051819002255797,0.4140455001033842,0.913820599904284,0.4997750998008996,,DT,0.0001350998008996518
61,0.49964,0.1,2,0.25815,0.33309,0.84106,61,2.88126,0.9,0.44968,0.94932,5,lapse_rate,2.0,True,0.509,0,False,right,0.0,0.000274300109595,2.8898298998828977,2.8895555997733027,0.2487880999688059,0.7484752999152988,0.4996871999464929,,DT,4.719994649293735e-05
62,0.49964,0.1,2,0.21651,0.23317,0.40804,62,1.89031,0.06,0.03331,0.53295,5,1D1U,2.0,True,0.242,2,False,right,0.0,0.0007557999342679,1.8980330000631511,1.8972772001288831,0.2072691998910159,0.708155799889937,0.5008865999989212,,DT,0.001246599998921183
63,0.49964,1.2,2,0.32477,0.39138,0.80775,63,2.315,-0.42,-0.20818,0.29146,5,1D1U,2.0,False,1.009,5,True,right,0.0,0.0003080999013036,2.3162442999891937,2.31593620008789,0.315872399834916,0.8156932999845594,0.4998209001496434,,DT,0.00018090014964344814
64,0.49964,0.1,2,0.30811,0.34142,0.49131,64,1.8903,-0.5,-0.24982,0.24982,5,1D2U,2.0,False,1.265,1,False,right,0.0,0.0003262998070567,1.89755029999651,1.8972240001894536,0.2975170998834073,0.7975633998867124,0.5000463000033051,,DT,0.0004063000033051045
65,0.49964,1.2,2,0.24982,0.2748,0.458,65,1.93194,-0.1,-0.04996,0.44968,5,2D1U,1.0,True,0.509,2,False,left,0.0,0.0007890001870691,1.939494000049308,1.9387049998622388,0.239080199971795,0.7390926999505609,0.5000124999787658,,DT,0.00037249997876587226
66,0.49964,0.1,2,0.33309,0.35808,0.87437,66,2.27336,-0.58,-0.29146,0.20818,5,1D2U,1.0,True,0.246,1,False,left,0.0,0.0007759002037346,2.2818043001461774,2.2810283999424428,0.3239896001759916,0.8228915999643505,0.4989019997883588,,DT,-0.0007380002116411655
67,0.49964,1.2,2,0.34142,0.3664,0.75779,67,2.43158,-0.06,-0.03331,0.46633,5,2D1U,1.0,True,0.207,2,False,left,0.0,0.0008225000929087,2.440317699918523,2.4394951998256147,0.330529100028798,0.8316839998587966,0.5011548998299986,,DT,0.0015148998299986394
68,0.49964,0.1,2,0.34142,0.29978,0.77444,68,2.42325,0.02,0.00833,0.50797,5,1D1U,2.0,True,0.223,3,True,right,0.0,0.0006379999686032,2.432395000010729,2.4317570000421256,0.3312534999568015,0.8317915999796242,0.5005381000228226,,DT,0.0008981000228226454
69,0.49964,0.1,2,0.30811,0.2748,0.73281,69,2.76468,0.9,0.44968,0.94932,5,lapse_rate,2.0,True,0.19,0,False,right,0.0,0.0008475999347865,2.7733311001211405,2.772483500186354,0.2985674000810832,0.7975328001193702,0.498965400038287,,DT,-0.000674599961712985
70,0.49964,1.2,1,0.37473,0.44135,0.69117,70,2.27336,-0.46,-0.23317,0.26647,5,1D1U,1.0,False,0.796,5,False,left,0.0,0.0007590998429805,2.2819807999767363,2.281221700133756,1.3232026000041517,1.823467799928039,0.5002651999238878,,DT,0.0006251999238878758
71,0.49964,0.1,1,0.41637,0.33309,0.83273,71,2.57314,-0.02,-0.00833,0.49131,5,1D1U,2.0,True,0.379,3,False,right,0.0,0.0007790999952703,2.5831120999064296,2.5823329999111593,1.7329128999263048,2.232537100091577,0.4996242001652717,,DT,-1.5799834728269513e-05
72,0.49964,1.2,1,0.29146,0.43302,0.79942,72,2.0735,-0.9,-0.44968,0.04996,5,lapse_rate,2.0,True,1.081,0,False,right,0.0,0.0008217000868171,2.0816892001312226,2.0808675000444055,1.131422300124541,1.632024000165984,0.5006017000414431,,DT,0.0009617000414431365
73,0.49964,1.2,1,0.43302,0.37473,0.40804,73,1.92361,-0.58,-0.29146,0.20818,5,1D2U,2.0,True,0.406,1,False,right,0.0,0.0007070999126881,1.93267560005188,1.9319685001391915,1.04006060003303,1.540292999939993,0.5002323999069631,,DT,0.0005923999069631369
74,0.49964,0.1,1,0.33309,0.33309,0.77444,74,2.43157,-0.02,-0.00833,0.49131,5,2D1U,1.0,False,0.111,2,False,left,0.0,0.0002637999132275,2.4325170998927206,2.432253299979493,1.5910344999283552,2.0913044000044465,0.5002699000760913,,DT,0.0006299000760913165
75,0.49964,1.2,1,0.35808,0.21651,0.55793,75,1.88198,-0.5,-0.24982,0.24982,5,1D1U,2.0,True,0.425,5,False,right,0.0,0.0005351998843252,1.8908695001155136,1.8903343002311883,1.157502799993381,1.6572092999704182,0.4997064999770373,,DT,6.649997703733757e-05
76,0.49964,0.1,1,0.44135,0.44135,0.40804,76,2.02355,-0.54,-0.26647,0.23317,5,1D2U,2.0,True,0.19,2,True,right,0.0,0.0008366999682039,2.0327242000494152,2.0318875000812113,1.0736618000082672,1.574472300009802,0.5008105000015348,,DT,0.0011705000015348466
77,0.49964,1.2,1,0.38306,0.33309,0.6995,77,2.18176,-0.46,-0.23317,0.26647,5,1D1U,2.0,True,0.226,6,True,right,0.0,0.0008277001325041,2.1907724998891354,2.1899447997566313,1.3412077999673784,1.84079059981741,0.4995827998500317,,DT,-5.720014996829503e-05
78,0.49964,0.1,1,0.35808,0.30811,0.6995,78,2.3733,0.02,0.00833,0.50797,5,1D1U,2.0,False,0.166,4,True,right,0.0,0.0002790000289678,2.380460100015626,2.3801810999866575,1.5564244999550283,2.0550744000356644,0.4986499000806361,,DT,-0.0009900999193638849
79,0.49964,1.2,1,0.29978,0.26647,0.41637,79,1.97357,-0.02,-0.00833,0.49131,5,2D1U,2.0,True,0.387,2,False,right,0.0,0.00126240006648,1.981950799934566,1.980688399868086,1.1982028000056744,1.6983699998818338,0.5001671998761594,,DT,0.0005271998761594565
80,0.49964,0.1,2,0.20818,0.40804,0.47466,80,2.53984,0.9,0.44968,0.94932,5,lapse_rate,2.0,True,0.449,0,False,right,0.0,0.0007628998719155,2.5486194998957217,2.547856600023806,0.1986479999031871,0.6986308000050485,0.4999828001018613,,DT,0.00034280010186132914
81,0.49964,0.1,2,0.39138,0.29978,0.66619,81,2.09016,-0.54,-0.26647,0.23317,5,1D2U,1.0,True,0.384,2,True,left,0.0,0.0008054000791162,2.0985416998155415,2.0977362997364253,0.3806809999514371,0.8816718999296427,0.5009908999782056,,DT,0.0013508999782055886
82,0.49964,1.2,2,0.32477,0.32477,0.78277,82,2.4649,0.06,0.03331,0.53295,5,1D1U,2.0,True,0.241,4,False,right,0.0,0.0008592000231146,2.47477460000664,2.4739153999835253,0.3165380998980254,0.8156292999628931,0.4990912000648677,,DT,-0.0005487999351322936
83,0.49964,0.1,2,0.43302,0.26647,0.52462,83,2.01521,-0.42,-0.20818,0.29146,5,1D1U,1.0,True,0.865,6,False,left,0.0,0.0007607999723404,2.0240721001755446,2.023311300203204,0.4252534999977797,0.9246313001494856,0.4993778001517057,,DT,-0.00026219984829428666
84,0.49964,0.1,2,0.40804,0.44968,0.62455,84,2.03187,-0.9,-0.44968,0.04996,5,lapse_rate,1.0,True,0.261,0,False,left,0.0,0.00083679985255,2.03232689993456,2.03149010008201,0.4067314998246729,0.9066435999702662,0.4999121001455933,,DT,0.0002721001455933125
85,0.49964,1.2,2,0.30811,0.20818,0.83273,85,2.35663,0.02,0.00833,0.50797,5,2D1U,1.0,False,0.297,2,False,left,0.0,0.0007937999907881,2.3647842998616397,2.3639904998708516,0.2981557999737561,0.7981851999647915,0.5000293999910355,,DT,0.0003893999910354884
86,0.49964,0.1,2,0.29978,0.37473,0.59124,86,2.29834,0.06,0.03331,0.53295,5,2D1U,2.0,True,0.163,2,False,right,0.0,0.0008200998418033,2.298848999897018,2.2980289000552148,0.2895504999905824,0.7891625000629574,0.4996120000723749,,DT,-2.7999927625088628e-05
87,0.49964,1.2,2,0.25815,0.35808,0.59957,87,1.7654,-0.9,-0.44968,0.04996,5,lapse_rate,1.0,True,0.311,0,False,left,0.0,0.0008324000518769,1.7733689998276532,1.7725365997757765,0.2490266999229788,0.7488745998125523,0.4998478998895734,,DT,0.0002078998895734263
88,0.49964,1.2,2,0.26647,0.21651,0.6412,88,1.87364,-0.5,-0.24982,0.24982,5,1D2U,1.0,True,0.358,2,False,left,0.0,0.0007021001074463,1.88108959980309,1.880387499695644,0.2561935998965055,0.7563157000113279,0.5001221001148224,,DT,0.00048210011482241466
89,0.49964,0.1,2,0.21651,0.22484,0.59957,89,2.04853,0.02,0.00833,0.50797,5,1D1U,2.0,True,0.39,5,True,right,0.0,0.0002570999786257,2.0486782998777926,2.048421199899167,0.206796099897474,0.706555999815464,0.4997598999179899,,DT,0.00011989991798994071
90,0.49964,1.2,1,0.40804,0.28313,0.66619,90,2.16511,-0.38,-0.19153,0.30811,5,1D1U,2.0,True,0.523,6,False,right,0.0,0.0004057998303323,2.172707400051877,2.1723016002215445,1.3723365999758244,1.8722271001897752,0.4998905002139509,,DT,0.0002505002139508994
91,0.49964,0.1,1,0.44968,0.28313,0.65786,91,2.38162,-0.02,-0.00833,0.49131,5,1D1U,1.0,False,0.366,5,False,left,0.0,0.0002552999649196,2.38977719983086,2.38952189986594,1.590049099875614,2.0900295998435467,0.4999804999679327,,DT,0.0003404999679327281
92,0.49964,1.2,1,0.41637,0.33309,0.49131,92,2.27336,0.06,0.03331,0.53295,5,2D1U,2.0,False,0.111,2,False,right,0.0,0.0007659001275897,2.2821769998408854,2.2814110997132957,1.4316598000004888,1.9309050999581816,0.4992452999576926,,DT,-0.0003947000423073499
93,0.49964,0.1,1,0.32477,0.32477,0.87437,93,2.35664,-0.34,-0.16655,0.33309,5,1D1U,2.0,True,0.743,6,False,right,0.0,0.0008147999178618,2.35750380018726,2.356689000269398,1.5244201000314206,2.0245456001721323,0.5001255001407117,,DT,0.0004855001407116921
94,0.49964,0.1,1,0.25815,0.42469,0.59124,94,2.72304,0.9,0.44968,0.94932,5,lapse_rate,1.0,True,0.109,0,False,left,0.0,0.0002682998310774,2.7236048001796007,2.7233365003485233,1.7903929001186043,2.290074700023979,0.4996817999053746,,DT,4.179990537461764e-05
95,0.49964,1.2,1,0.32477,0.25815,0.86604,95,2.19842,-0.5,-0.24982,0.24982,5,1D2U,2.0,True,0.449,2,False,right,0.0,0.0008586999028921,2.198710900032893,2.1978522001300007,1.432920000050217,1.9331229000817984,0.5002029000315815,,DT,0.000562900031581548
96,0.49964,0.1,1,0.3664,0.44135,0.458,96,2.23172,-0.06,-0.03331,0.46633,5,1D1U,2.0,True,0.175,5,False,right,0.0,0.0003343001008033,2.240316800074652,2.2399824999738485,1.2824291998986157,1.7811930999159813,0.4987639000173658,,DT,-0.0008760999826341598
97,0.49964,1.2,1,0.25815,0.41637,0.8827,97,2.40661,-0.3,-0.14989,0.34975,5,1D1U,2.0,True,0.403,6,False,right,0.0,0.0007611000910401,2.407229600008577,2.406468499917537,1.483032900141552,1.9829146000556648,0.4998816999141127,,DT,0.00024169991411271408
98,0.49964,0.1,1,0.43302,0.19986,0.6412,98,2.32332,0.1,0.04996,0.5496,5,2D1U,1.0,True,0.472,2,False,left,0.0,0.0002648001536726,2.322549599921331,2.322284799767658,1.6142726000398395,2.1161921999882907,0.5019195999484509,,DT,0.00227959994845095
99,0.49964,1.2,1,0.29146,0.2748,0.41637,99,2.43159,0.9,0.44968,0.94932,5,lapse_rate,1.0,True,0.273,0,False,left,0.0,0.0008648000657558,2.441706100013107,2.440841299947351,1.649108599871397,2.1488546000327915,0.4997460001613945,,DT,0.00010600016139450386
100,0.49964,1.2,2,0.39138,0.26647,0.5496,100,1.97356,-0.46,-0.23317,0.26647,5,1D2U,2.0,False,0.712,2,False,right,0.0,0.0007754999678581,1.9742904000449928,1.9735149000771344,0.383487100014463,0.8821693998761475,0.4986822998616844,,DT,-0.000957700138315587
101,0.49964,0.1,2,0.33309,0.38306,0.74946,101,2.51485,0.1,0.04996,0.5496,5,2D1U,2.0,True,0.432,2,False,right,0.0,0.0007992000319063,2.521795999957249,2.520996799925342,0.3215564999263733,0.8222178998403251,0.5006613999139518,,DT,0.0010213999139517815
102,0.49964,1.2,2,0.31644,0.33309,0.47466,102,1.99023,-0.26,-0.13324,0.3664,5,1D1U,1.0,True,0.25,6,False,left,0.0,0.0007929001003503,1.9983206999022511,1.997527799801901,0.3068870999850333,0.8071175999939442,0.5002305000089109,,DT,0.0005905000089109214
103,0.49964,0.1,2,0.23317,0.28313,0.67451,103,1.74041,-0.9,-0.44968,0.04996,5,lapse_rate,1.0,True,0.484,0,False,left,0.0,0.0005965000018477,1.7491099999751896,1.7485134999733418,0.2239103000611066,0.7249022000469267,0.50099189998582,,DT,0.001351899985820082
104,0.49964,0.1,2,0.34975,0.39971,0.5496,104,2.04852,-0.5,-0.24982,0.24982,5,1D2U,1.0,True,0.75,3,True,left,0.0,0.0007903999648988,2.0478167000692338,2.047026300104335,0.3404054001439363,0.8392199999652803,0.498814599821344,,DT,-0.000825400178655955
105,0.49964,1.2,2,0.2748,0.19986,0.77444,105,2.24005,-0.02,-0.00833,0.49131,5,1D1U,1.0,True,0.33,6,True,left,0.0,0.0002943000290542,2.2412227999884635,2.2409284999594092,0.264709300128743,0.764740000013262,0.500030699884519,,DT,0.00039069988451900795
106,0.49964,0.1,2,0.40804,0.25815,0.40804,106,1.96525,-0.22,-0.10826,0.39138,5,1D1U,1.0,True,0.31,6,False,left,0.0,0.0007801000028848,1.9646864000242203,1.9639063000213357,0.3990897999610752,0.8989110998809338,0.4998212999198586,,DT,0.00018129991985860183
107,0.49964,0.1,2,0.31644,0.40804,0.47466,107,1.74874,-0.9,-0.44968,0.04996,5,lapse_rate,1.0,True,0.424,0,False,left,0.0,0.0008433000184595,1.7497147000394762,1.7488714000210166,0.3077446999959647,0.8080172000918537,0.500272500095889,,DT,0.0006325000958889992
108,0.49964,1.2,2,0.33309,0.20818,0.54128,108,1.83201,-0.5,-0.24982,0.24982,5,1D2U,1.0,True,0.315,3,True,left,0.0,0.000828200019896,1.839675599941984,1.838847399922088,0.3240586000028997,0.8233562998939306,0.4992976998910308,,DT,-0.0003423001089691846
109,0.49964,0.1,2,0.30811,0.34975,0.79942,109,2.46489,0.02,0.00833,0.50797,5,1D1U,2.0,True,0.209,6,False,right,0.0,0.0006713999900966,2.4657771999482065,2.46510579995811,0.2993947998620569,0.7997464998625219,0.5003517000004649,,DT,0.0007117000004649432
110,0.49964,1.2,1,0.23317,0.20818,0.67451,110,2.14845,0.06,0.03331,0.53295,5,2D1U,2.0,False,0.212,3,True,right,0.0,0.0005034999921917,2.149627999868244,2.149124499876052,1.4325939998961983,1.932525899959728,0.4999319000635296,,DT,0.0002919000635296376
111,0.49964,0.1,1,0.20818,0.26647,0.81608,111,2.28168,-0.02,-0.00833,0.49131,5,1D1U,2.0,True,0.346,7,True,right,0.0,0.0007617999799549,2.282149099977687,2.281387299997732,1.5068039000034332,2.006835399894044,0.5000314998906106,,DT,0.00039149989061060264
112,0.49964,1.2,1,0.29146,0.39971,0.66619,112,2.12347,-0.46,-0.23317,0.26647,5,1D2U,1.0,False,0.21,4,True,left,0.0,0.0007193000055849,2.1230266001075506,2.1223073001019657,1.214537600055337,1.7154193001333624,0.5008817000780255,,DT,0.0012417000780254872
113,0.49964,0.1,1,0.24149,0.29978,0.56626,113,2.15677,0.1,0.04996,0.5496,5,2D1U,2.0,False,0.364,4,True,right,0.0,0.0005761999636888,2.1570194999221712,2.1564432999584824,1.347448999993503,1.8477070999797431,0.5002580999862403,,DT,0.0006180999862402947
114,0.49964,1.2,1,0.44135,0.42469,0.47466,114,2.24838,-0.18,-0.0916,0.40804,5,1D1U,1.0,False,0.397,6,False,left,0.0,0.0007501000072807,2.2486312999390066,2.247881199931726,1.3156604000832886,1.815376300131902,0.4997159000486135,,DT,7.590004861351973e-05
115,0.49964,1.2,1,0.29978,0.26647,0.5496,115,1.66545,-0.9,-0.44968,0.04996,5,lapse_rate,1.0,False,0.291,0,False,left,0.0,0.0003619000781327,1.66492860019207,1.6645667001139373,0.8900853001978248,1.3899630000814795,0.4998776998836547,,DT,0.0002376998836547406
116,0.49964,0.1,1,0.28313,0.34142,0.52462,116,2.21507,0.14,0.06662,0.56626,5,2D1U,1.0,True,0.309,4,False,left,0.0,0.0002987999469041,2.214893899857998,2.2145950999110937,1.3647382999770343,1.8651969998609277,0.5004586998838931,,DT,0.0008186998838931592
117,0.49964,1.2,1,0.28313,0.32477,0.64953,117,1.80703,-0.9,-0.44968,0.04996,5,lapse_rate,2.0,True,0.458,0,False,right,0.0,0.0002905000001192,1.8052258000243455,1.8049353000242263,0.9722501998767256,1.4719207999296486,0.4996706000529229,,DT,3.060005292293555e-05
118,0.49964,1.2,1,0.40804,0.26647,0.49964,118,2.18176,0.02,0.00833,0.50797,5,1D1U,2.0,False,0.258,8,True,right,0.0,0.0002810000441968,2.190199099946767,2.1899180999025702,1.4079496001359075,1.906999200116843,0.4990495999809354,,DT,-0.0005904000190645742
119,0.49964,0.1,1,0.44135,0.29978,0.40804,119,2.04019,-0.22,-0.10826,0.39138,5,1D1U,2.0,True,0.266,7,True,right,0.0,0.0008511999621987,2.056748399976641,2.055897200014442,1.2319088000804186,1.7325737001374364,0.5006649000570178,,DT,0.0010249000570178302
120,0.49964,1.2,2,0.19986,0.25815,0.51629,120,1.72376,-0.5,-0.24982,0.24982,5,1D2U,1.0,True,0.322,5,True,left,0.0,0.0002572000958025,1.7313525998033583,1.7310953997075558,0.1901314998976886,0.6904670000076294,0.5003355001099408,,DT,0.0006955001099407943
121,0.49964,0.1,2,0.29146,0.38306,0.59124,121,2.17344,-0.18,-0.0916,0.40804,5,1D1U,1.0,True,0.428,8,True,left,0.0,0.0007927000988274,2.1821820000186563,2.1813892999198288,0.2823375000152737,0.7818836998194456,0.4995461998041719,,DT,-9.380019582805321e-05
122,0.49964,1.2,2,0.31644,0.29978,0.61622,122,1.78204,-0.9,-0.44968,0.04996,5,lapse_rate,1.0,True,0.318,0,False,left,0.0,0.0006781001575291,1.791462799999863,1.7907846998423338,0.3068629999179393,0.8077726999763399,0.5009097000584006,,DT,0.001269700058400658
123,0.49964,1.2,2,0.28313,0.38306,0.84939,123,2.58148,0.14,0.06662,0.56626,5,2D1U,1.0,False,0.304,4,False,left,0.0,0.0004067998379468,2.5828423998318613,2.5824355999939144,0.2732337999623269,0.7744046000298113,0.5011708000674844,,DT,0.0015308000674844058
124,0.49964,0.1,2,0.19986,0.2748,0.49964,124,2.00689,0.06,0.03331,0.53295,5,1D1U,2.0,True,0.813,8,False,right,0.0,0.0003569999244064,2.008019700180739,2.0076627002563328,0.1914397999644279,0.691893600160256,0.5004538001958281,,DT,0.0008138001958281071
125,0.49964,1.2,2,0.44135,0.37473,0.67451,125,2.24005,-0.5,-0.24982,0.24982,5,1D2U,1.0,True,0.323,5,True,left,0.0,0.000578099861741,2.2471561999991536,2.2465781001374125,0.4301434000954032,0.9303195001557468,0.5001761000603437,,DT,0.0005361000603437693
126,0.49964,0.1,2,0.32477,0.22484,0.78277,126,2.09849,-0.46,-0.23317,0.26647,5,1D2U,2.0,False,0.405,6,True,right,0.0,0.0007622998673468,2.0984420999884605,2.0976798001211137,0.3150853998959064,0.8151676999405026,0.5000823000445962,,DT,0.0004423000445962222
127,0.49964,0.1,2,0.34975,0.22484,0.52462,127,1.64881,-0.9,-0.44968,0.04996,5,lapse_rate,1.0,True,0.497,0,False,left,0.0,0.0005858999211341,1.6483275999780744,1.6477417000569403,0.3404047000221908,0.8400209001265466,0.4996162001043558,,DT,-2.3799895644160962e-05
128,0.49964,1.2,2,0.43302,0.41637,0.44968,128,2.30668,0.02,0.00833,0.50797,5,1D1U,1.0,False,0.308,9,True,left,0.0,0.0002601998858153,2.3075634001288563,2.307303200243041,0.4227778001222759,0.922610600013286,0.4998327998910099,,DT,0.00019279989100995376
129,0.49964,0.1,2,0.23317,0.24149,0.76611,129,2.17343,-0.14,-0.06662,0.43302,5,1D1U,2.0,False,0.325,8,False,right,0.0,0.0008603997994214,2.1825193997938186,2.181658999994397,0.2313230999279767,0.7323317998088896,0.5010086998809129,,DT,0.001368699880912927
130,0.49964,1.2,1,0.43302,0.29146,0.84106,130,2.65642,0.18,0.0916,0.59124,5,2D1U,2.0,False,0.575,4,False,right,0.0,0.0005398001521825,2.6575359001290053,2.6569960999768227,1.8570078001357615,2.3580891001038253,0.5010812999680638,,DT,0.0014412999680638583
131,0.49964,0.1,1,0.34975,0.34975,0.80775,131,2.61479,0.22,0.10826,0.6079,5,2D1U,1.0,True,0.281,4,False,left,0.0,0.0007019999902695,2.6151121999137104,2.614410199923441,1.757695799926296,2.257503899978474,0.4998081000521779,,DT,0.000168100052177933
132,0.49964,1.2,1,0.28313,0.35808,0.67451,132,2.06518,-0.5,-0.24982,0.24982,5,1D2U,2.0,True,0.381,7,True,right,0.0,0.0006887998897582,2.073601699899882,2.072912900010124,1.1994315998163074,1.6981114998925475,0.4986799000762403,,DT,-0.0009600999237596719
133,0.49964,0.1,1,0.38306,0.23317,0.72448,133,2.24839,-0.18,-0.0916,0.40804,5,1D1U,2.0,True,0.276,9,True,right,0.0,0.0003857999108731,2.2496682999189943,2.249282500008121,1.5073464999441055,2.007378599839285,0.5000320998951793,,DT,0.00039209989517929866
134,0.49964,1.2,1,0.29978,0.33309,0.63288,134,2.29834,0.06,0.03331,0.53295,5,1D1U,1.0,True,0.141,10,True,left,0.0,0.00076560000889,2.299095899797976,2.298330299789086,1.4578335999976844,1.9574533000122756,0.4996197000145912,,DT,-2.0299985408755994e-05
135,0.49964,0.1,1,0.3664,0.34975,0.77444,135,2.93955,0.9,0.44968,0.94932,5,lapse_rate,1.0,True,0.107,0,False,left,0.0,0.0008801000658422,2.94654450006783,2.945664400001988,2.0886033000424504,2.58841840014793,0.4998151001054793,,DT,0.00017510010547933108
136,0.49964,0.1,1,0.3664,0.42469,0.64953,136,2.44823,0.02,0.00833,0.50797,5,1D1U,2.0,False,0.108,11,True,right,0.0,0.0008296000305563,2.4411436999216676,2.4403140998911113,1.5163229999598116,2.0167680999729782,0.5004451000131667,,DT,0.000805100013166693
137,0.49964,1.2,1,0.24982,0.34975,0.71615,137,2.06518,-0.5,-0.24982,0.24982,5,1D2U,2.0,True,0.449,7,True,right,0.0,0.0005195001140236,2.066171099897474,2.0656515997834504,1.208684799959883,1.7087367998901757,0.5000519999302924,,DT,0.0004119999302923949
138,0.49964,1.2,1,0.39971,0.42469,0.52462,138,2.79798,0.9,0.44968,0.94932,5,lapse_rate,1.0,True,0.447,0,False,left,0.0,0.0007757998537272,2.806645500008017,2.8058697001542896,1.865337299881503,2.365082399919629,0.4997451000381261,,DT,0.000105100038126138
139,0.49964,0.1,1,0.3664,0.24982,0.58291,139,2.13179,-0.14,-0.06662,0.43302,5,1D1U,2.0,True,0.556,10,True,right,0.0,0.0007709001656621,2.1400285998824984,2.139257699716836,1.373586299829185,1.8729962999932468,0.4994100001640618,,DT,-0.0002299998359381883
140,0.49964,1.2,2,0.35808,0.34975,0.47466,140,2.29003,0.22,0.10826,0.6079,5,2D1U,1.0,False,2.008,4,False,left,0.0,0.000787700060755,2.305532499914989,2.304744799854234,0.3479392000008374,0.8486057999543846,0.5006665999535471,,DT,0.001026599953547147
141,0.49964,0.1,2,0.33309,0.39971,0.41637,141,2.18176,0.06,0.03331,0.53295,5,1D1U,1.0,False,0.779,12,True,left,0.0,0.0007730000652372,2.190657400060445,2.189884399995208,0.324522600043565,0.8240391002036631,0.4995165001600981,,DT,-0.00012349983990189717
142,0.0,0.0,0,0.0,0.0,0.0,0,0.0,0.0,0.0,0.0,0,0,0.0,0,0.0,0,0,0,0.0,0.0,0.0,0.0,0.0,0.0,0.0,0.0,DT,0.0
143,0.49964,1.2,2,0.19986,0.29146,0.64953,143,1.90696,-0.46,-0.23317,0.26647,5,1D2U,1.0,True,0.403,8,True,left,0.0,0.0008523000869899,1.9077154998667536,1.906863199779764,0.190506000071764,0.690506000071764,0.5,,DT,0.00036000000000002697
144,0.49964,0.1,2,0.37473,0.25815,0.63288,144,2.21508,-0.1,-0.04996,0.44968,5,1D1U,2.0,False,0.255,10,False,right,0.0,0.0008324000518769,2.2221896999981254,2.2213572999462485,0.3729401999153197,0.8727984998840839,0.4998582999687642,,DT,0.00021829996876421287
145,0.49964,1.2,2,0.3664,0.29978,0.85771,145,2.65641,0.26,0.13324,0.63288,5,2D1U,2.0,True,0.262,4,False,right,0.0,0.0002566999755799,2.6551764998584986,2.6549197998829186,0.3555536000058055,0.8556651000399143,0.5001115000341088,,DT,0.00047150003410878494
146,0.49964,0.1,2,0.38306,0.34975,0.75779,146,2.42326,-0.14,-0.06662,0.43302,5,1D1U,1.0,True,0.217,11,True,left,0.0,0.0002616001293063,2.432934499811381,2.432672899682075,0.3756566999945789,0.8743832998443395,0.4987265998497605,,DT,-0.0009134001502394962
147,0.49964,1.2,2,0.26647,0.35808,0.61622,147,2.37329,0.26,0.13324,0.63288,5,2D1U,2.0,True,0.187,4,False,right,0.0,0.0008137999102473,2.3819848999846727,2.3811711000744253,0.256640899926424,0.7568135999608785,0.5001727000344545,,DT,0.0005327000344544919
148,0.49964,0.1,2,0.43302,0.43302,0.56626,148,2.19841,-0.46,-0.23317,0.26647,5,1D2U,1.0,True,0.109,8,True,left,0.0,0.0007994999177753,2.20693919993937,2.2061397000215948,0.4239411999005824,0.9228051998652518,0.4988639999646693,,DT,-0.0007760000353306817
149,0.49964,1.2,2,0.21651,0.39138,0.40804,149,1.80703,-0.42,-0.20818,0.29146,5,1D2U,1.0,True,0.338,8,False,left,0.0,0.0007887999527156,1.8153776000253856,1.81458880007267,0.2071823000442236,0.7062694001942873,0.4990871001500636,,DT,-0.0005528998499363946
150,0.49964,0.1,1,0.24149,0.24982,0.54128,150,2.08183,0.1,0.04996,0.5496,5,1D1U,1.0,True,0.542,12,False,left,0.0,0.0008582998998463,2.0921972000505775,2.091338900150731,1.3245465999934822,1.8248204998672009,0.5002738998737186,,DT,0.0006338998737186463
151,0.49964,1.2,1,0.28313,0.31644,0.49131,151,1.88198,-0.42,-0.20818,0.29146,5,1D2U,2.0,True,0.242,8,False,right,0.0,0.0003884001635015,1.8913028999231756,1.890914499759674,1.0582609998527914,1.5584579999558628,0.5001970001030713,,DT,0.0005570001030713589
152,0.49964,0.1,1,0.28313,0.24982,0.71615,152,2.19842,-0.1,-0.04996,0.44968,5,1D1U,2.0,True,0.111,12,True,right,0.0,0.0008109998889267,2.1985353999771178,2.197724400088191,1.4411353999748826,1.9398402001243085,0.4987048001494258,,DT,-0.0009351998505741643
153,0.49964,1.2,1,0.39971,0.43302,0.89935,153,2.76467,0.06,0.03331,0.53295,5,1D1U,2.0,False,0.11,13,True,right,0.0,0.0007136000785976,2.772643599892035,2.7719299998134375,1.8227039000485092,2.322631999850273,0.4999280998017639,,DT,0.00028809980176391914
154,0.49964,0.1,1,0.29978,0.31644,0.62455,154,2.34831,0.22,0.10826,0.6079,5,2D1U,1.0,True,0.243,5,True,left,0.0,0.0007822001352906,2.350259199971333,2.3494769998360425,1.5253218999132514,2.0264911998528987,0.5011692999396473,,DT,0.001529299939647344
155,0.49964,1.2,1,0.21651,0.22484,0.73281,155,1.98191,-0.38,-0.19153,0.30811,5,1D2U,2.0,True,0.456,8,False,right,0.0,0.0008065002039074,1.9898353999014944,1.989028899697587,1.248001700034365,1.7488436000421643,0.5008419000077993,,DT,0.0012019000077992947
156,0.49964,0.1,1,0.23317,0.30811,0.51629,156,2.02354,-0.06,-0.03331,0.46633,5,1D1U,2.0,True,0.177,12,False,right,0.0,0.0002771001309156,2.0231476998887956,2.02287059975788,1.20608270005323,1.705707099987194,0.499624399933964,,DT,-1.560006603595898e-05
157,0.49964,1.2,1,0.39138,0.43302,0.46633,157,2.09848,-0.38,-0.19153,0.30811,5,1D2U,2.0,True,0.826,8,False,right,0.0,0.000898600090295,2.1076066999230534,2.1067080998327583,1.1562485001049936,1.6562775999773294,0.5000290998723358,,DT,0.00038909987233581855
158,0.49964,0.1,1,0.34142,0.39138,0.61622,158,2.39826,0.1,0.04996,0.5496,5,1D1U,1.0,True,0.456,14,True,left,0.0,0.0008511999621987,2.3995117000304163,2.3986605000682175,1.4989259999711066,2.0007718000561,0.5018458000849932,,DT,0.00220580008499327
159,0.49964,1.2,1,0.23317,0.44968,0.76611,159,2.48155,0.06,0.03331,0.53295,5,1D1U,2.0,False,0.28,15,True,right,0.0,0.0007449998520314,2.4884063999634236,2.487661400111392,1.5222795000299811,2.022303400095552,0.5000239000655711,,DT,0.0003839000655710967
160,0.49964,0.1,2,0.42469,0.41637,0.74946,160,2.69806,0.22,0.10826,0.6079,5,2D1U,2.0,True,0.287,5,True,right,0.0,0.0006432000081986,2.7074588001705706,2.706815600162372,0.4160707001574337,0.9166763999965042,0.5006056998390704,,DT,0.0009656998390704663
161,0.49964,1.2,2,0.29978,0.34142,0.67451,161,2.14844,-0.34,-0.16655,0.33309,5,1D2U,2.0,False,0.166,8,False,right,0.0,0.0006331999320536,2.149322499986738,2.1486893000546843,0.2917947999667376,0.7913893999066204,0.4995945999398827,,DT,-4.5400060117273267e-05
162,0.49964,0.1,2,0.44135,0.42469,0.89935,162,2.81463,0.1,0.04996,0.5496,5,1D1U,2.0,True,0.255,16,True,right,0.0,0.0006693000905215,2.823872499866411,2.8232031997758895,0.4320385998580605,0.9317052999977022,0.4996667001396417,,DT,2.6700139641733234e-05
163,0.49964,1.2,2,0.25815,0.22484,0.64953,163,2.2234,0.18,0.0916,0.59124,5,2D1U,2.0,True,0.312,5,False,right,0.0,0.0007665001321583,2.223912199959159,2.2231456998270005,0.2482235999777913,0.7491014001425356,0.5008778001647443,,DT,0.001237800164744285
164,0.49964,0.1,2,0.32477,0.44968,0.65786,164,2.42326,-0.02,-0.00833,0.49131,5,1D1U,2.0,False,0.374,12,False,right,0.0,0.0003529998939484,2.432720199925825,2.432367200031877,0.3154805998783558,0.8154158999677747,0.4999353000894189,,DT,0.00029530008941891506
165,0.49964,1.2,2,0.39138,0.24149,0.83273,165,2.27335,-0.38,-0.19153,0.30811,5,1D2U,1.0,True,0.226,9,True,left,0.0,0.0003904998302459,2.2828783998265862,2.2824878999963403,0.3825968999881297,0.8823410000186414,0.4997441000305116,,DT,0.00010410003051164463
166,0.49964,0.1,2,0.2748,0.32477,0.50797,166,1.91529,-0.38,-0.19153,0.30811,5,1D2U,2.0,False,0.42,9,True,right,0.0,0.0006593000143766,1.9144373000599444,1.913778000045568,0.2653053998947143,0.7647714999038726,0.4994661000091582,,DT,-0.00017389999084177488
167,0.49964,1.2,2,0.34975,0.41637,0.57459,167,2.30668,-0.06,-0.03331,0.46633,5,1D1U,2.0,False,0.247,13,True,right,0.0,0.0007736999541521,2.3097214000299573,2.308947700075805,0.3409911000635475,0.8415121000725776,0.5005210000090301,,DT,0.0008810000090301306
168,0.49964,0.1,2,0.32477,0.25815,0.79942,168,2.33166,-0.1,-0.04996,0.44968,5,1D1U,1.0,True,0.349,13,False,left,0.0,0.0003069001249969,2.340002699987963,2.339695799862966,0.3153274999931454,0.8145049999002367,0.4991774999070912,,DT,-0.0004625000929087686
169,0.49964,1.2,2,0.44135,0.31644,0.72448,169,2.51486,0.06,0.03331,0.53295,5,1D1U,1.0,False,0.321,17,True,left,0.0,0.000824199989438,2.5152002999093384,2.5143760999199003,0.4326514999847859,0.9319736000616105,0.4993221000768244,,DT,-0.0003178999231755464
170,0.49964,0.1,1,0.30811,0.34975,0.5496,170,2.29834,0.18,0.0916,0.59124,5,2D1U,2.0,False,0.359,5,False,right,0.0,0.0006166999228298,2.29852920002304,2.2979125001002103,1.43952970020473,1.9396941000595689,0.5001643998548388,,DT,0.0005243998548388751
171,0.49964,1.2,1,0.25815,0.44135,0.77444,171,2.58148,0.22,0.10826,0.6079,5,2D1U,2.0,False,0.25,6,True,right,0.0,0.0008090999908745,2.5905144000425935,2.589705300051719,1.6323611999396237,2.1324845999479294,0.5001234000083059,,DT,0.0004834000083059342
172,0.49964,0.1,1,0.3664,0.20818,0.66619,172,2.37329,0.26,0.13324,0.63288,5,2D1U,1.0,True,0.487,6,False,left,0.0,0.0003740000538527,2.3826017999090254,2.3822277998551726,1.6569359998684376,2.157294499920681,0.5003585000522435,,DT,0.0007185000522434981
173,0.49964,1.2,1,0.37473,0.22484,0.78277,173,2.17344,-0.42,-0.20818,0.29146,5,1D2U,2.0,True,0.296,9,False,right,0.0,0.0008759999182075,2.18061890010722,2.1797429001890123,1.4401336999144403,1.9412944000214336,0.5011607001069933,,DT,0.0015207001069933446
174,0.49964,0.1,1,0.29146,0.37473,0.54128,174,2.17344,-0.06,-0.03331,0.46633,5,1D1U,2.0,True,0.453,14,True,right,0.0,0.0008441999088972,2.1821107000578195,2.181266500148922,1.2896191000472754,1.7898657000623643,0.5002466000150889,,DT,0.0006066000150889428
175,0.49964,1.2,1,0.30811,0.33309,0.72448,175,2.41492,0.1,0.04996,0.5496,5,1D1U,2.0,False,0.308,18,True,right,0.0,0.0008625998161733,2.4151951998937875,2.414332600077614,1.57234949991107,2.0727341000456363,0.5003846001345664,,DT,0.0007446001345664532
176,0.49964,0.1,1,0.33309,0.22484,0.44968,176,1.79871,-0.42,-0.20818,0.29146,5,1D2U,2.0,True,0.339,9,False,right,0.0,0.0007668000180274,1.806032200111076,1.8052654000930488,1.0730648001190275,1.573187300004065,0.5001224998850375,,DT,0.00048249988503756835
177,0.49964,1.2,1,0.29978,0.28313,0.59124,177,2.1651,-0.02,-0.00833,0.49131,5,1D1U,2.0,True,0.284,14,False,right,0.0,0.0002905998844653,2.1737350998446345,2.173444499960169,1.3737280999775976,1.8736739999148997,0.4999458999373019,,DT,0.0003058999373019011
178,0.49964,0.1,1,0.38306,0.22484,0.58291,178,2.25671,0.14,0.06662,0.56626,5,1D1U,2.0,False,0.184,18,False,right,0.0,0.0005375000182539,2.257321000099182,2.256783500080928,1.5247316001914442,2.0239269000012428,0.4991952998097986,,DT,-0.00044470019020137475
179,0.49964,1.2,1,0.26647,0.38306,0.6412,179,2.42325,0.26,0.13324,0.63288,5,2D1U,1.0,True,0.313,6,False,left,0.0,0.0008231999818235,2.4242418999783695,2.423418699996546,1.5316252999473363,2.033225300023332,0.5016000000759959,,DT,0.001960000075995949
180,0.49964,0.1,2,0.21651,0.31644,0.72448,180,2.06518,-0.38,-0.19153,0.30811,5,1D2U,2.0,False,0.4,10,True,right,0.0,0.0008140001446008,2.0645171999931335,2.0637031998485327,0.2049656000453978,0.7053521999623626,0.5003865999169648,,DT,0.0007465999169647963
181,0.49964,1.2,2,0.28313,0.21651,0.59957,181,1.89031,-0.42,-0.20818,0.29146,5,1D2U,2.0,False,0.325,11,True,right,0.0,0.0008592999074608,1.8984226000029591,1.8975633000954983,0.2733192001469433,0.7730396001134068,0.4997203999664634,,DT,8.039996646341807e-05
182,0.49964,0.1,2,0.21651,0.32477,0.57459,182,2.12348,0.02,0.00833,0.50797,5,1D1U,2.0,True,0.24,14,False,right,0.0,0.0007490999996662,2.130172000033781,2.1294229000341147,0.2049899001140147,0.7058568999636918,0.5008669998496771,,DT,0.0012269998496771128
183,0.49964,1.2,2,0.44968,0.22484,0.458,183,2.2234,0.18,0.0916,0.59124,5,1D1U,2.0,True,0.282,18,False,right,0.0,0.0002590001095086,2.232498599914834,2.2322395998053253,0.4402932999655604,0.9408772999886424,0.5005840000230819,,DT,0.0009440000230819257
184,0.49964,0.1,2,0.20818,0.42469,0.59124,184,2.29001,0.14,0.06662,0.56626,5,1D1U,2.0,True,0.115,19,True,right,0.0,0.000531299971044,2.298249299870804,2.29771799989976,0.1990064999554306,0.6989446999505162,0.4999381999950856,,DT,0.000298199995085624
185,0.49964,1.2,2,0.29978,0.38306,0.6079,185,2.39828,0.22,0.10826,0.6079,5,2D1U,2.0,True,0.112,7,True,right,0.0,0.0008034999482333,2.398908599978313,2.3981051000300795,0.2907521999441087,0.7905613000039011,0.4998091000597924,,DT,0.00016910005979242637
186,0.49964,0.1,2,0.25815,0.37473,0.8827,186,2.50653,-0.02,-0.00833,0.49131,5,1D1U,1.0,True,0.193,15,True,left,0.0,0.0002868000883609,2.506042300025001,2.5057554999366403,0.2480403999797999,0.7481384999118745,0.5000980999320745,,DT,0.0004580999320745738
187,0.49964,1.2,2,0.39971,0.29146,0.74113,187,2.48154,0.1,0.04996,0.5496,5,1D1U,2.0,True,0.243,19,False,right,0.0,0.0007168999873101,2.491054499987513,2.4903376000002027,0.390015099896118,0.891039100009948,0.50102400011383,,DT,0.0013840001138299973
188,0.49964,0.1,2,0.43302,0.39138,0.55793,188,2.48987,0.22,0.10826,0.6079,5,2D1U,1.0,False,0.708,7,True,left,0.0,0.0007784999907016,2.4972451999783516,2.49646669998765,0.4218977999407798,0.9219430999364704,0.5000452999956906,,DT,0.00040529999569061115
189,0.49964,1.2,2,0.28313,0.24982,0.50797,189,1.80703,-0.46,-0.23317,0.26647,5,1D2U,1.0,True,0.258,11,False,left,0.0,0.0006568999961018,1.8065451001748445,1.8058882001787424,0.2731734002009034,0.7730055002029985,0.4998321000020951,,DT,0.00019210000209513023
190,0.49964,0.1,1,0.34142,0.3664,0.77444,190,2.24837,-0.46,-0.23317,0.26647,5,1D2U,1.0,False,0.497,11,False,left,0.0,0.0006522999610751,2.256043399916962,2.2553910999558866,1.3728111998643726,1.873600000049919,0.5007888001855463,,DT,0.001148800185546306
191,0.49964,1.2,1,0.2748,0.34142,0.63288,191,2.28169,0.06,0.03331,0.53295,5,1D1U,1.0,True,0.241,19,False,left,0.0,0.0007838001474738,2.2912111999467015,2.2904273997992277,1.4334257000591606,1.9328405999112872,0.4994148998521268,,DT,-0.00022510014787319177
192,0.49964,0.1,1,0.39971,0.29146,0.69117,192,2.51486,0.26,0.13324,0.63288,5,2D1U,1.0,True,0.113,8,True,left,0.0,0.0009182000067085,2.523045599926263,2.5221273999195546,1.713635100051761,2.2146121999248862,0.5009770998731256,,DT,0.00133709987312558
193,0.49964,1.2,1,0.25815,0.31644,0.59124,193,2.29835,0.26,0.13324,0.63288,5,2D1U,1.0,True,0.143,8,True,left,0.0,0.000799800036475,2.29992390004918,2.2991241000127047,1.4748565000481904,1.9743538999464365,0.4994973998982459,,DT,-0.00014260010175409787
194,0.49964,0.1,1,0.24982,0.33309,0.64953,194,2.24005,0.02,0.00833,0.50797,5,1D1U,1.0,True,0.392,16,True,left,0.0,0.0002531998325139,2.2570112000685185,2.2567580002360046,1.3980179000645876,1.8987394999712703,0.500721599906683,,DT,0.001081599906682995
195,0.49964,1.2,1,0.38306,0.23317,0.47466,195,1.84035,-0.5,-0.24982,0.24982,5,1D2U,2.0,True,0.273,11,False,right,0.0,0.0008431000169366,1.8487819000147283,1.8479387999977916,1.09902870003134,1.5977715000044554,0.4987427999731153,,DT,-0.0008972000268846481
196,0.49964,0.1,1,0.31644,0.39971,0.83273,196,2.29834,-0.5,-0.24982,0.24982,5,1D2U,2.0,True,0.214,11,False,right,0.0,0.0002590001095086,2.2985909001436085,2.2983319000341,1.3913654999341816,1.8909931001253424,0.499627600191161,,DT,-1.2399808838992055e-05
197,0.49964,1.2,1,0.29978,0.20818,0.53295,197,2.04852,0.02,0.00833,0.50797,5,1D1U,2.0,False,0.111,19,False,right,0.0,0.0007931999862194,2.048347400035709,2.0475542000494897,1.3390891999006271,1.8396048999857155,0.5005157000850886,,DT,0.0008757000850886376
198,0.49964,0.1,1,0.34975,0.34142,0.73281,198,2.41493,-0.02,-0.00833,0.49131,5,1D1U,1.0,False,0.339,17,True,left,0.0,0.0008167000487446,2.4238239000551403,2.4230072000063956,1.5654338002204895,2.064715700224042,0.4992819000035524,,DT,-0.0003580999964475917
199,0.49964,1.2,1,0.32477,0.29146,0.74946,199,2.47323,0.22,0.10826,0.6079,5,2D1U,2.0,False,0.208,9,True,right,0.0,0.0007901000790297,2.482039100024849,2.4812489999458194,1.6733887000009418,2.173383899964392,0.4999951999634504,,DT,0.0003551999634504033
200,0.49964,0.1,2,0.29978,0.29146,0.76611,200,2.12346,-0.46,-0.23317,0.26647,5,1D2U,1.0,True,0.432,12,True,left,0.0,0.0008485000580549,2.1322274999693036,2.1313789999112487,0.2903066999278962,0.7900634000543505,0.4997567001264542,,DT,0.00011670012645420558
201,0.49964,1.2,2,0.3664,0.29978,0.67451,201,2.47321,0.26,0.13324,0.63288,5,2D1U,2.0,True,0.283,10,True,right,0.0,0.0007436000742018,2.482136000180617,2.481392400106415,0.3569744999986142,0.8572774000931531,0.5003029000945389,,DT,0.000662900094538954
202,0.49964,0.1,2,0.42469,0.21651,0.59124,202,2.19841,-0.06,-0.03331,0.46633,5,1D1U,2.0,False,0.491,17,False,right,0.0,0.000327100045979,2.1973181997891515,2.1969910997431725,0.4153977998066693,0.9146960999350996,0.4992983001284301,,DT,-0.00034169987156990045
203,0.49964,1.2,2,0.31644,0.42469,0.42469,203,2.19841,0.06,0.03331,0.53295,5,1D1U,1.0,False,0.327,20,True,left,0.0,0.0007440999615937,2.2013030000962317,2.200558900134638,0.3069023999851197,0.8076780999545008,0.5007756999693811,,DT,0.001135699969381121
204,0.49964,0.1,2,0.41637,0.34142,0.85771,204,2.66474,0.1,0.04996,0.5496,5,1D1U,1.0,False,0.418,20,False,left,0.0,0.0007376999128609,2.665470999898389,2.664733299985528,0.4071402999106794,0.9062109999358654,0.4990707000251859,,DT,-0.0005692999748140859
205,0.49964,1.2,2,0.44135,0.32477,0.458,205,1.99023,-0.46,-0.23317,0.26647,5,1D2U,2.0,False,0.371,12,True,right,0.0,0.0007641999982297,1.9986156998202205,1.9978514998219907,0.4323600998613983,0.9319258998148144,0.499565799953416,,DT,-7.420004658398316e-05
206,0.49964,0.1,2,0.23317,0.34142,0.44135,206,1.7654,-0.5,-0.24982,0.24982,5,1D2U,1.0,True,0.546,13,True,left,0.0,0.0006046001799404,1.774647500133142,1.7740428999532014,0.2243912999983877,0.7244611999485642,0.5000698999501765,,DT,0.0004298999501765044
207,0.49964,1.2,2,0.23317,0.20818,0.80775,207,2.19842,-0.1,-0.04996,0.44968,5,1D1U,2.0,False,0.254,17,False,right,0.0,0.0005745999515056,2.199367899913341,2.198793299961835,0.2233553999103605,0.7234298000112176,0.500074400100857,,DT,0.0004344001008570464
208,0.49964,0.1,2,0.19986,0.25815,0.55793,208,2.14846,0.26,0.13324,0.63288,5,2D1U,1.0,False,0.361,10,True,left,0.0,0.0002991999499499,2.1482953000813723,2.1479961001314223,0.1902829001192003,0.6900271000340581,0.4997441999148577,,DT,0.00010419991485771662
209,0.49964,1.2,2,0.42469,0.2748,0.78277,209,2.63143,0.3,0.14989,0.64953,5,2D1U,2.0,True,0.205,10,False,right,0.0,0.0008388999849557,2.641873000189662,2.641034100204706,0.4157313001342118,0.9159459001384676,0.5002146000042558,,DT,0.0005746000042557986
210,0.49964,0.1,1,0.25815,0.24149,0.7911,210,2.35664,0.14,0.06662,0.56626,5,1D1U,2.0,False,0.251,20,False,right,0.0,0.0007317001000046,2.358234500046819,2.3575027999468148,1.6071447001304475,2.1082135001197457,0.501068799989298,,DT,0.001428799989298013
211,0.49964,1.2,1,0.28313,0.34142,0.58291,211,2.35663,0.3,0.14989,0.64953,5,2D1U,2.0,False,0.626,10,False,right,0.0,0.0004235999658703,2.3574391999281943,2.357015599962324,1.5071868998929858,2.007093599997461,0.499906700104475,,DT,0.00026670010447504833
212,0.49964,0.1,1,0.42469,0.29978,0.8827,212,2.35663,-0.5,-0.24982,0.24982,5,1D2U,2.0,True,0.358,13,True,right,0.0,0.0005921998526901,2.357523299986497,2.3569311001338065,1.5494538999628276,2.049065300030634,0.4996114000678062,,DT,-2.859993219378465e-05
213,0.49964,1.2,1,0.32477,0.42469,0.84106,213,2.6814,0.18,0.0916,0.59124,5,1D1U,2.0,False,0.198,20,False,right,0.0,0.0006045999471098,2.689183000009507,2.688578400062397,1.747554900124669,2.2471704999916255,0.4996155998669565,,DT,-2.4400133043500638e-05
214,0.49964,0.1,1,0.19986,0.32477,0.50797,214,2.14014,0.22,0.10826,0.6079,5,1D1U,2.0,False,0.175,20,False,right,0.0,0.000741799827665,2.148381599923596,2.1476398000959307,1.3058784999884665,1.806360099930316,0.5004815999418497,,DT,0.0008415999418497355
215,0.49964,1.2,1,0.24982,0.34142,0.85771,215,2.38161,-0.14,-0.06662,0.43302,5,1D1U,2.0,True,0.183,17,False,right,0.0,0.0008000000379979,2.3910600000526756,2.3902600000146776,1.5326408999972043,2.032471700105816,0.4998308001086116,,DT,0.00019080010861161067
216,0.49964,0.1,1,0.21651,0.39138,0.70782,216,2.26503,-0.1,-0.04996,0.44968,5,1D1U,2.0,True,0.333,18,True,right,0.0,0.0007376000285148,2.2647492000833154,2.2640116000548005,1.365162800066173,1.8653923000674697,0.5002295000012964,,DT,0.000589500001296428
217,0.49964,1.2,1,0.34142,0.3664,0.80775,217,2.48154,-0.06,-0.03331,0.46633,5,1D1U,2.0,True,0.734,18,False,right,0.0,0.00076560000889,2.498307199915871,2.497541599906981,1.6060771998018026,2.1061235999222845,0.5000464001204818,,DT,0.0004064001204818757
218,0.49964,0.1,1,0.32477,0.44135,0.62455,218,2.52319,0.26,0.13324,0.63288,5,1D1U,2.0,False,0.116,20,False,right,0.0,0.0007937999907881,2.531767100095749,2.530973300104961,1.5736164001282305,2.0746031999588013,0.5009867998305708,,DT,0.001346799830570844
219,0.49964,1.2,1,0.24149,0.23317,0.43302,219,2.07351,0.34,0.16655,0.66619,5,2D1U,2.0,False,0.111,10,False,right,0.0,0.0007694999221712,2.0828407001681626,2.0820712002459913,1.332609600154683,1.8320270001422616,0.4994173999875784,,DT,-0.000222600012421581
220,0.49964,0.1,2,0.39138,0.39138,0.79942,220,2.34829,-0.46,-0.23317,0.26647,5,1D2U,1.0,True,0.417,14,True,left,0.0,0.0008328000549226,2.3480640000198036,2.347231199964881,0.3813825000543147,0.8815693000797182,0.5001868000254035,,DT,0.0005468000254035266
221,0.49964,1.2,2,0.24149,0.30811,0.40804,221,1.72375,-0.46,-0.23317,0.26647,5,1D2U,1.0,True,0.225,14,True,left,0.0,0.0002727999817579,1.7332121999934316,1.7329394000116736,0.2326513999141752,0.7330306998919696,0.5003792999777943,,DT,0.0007392999777943166
222,0.49964,0.1,2,0.42469,0.42469,0.458,222,2.09848,-0.42,-0.20818,0.29146,5,1D2U,1.0,True,0.229,14,False,left,0.0,0.0002683999482542,2.098367099883035,2.0980986999347806,0.4157712000887841,0.9150682000909,0.4992970000021159,,DT,-0.00034299999788406366
223,0.49964,1.2,2,0.29978,0.28313,0.41637,223,2.19009,0.38,0.19153,0.69117,5,2D1U,2.0,True,0.208,10,False,right,0.0,0.000288400100544,2.198954600142315,2.198666200041771,0.2909731999970972,0.7907363001722842,0.499763100175187,,DT,0.00012310017518701866
224,0.49964,0.1,2,0.2748,0.21651,0.39971,224,2.04019,0.3,0.14989,0.64953,5,1D1U,2.0,True,0.267,20,False,right,0.0,0.0006494000554084,2.0473855000454932,2.0467360999900848,0.264452800154686,0.7637255999725312,0.4992727998178452,,DT,-0.0003672001821547477
225,0.49964,1.2,2,0.34142,0.31644,0.56626,225,2.21507,-0.02,-0.00833,0.49131,5,1D1U,1.0,True,0.243,18,False,left,0.0,0.0007727001793682,2.216133600100875,2.215360899921506,0.3321454001124948,0.8318740001413971,0.4997286000289023,,DT,8.860002890231922e-05
226,0.49964,0.1,2,0.43302,0.31644,0.7911,226,2.33166,-0.42,-0.20818,0.29146,5,1D2U,1.0,True,0.517,14,False,left,0.0,0.0007917999755591,2.340869399951771,2.340077599976212,0.42335160006769,0.9246922999154776,0.5013406998477876,,DT,0.0017006998477876456
227,0.49964,1.2,2,0.19986,0.34975,0.44968,227,1.80704,-0.38,-0.19153,0.30811,5,1D2U,1.0,True,0.321,14,False,left,0.0,0.0002923998981714,1.806978499982506,1.8066861000843344,0.1900015999563038,0.6901883999817073,0.5001868000254035,,DT,0.0005468000254035266
228,0.49964,0.1,2,0.24149,0.43302,0.64953,228,2.51485,0.38,0.19153,0.69117,5,2D1U,2.0,True,0.116,10,False,right,0.0,0.0007679001428186,2.5152437000069767,2.514475799864158,0.232724400004372,0.7322882998269051,0.4995638998225331,,DT,-7.61001774668979e-05
229,0.49964,1.2,2,0.2748,0.24149,0.44968,229,2.09849,0.26,0.13324,0.63288,5,1D1U,2.0,True,0.279,21,True,right,0.0,0.0008701998740434,2.108454099856317,2.1075838999822736,0.2667731998953968,0.7655356000177562,0.4987624001223594,,DT,-0.000877599877640578
230,0.49964,0.1,1,0.43302,0.37473,0.71615,230,2.53151,0.02,0.00833,0.50797,5,1D1U,2.0,False,0.326,18,False,right,0.0,0.0007933999877423,2.5418714999686927,2.5410780999809504,1.6497432000469416,2.150010700104758,0.5002675000578165,,DT,0.0006275000578165324
231,0.49964,1.2,1,0.40804,0.42469,0.63288,231,2.57315,0.22,0.10826,0.6079,5,1D1U,1.0,True,0.294,21,False,left,0.0,0.0007842001505196,2.573926599929109,2.5731423997785896,1.640825100010261,2.1400299000088125,0.4992047999985516,,DT,-0.0004352000014483659
232,0.49964,0.1,1,0.38306,0.24149,0.61622,232,2.04852,-0.38,-0.19153,0.30811,5,1D2U,1.0,False,0.326,14,False,left,0.0,0.0002753001172095,2.048810999840498,2.0485356997232884,1.2992783000227064,1.7992834998294711,0.5000051998067647,,DT,0.00036519980676474884
233,0.49964,1.2,1,0.25815,0.44135,0.55793,233,2.04853,-0.42,-0.20818,0.29146,5,1D2U,2.0,True,0.357,15,True,right,0.0,0.0003482999745756,2.0486421999521554,2.0482938999775797,1.0993840000592172,1.5987098000478,0.4993257999885827,,DT,-0.00031420001141729825
234,0.49964,0.1,1,0.32477,0.26647,0.47466,234,2.09849,0.06,0.03331,0.53295,5,1D1U,2.0,False,0.257,18,False,right,0.0,0.0007583999540656,2.0977272999007255,2.09696889994666,1.3232589999679476,1.8230816000141203,0.4998226000461727,,DT,0.00018260004617270953
235,0.49964,1.2,1,0.26647,0.20818,0.89102,235,2.5315,0.34,0.16655,0.66619,5,2D1U,2.0,False,0.332,11,True,right,0.0,0.0008264000061899,2.5388557999394834,2.5380293999332935,1.8139879999216648,2.3137006000615656,0.499712600139901,,DT,7.260013990101344e-05
236,0.49964,0.1,1,0.42469,0.23317,0.56626,236,2.41493,0.38,0.19153,0.69117,5,2D1U,2.0,False,0.111,12,True,right,0.0,0.0007025999948382,2.423270500032231,2.422567900037393,1.6734176999889314,2.173351899953559,0.4999341999646276,,DT,0.0002941999646276505
237,0.49964,1.2,1,0.31644,0.20818,0.64953,237,2.26503,0.18,0.0916,0.59124,5,1D1U,1.0,True,0.153,21,False,left,0.0,0.0008602999150753,2.2737251000944525,2.272864800179377,1.5490236999467015,2.04931310005486,0.5002894001081586,,DT,0.0006494001081586154
238,0.49964,0.1,1,0.33309,0.23317,0.44135,238,2.05685,0.1,0.04996,0.5496,5,1D1U,2.0,False,0.261,18,False,right,0.0,0.000476700020954,2.0564993999432772,2.0560226999223232,1.3145651000086218,1.8142629999201745,0.4996978999115526,,DT,5.789991155263907e-05
239,0.49964,1.2,1,0.37473,0.37473,0.83273,239,2.37329,-0.42,-0.20818,0.29146,5,1D2U,2.0,True,0.109,15,True,right,0.0,0.0008048999588936,2.372925699921325,2.372120799962431,1.4893540998455137,1.9893323997966943,0.4999782999511808,,DT,0.00033829995118084266
240,0.49964,0.1,2,0.24982,0.42469,0.77444,240,2.2567,-0.38,-0.19153,0.30811,5,1D2U,2.0,False,0.364,16,True,right,0.0,0.0008197999559342,2.2561711999587715,2.255351400002837,0.2396857999265194,0.739339099964127,0.4996533000376075,,DT,1.3300037607522075e-05
241,0.49964,1.2,2,0.2748,0.22484,0.72448,241,2.29002,0.14,0.06662,0.56626,5,1D1U,1.0,False,0.362,18,False,left,0.0,0.0006794999353587,2.299515699967742,2.298836200032383,0.2652634000405669,0.7649654999841005,0.4997020999435335,,DT,6.209994353351123e-05
242,0.49964,0.1,2,0.29978,0.39971,0.6995,242,2.46489,0.14,0.06662,0.56626,5,1D1U,2.0,True,0.108,21,False,right,0.0,0.0006915000267326,2.466293300036341,2.4656018000096083,0.2914231000468135,0.7913232001010329,0.4999001000542193,,DT,0.0002601000542193366
243,0.49964,1.2,2,0.25815,0.28313,0.8827,243,2.63144,0.42,0.20818,0.70782,5,2D1U,1.0,False,0.454,12,False,left,0.0,0.000620299950242,2.634156299987808,2.633536000037566,0.2501377000007778,0.7502814999315888,0.5001437999308109,,DT,0.0005037999308109553
244,0.49964,0.1,2,0.34975,0.30811,0.79942,244,2.24838,-0.42,-0.20818,0.29146,5,1D2U,2.0,False,0.423,17,True,right,0.0,0.0008704999927431,2.2497772998176515,2.2489067998249084,0.3417131998576224,0.8411618999671191,0.4994487001094967,,DT,-0.00019129989050326035
245,0.49964,1.2,2,0.22484,0.40804,0.42469,245,1.82368,-0.46,-0.23317,0.26647,5,1D2U,2.0,False,0.228,17,False,right,0.0,0.0002983000595122,1.8308109999634328,1.8305126999039203,0.2140573998913169,0.7142516998574138,0.5001942999660969,,DT,0.000554299966096905
246,0.49964,0.1,2,0.31644,0.35808,0.89102,246,2.79799,0.46,0.23317,0.73281,5,2D1U,1.0,False,0.213,12,False,left,0.0,0.0007706000469624,2.799234600039199,2.7984639999922365,0.3077003001235425,0.8076861000154167,0.4999857998918742,,DT,0.0003457998918742211
247,0.49964,1.2,2,0.39138,0.29978,0.6079,247,2.38994,0.18,0.0916,0.59124,5,1D1U,2.0,True,0.257,18,False,right,0.0,0.0008751000277698,2.407518999883905,2.4066438998561352,0.3822536000516265,0.88204519986175,0.4997915998101234,,DT,0.00015159981012341506
248,0.49964,0.1,2,0.35808,0.24982,0.72448,248,2.08184,-0.5,-0.24982,0.24982,5,1D2U,1.0,True,0.338,17,False,left,0.0,0.0008254998829215,2.0904696001671255,2.089644100284204,0.3485409000422805,0.8476199000142515,0.4990789999719709,,DT,-0.0005610000280290572
249,0.49964,1.2,2,0.31644,0.40804,0.75779,249,2.23173,-0.5,-0.24982,0.24982,5,1D2U,1.0,True,0.67,17,False,left,0.0,0.0007853999268263,2.232379199936986,2.2315938000101596,0.3063634000718593,0.807035299949348,0.5006718998774886,,DT,0.00103189987748864
250,0.49964,0.1,1,0.34142,0.25815,0.75779,250,2.4066,0.1,0.04996,0.5496,5,1D1U,1.0,True,0.389,21,False,left,0.0,0.0005749999545514,2.406141099985689,2.4055661000311375,1.6392711999360472,2.1391877999994904,0.4999166000634432,,DT,0.00027660006344321086
251,0.49964,1.2,1,0.29146,0.23317,0.41637,251,2.0069,0.14,0.06662,0.56626,5,1D1U,2.0,False,0.85,19,True,right,0.0,0.0007993001490831,2.007412600098178,2.0066132999490947,1.2658832999877632,1.7662643999792635,0.5003810999915004,,DT,0.0007410999915004046
252,0.49964,0.1,1,0.21651,0.28313,0.63288,252,2.2234,0.18,0.0916,0.59124,5,1D1U,1.0,True,0.241,20,True,left,0.0,0.0014839000068604,2.230017599882558,2.2285336998756975,1.4391818000003695,1.9397366000339389,0.5005548000335693,,DT,0.0009148000335693629
253,0.49964,1.2,1,0.35808,0.20818,0.73281,253,2.06518,-0.46,-0.23317,0.26647,5,1D2U,2.0,True,0.115,18,True,right,0.0,0.0007827000226825,2.0667359000071883,2.0659531999845058,1.349435199983418,1.849008599994704,0.4995734000112861,,DT,-6.659998871388906e-05
254,0.49964,0.1,1,0.26647,0.37473,0.84106,254,2.73136,0.5,0.24982,0.74946,5,2D1U,2.0,False,0.33,12,False,right,0.0,0.0007984999101608,2.7409157000947744,2.7401172001846135,1.8492416001390664,2.3493167001288384,0.5000750999897718,,DT,0.0004350999897718699
255,0.49964,1.2,1,0.24149,0.2748,0.72448,255,2.27336,0.06,0.03331,0.53295,5,1D1U,2.0,False,0.109,21,False,right,0.0,0.0006636998150497,2.2812991000246257,2.280635400209576,1.4896104999352249,1.9896726000588387,0.5000621001236141,,DT,0.00042210012361409976
256,0.49964,0.1,1,0.33309,0.24982,0.72448,256,2.0735,-0.46,-0.23317,0.26647,5,1D2U,2.0,True,0.112,18,True,right,0.0,0.0008625001646578,2.0818144001532346,2.0809518999885768,1.3156120001804084,1.8156501001212744,0.5000380999408662,,DT,0.0003980999408662589
257,0.49964,1.2,1,0.19986,0.44135,0.62455,257,2.315,0.1,0.04996,0.5496,5,1D1U,2.0,False,0.279,22,True,right,0.0,0.0003848997876048,2.315390900010243,2.3150060002226382,1.3656917000189424,1.8655300999525937,0.4998383999336511,,DT,0.00019839993365111663
258,0.49964,0.1,1,0.42469,0.31644,0.81608,258,2.62311,0.14,0.06662,0.56626,5,1D1U,2.0,False,0.657,21,True,right,0.0,0.000288899987936,2.6323120000306517,2.6320231000427157,1.799656999995932,2.299459300003946,0.4998023000080138,,DT,0.00016230000801381594
259,0.49964,1.2,1,0.44135,0.33309,0.62455,259,2.66474,0.54,0.26647,0.76611,5,2D1U,2.0,False,0.453,12,False,right,0.0,0.0007180999964475,2.6653179998975247,2.664599899901077,1.8238745999988168,2.3238425999879837,0.4999679999891668,,DT,0.00032799998916682727
260,0.49964,0.1,2,0.21651,0.19986,0.78277,260,1.99024,-0.42,-0.20818,0.29146,5,1D2U,2.0,False,0.467,18,False,right,0.0,0.0003132000565528,2.005386400036514,2.005073199979961,0.2061244000215083,0.7061379000078887,0.5000134999863803,,DT,0.00037349998638036563
261,0.49964,1.2,2,0.29978,0.29146,0.78277,261,2.14012,-0.46,-0.23317,0.26647,5,1D2U,1.0,True,0.415,19,True,left,0.0,0.0007569000590592,2.1500470000319183,2.149290099972859,0.2909921000245958,0.7918213000521064,0.5008292000275105,,DT,0.0011892000275105508
262,0.49964,0.1,2,0.38306,0.34142,0.67451,262,2.48987,0.18,0.0916,0.59124,5,1D1U,1.0,False,0.2,22,True,left,0.0,0.0006918001454323,2.5080700998660177,2.5073782997205853,0.3748739999718964,0.8738531998824328,0.4989791999105364,,DT,-0.0006608000894635646
263,0.49964,1.2,2,0.2748,0.39971,0.46633,263,2.43158,0.58,0.29146,0.7911,5,2D1U,1.0,False,0.222,12,False,left,0.0,0.0005948001053184,2.43772009992972,2.4371252998244017,0.2704938999377191,0.770914199994877,0.5004203000571579,,DT,0.0007803000571579011
264,0.49964,0.1,2,0.35808,0.3664,0.81608,264,2.60646,0.14,0.06662,0.56626,5,1D1U,1.0,False,0.181,22,False,left,0.0,0.0007344998884946,2.614626199938357,2.6138917000498623,0.3489159999880939,0.849156100070104,0.50024010008201,,DT,0.0006001000820100577
265,0.49964,1.2,2,0.2748,0.38306,0.85771,265,2.60645,0.18,0.0916,0.59124,5,1D1U,2.0,True,0.258,22,False,right,0.0,0.0007738000713288,2.606467799982056,2.605693999910727,0.2651408000383526,0.7647498999722302,0.4996090999338776,,DT,-3.0900066122385716e-05
266,0.49964,0.1,2,0.29978,0.28313,0.44968,266,2.33998,0.62,0.30811,0.80775,5,2D1U,1.0,False,0.433,12,False,left,0.0,0.000470999861136,2.348663599928841,2.348192600067705,0.2901247998233884,0.7905427999794483,0.5004180001560599,,DT,0.0007780001560598881
267,0.49964,1.2,2,0.23317,0.39138,0.8827,267,2.57315,0.14,0.06662,0.56626,5,1D1U,2.0,True,0.546,23,True,right,0.0,0.0002687999513,2.5834834999404848,2.5832146999891847,0.2253449999261647,0.7262875000014901,0.5009425000753254,,DT,0.0013025000753253968
268,0.49964,0.1,2,0.31644,0.2748,0.57459,268,2.27337,0.22,0.10826,0.6079,5,1D1U,2.0,True,0.621,22,False,right,0.0,0.0007350000087171,2.2811050000600517,2.2803700000513345,0.3059100001119077,0.8063310000579804,0.5004209999460727,,DT,0.0007809999460727246
269,0.49964,1.2,2,0.44135,0.44135,0.458,269,2.10681,-0.46,-0.23317,0.26647,5,1D2U,1.0,True,0.18,19,True,left,0.0,0.000389999942854,2.11435759998858,2.1139676000457257,0.4314484999049455,0.9317954999860376,0.5003470000810921,,DT,0.0007070000810921462
270,0.49964,0.1,1,0.20818,0.19986,0.7911,270,2.53151,0.66,0.33309,0.83273,5,2D1U,2.0,False,0.312,12,False,right,0.0,0.0002594001125544,2.541067299898714,2.5408078997861594,1.8234977999236437,2.3242818999569863,0.5007841000333428,,DT,0.0011441000333428653
271,0.49964,1.2,1,0.35808,0.43302,0.64953,271,2.48987,0.1,0.04996,0.5496,5,1D1U,2.0,False,0.112,23,False,right,0.0,0.0006953999400138,2.497985400026664,2.4972900000866503,1.5472876999992875,2.046864999923855,0.4995772999245673,,DT,-6.270007543268674e-05
272,0.49964,0.1,1,0.28313,0.44968,0.83273,272,2.35664,-0.42,-0.20818,0.29146,5,1D2U,2.0,True,0.348,20,True,right,0.0,0.00076560000889,2.365658200113103,2.3648926001042128,1.39934440003708,1.898748000152409,0.499403600115329,,DT,-0.00023639988467094586
273,0.49964,1.2,1,0.2748,0.35808,0.85771,273,2.58147,0.18,0.0916,0.59124,5,1D1U,2.0,False,0.381,23,True,right,0.0,0.0005928999744355,2.588637300068513,2.588044400094077,1.7147361000534147,2.213882999960333,0.4991468999069184,,DT,-0.0004931000930815665
274,0.49964,0.1,1,0.44135,0.24149,0.48299,274,2.51486,0.7,0.34975,0.84939,5,2D1U,1.0,True,0.108,12,False,left,0.0,0.0002532000653445,2.5246240000706166,2.524370800005272,1.7658645000774411,2.2661512999329716,0.5002867998555303,,DT,0.000646799855530289
275,0.49964,1.2,1,0.39971,0.38306,0.5496,275,2.39827,0.14,0.06662,0.56626,5,1D1U,1.0,True,0.267,24,True,left,0.0,0.0007472999859601,2.399126400006935,2.398379100020975,1.5075272000394762,2.007511500036344,0.4999842999968678,,DT,0.0003442999968678029
276,0.49964,0.1,1,0.37473,0.30811,0.56626,276,2.29834,0.1,0.04996,0.5496,5,1D1U,1.0,True,0.299,25,True,left,0.0,0.0002996998373419,2.2996378000825644,2.2993381002452224,1.4822641999926418,1.9816424001473931,0.4993782001547515,,DT,-0.0002617998452484893
277,0.49964,1.2,1,0.44135,0.3664,0.44135,277,2.35664,0.22,0.10826,0.6079,5,1D1U,1.0,True,0.237,24,True,left,0.0,0.0003027999773621,2.356889700051397,2.356586900074035,1.4811649001203475,1.981330200098455,0.5001652999781072,,DT,0.0005252999781072409
278,0.49964,0.1,1,0.23317,0.29978,0.76611,278,2.38994,0.18,0.0916,0.59124,5,1D1U,2.0,False,0.132,25,True,right,0.0,0.0003498999867588,2.399991099955514,2.3996411999687552,1.5828348000068218,2.0823826999403536,0.4995478999335319,,DT,-9.210006646809266e-05
279,0.49964,1.2,1,0.2748,0.34142,0.57459,279,2.53984,0.7,0.34975,0.84939,5,2D1U,2.0,False,0.666,12,False,right,0.0,0.000763599993661,2.5473507000133395,2.5465871000196785,1.6972487000748515,2.1980101000517607,0.5007613999769092,,DT,0.0011213999769091876
280,0.49964,0.1,2,0.29978,0.43302,0.66619,280,2.19009,-0.42,-0.20818,0.29146,5,1D2U,2.0,False,0.432,20,True,right,0.0,0.00028260005638,2.1992901999037713,2.1990075998473912,0.2907769999001175,0.7899482999928296,0.499171300092712,,DT,-0.00046869990728798383
281,0.49964,1.2,2,0.31644,0.34975,0.54128,281,2.24006,0.06,0.03331,0.53295,5,1D1U,1.0,False,0.113,25,False,left,0.0,0.0007263999432325,2.248898100107908,2.2481717001646757,0.307675400050357,0.8082355000078678,0.5005600999575108,,DT,0.0009200999575108559
282,0.49964,0.1,2,0.20818,0.22484,0.59124,282,1.79037,-0.46,-0.23317,0.26647,5,1D2U,1.0,True,0.3,21,True,left,0.0,0.0007794999983161,1.7997972001321614,1.7990177001338452,0.2009847001172602,0.6994265001267195,0.4984418000094592,,DT,-0.0011981999905407714
283,0.49964,1.2,2,0.3664,0.42469,0.73281,283,2.88958,0.74,0.3664,0.86604,5,2D1U,1.0,False,0.263,12,False,left,0.0,0.0007598001975566,2.8898664000444114,2.889106599846855,0.3567209001630544,0.8566171999555081,0.4998962997924536,,DT,0.0002562997924536181
284,0.49964,0.1,2,0.44135,0.31644,0.48299,284,2.34832,0.22,0.10826,0.6079,5,1D1U,1.0,False,0.204,26,True,left,0.0,0.0007462000939995,2.3489293998572975,2.348183199763298,0.4313074999954551,0.9318136000074446,0.5005061000119895,,DT,0.0008661000119895013
285,0.49964,1.2,2,0.43302,0.37473,0.58291,285,2.52318,0.26,0.13324,0.63288,5,1D1U,2.0,True,0.213,26,False,right,0.0,0.0007535999175161,2.5323419999331236,2.5315884000156075,0.424808899872005,0.9237834000959992,0.4989745002239942,,DT,-0.0006654997760057735
286,0.49964,0.1,2,0.3664,0.3664,0.40804,286,2.5315,0.78,0.39138,0.89102,5,2D1U,1.0,False,0.359,12,False,left,0.0,0.0007468999829143,2.5404292999301106,2.539682399947196,0.3573000999167561,0.8570474998559803,0.4997473999392241,,DT,0.00010739993922415092
287,0.49964,1.2,2,0.28313,0.26647,0.73281,287,2.04852,-0.46,-0.23317,0.26647,5,1D2U,2.0,False,0.321,21,True,right,0.0,0.0007080000359565,2.042660699924454,2.0419526998884976,0.2754507998470217,0.7748018999118358,0.4993511000648141,,DT,-0.0002888999351858823
288,0.49964,0.1,2,0.24982,0.43302,0.61622,288,2.4066,0.22,0.10826,0.6079,5,1D1U,2.0,True,0.22,27,True,right,0.0,0.0007403998170047,2.408524699974805,2.4077843001578003,0.2415010000113397,0.7415548001881689,0.5000538001768291,,DT,0.0004138001768291266
289,0.49964,1.2,2,0.26647,0.39971,0.59957,289,2.31499,0.1,0.04996,0.5496,5,1D1U,2.0,True,0.114,26,True,right,0.0,0.0008247001096606,2.3230808000080287,2.322256099898368,0.2648285999894142,0.7645425999071449,0.4997139999177307,,DT,7.399991773071601e-05
290,0.49964,0.1,1,0.34975,0.38306,0.49131,290,2.25671,0.06,0.03331,0.53295,5,1D1U,2.0,False,0.288,27,True,right,0.0,0.000256999861449,2.264865899924189,2.26460890006274,1.3646414999384433,1.8649383999872953,0.500296900048852,,DT,0.0006569000488519938
291,0.49964,1.2,1,0.20818,0.28313,0.63288,291,2.53151,0.82,0.40804,0.90768,5,2D1U,2.0,False,0.298,12,False,right,0.0,0.000775400083512,2.539666899945587,2.538891499862075,1.739545299904421,2.242173899896443,0.5026285999920219,,DT,0.0029885999920219453
292,0.49964,0.1,1,0.38306,0.29978,0.51629,292,2.29001,0.18,0.0916,0.59124,5,1D1U,2.0,False,0.115,27,False,right,0.0,0.0007280998397618,2.298473000060767,2.297744900221005,1.4823976000770926,1.9817760000005364,0.4993783999234438,,DT,-0.0002616000765561788
293,0.49964,1.2,1,0.28313,0.29978,0.51629,293,2.14844,0.1,0.04996,0.5496,5,1D1U,2.0,False,0.268,28,True,right,0.0,0.0005057998932898,2.1508625999558717,2.150356800062582,1.3410279999952763,1.8409992998931557,0.4999712998978793,,DT,0.00033129989787933356
294,0.49964,0.1,1,0.30811,0.20818,0.50797,294,1.77372,-0.5,-0.24982,0.24982,5,1D2U,2.0,True,0.227,21,False,right,0.0,0.0002548000775277,1.7730974000878632,1.7728426000103354,1.05704060010612,1.5570203999523071,0.4999797998461872,,DT,0.0003397998461872054
295,0.49964,1.2,1,0.23317,0.35808,0.42469,295,1.7654,-0.5,-0.24982,0.24982,5,1D2U,2.0,True,0.109,21,False,right,0.0,0.0004020000342279,1.773875999962911,1.773473999928683,0.8981085000559688,1.3987664999440312,0.5006579998880625,,DT,0.001017999888062504
296,0.49964,0.1,1,0.3664,0.31644,0.59957,296,2.71471,0.86,0.43302,0.93266,5,2D1U,1.0,True,0.11,12,False,left,0.0,0.0007766999769955,2.7151707001030445,2.714394000126049,1.8900456000119448,2.3897043000906706,0.4996587000787258,,DT,1.8700078725841784e-05
297,0.49964,1.2,1,0.37473,0.40804,0.66619,297,2.51486,0.14,0.06662,0.56626,5,1D1U,2.0,False,0.184,28,False,right,0.0,0.0007650998886674,2.5152829999569803,2.514517900068313,1.5980748999863863,2.097736299969256,0.4996613999828696,,DT,2.1399982869652057e-05
298,0.49964,0.1,1,0.40804,0.20818,0.86604,298,2.5898,0.22,0.10826,0.6079,5,1D1U,2.0,False,0.208,28,True,right,0.0,0.0007136999629437,2.5984767000190914,2.5977630000561476,1.8732324000447989,2.373895199969411,0.500662799924612,,DT,0.0010227999246120723
299,0.49964,1.2,1,0.26647,0.29146,0.44968,299,1.77372,-0.46,-0.23317,0.26647,5,1D2U,2.0,True,0.47,22,True,right,0.0,0.0006356001831591,1.7825072999112308,1.7818716997280717,0.9736950998194516,1.474392999894917,0.5006979000754654,,DT,0.0010579000754654677
300,0.49964,0.1,2,0.44135,0.26647,0.73281,300,2.87293,0.86,0.43302,0.93266,5,2D1U,2.0,True,0.222,12,False,right,0.0,0.0007592998445034,2.882196299964562,2.8814370001200587,0.4329928001388907,0.932616600068286,0.4996237999293953,,DT,-1.6200070604655004e-05
301,0.49964,1.2,2,0.37473,0.41637,0.73281,301,2.93123,0.82,0.40804,0.90768,5,2D1U,2.0,True,0.109,13,True,right,0.0,0.0002717000897973,2.9414027999155223,2.941131099825725,0.3662684999871999,0.8659755999688059,0.499707099981606,,DT,6.709998160603359e-05
302,0.49964,0.1,2,0.25815,0.23317,0.56626,302,1.82369,-0.46,-0.23317,0.26647,5,1D2U,1.0,True,0.299,22,True,left,0.0,0.0007585999555885,1.832246599951759,1.8314879999961704,0.2484840000979602,0.7490117000415921,0.5005276999436319,,DT,0.0008876999436319144
303,0.49964,1.2,2,0.29146,0.31644,0.52462,303,2.26504,0.26,0.13324,0.63288,5,1D1U,2.0,True,0.212,28,False,right,0.0,0.0007759002037346,2.2738807001151145,2.27310479991138,0.2815139000304043,0.7822042000479996,0.5006903000175953,,DT,0.001050300017595318
304,0.49964,0.1,2,0.41637,0.43302,0.82441,304,2.78134,0.22,0.10826,0.6079,5,1D1U,2.0,True,0.417,29,True,right,0.0,0.0007607000879943,2.7910110000520945,2.7902502999641,0.4069200998637825,0.9068100000731648,0.4998899002093822,,DT,0.00024990020938220336
305,0.49964,1.2,2,0.30811,0.37473,0.62455,305,2.39827,0.18,0.0916,0.59124,5,1D1U,1.0,False,0.277,28,False,left,0.0,0.0007249999325722,2.3979535000398755,2.3972285001073033,0.2987230999860912,0.7979619998950511,0.4992388999089598,,DT,-0.000401100091040163
306,0.49964,0.1,2,0.22484,0.31644,0.78277,306,2.73137,0.82,0.40804,0.90768,5,2D1U,1.0,False,0.223,13,True,left,0.0,0.0004680999554693,2.7418150999583304,2.741347000002861,0.2167815000284463,0.71630569989793,0.4995241998694837,,DT,-0.0001158001305162637
307,0.49964,1.2,2,0.24149,0.24982,0.53295,307,2.45656,0.86,0.43302,0.93266,5,2D1U,2.0,True,0.43,14,True,right,0.0,0.000753799919039,2.4653485999442637,2.4645948000252247,0.2321431001182645,0.7321274001151323,0.4999842999968678,,DT,0.0003442999968678029
308,0.49964,0.1,2,0.3664,0.40804,0.52462,308,2.38994,0.18,0.0916,0.59124,5,1D1U,2.0,True,0.192,29,False,right,0.0,0.0007625999860465,2.3987294000107795,2.397966800024733,0.3572503998875618,0.8575644998345524,0.5003140999469906,,DT,0.0006740999469906361
309,0.49964,1.2,2,0.39138,0.40804,0.80775,309,2.39827,-0.42,-0.20818,0.29146,5,1D2U,1.0,True,0.111,22,False,left,0.0,0.0007454000879079,2.4077096001710743,2.4069642000831664,0.3815212999470532,0.8813263999763876,0.4998051000293344,,DT,0.0001651000293344529
310,0.49964,0.1,1,0.24149,0.3664,0.62455,310,2.33998,0.22,0.10826,0.6079,5,1D1U,2.0,False,0.115,28,False,right,0.0,0.0007267999462783,2.34872950008139,2.348002700135112,1.4654897002037617,1.9656663001514971,0.5001765999477357,,DT,0.0005365999477356942
311,0.49964,1.2,1,0.35808,0.33309,0.53295,311,2.35664,0.26,0.13324,0.63288,5,1D1U,1.0,True,0.26,28,False,left,0.0,0.0002706001978367,2.357426199829206,2.357155599631369,1.516586999874562,2.0164928999729455,0.4999059000983834,,DT,0.00026590009838345363
312,0.49964,0.1,1,0.20818,0.39138,0.83273,312,2.86459,0.86,0.43302,0.93266,5,2D1U,1.0,True,0.116,14,True,left,0.0,0.0006977999582886,2.8658415998797864,2.8651437999214977,1.967180899810046,2.466524199815467,0.499343300005421,,DT,-0.0002966999945789861
313,0.49964,1.2,1,0.35808,0.31644,0.47466,313,2.5565,0.82,0.40804,0.90768,5,2D1U,1.0,True,0.671,15,True,left,0.0,0.0007784999907016,2.5651836001779884,2.5644051001872867,1.7324626001063734,2.2323133000172675,0.499850699910894,,DT,0.00021069991089400775
314,0.49964,0.1,1,0.3664,0.26647,0.81608,314,2.24005,-0.42,-0.20818,0.29146,5,1D2U,1.0,False,0.333,22,False,left,0.0,0.0002679999452084,2.247800000011921,2.2475320000667125,1.4644386998843402,1.964867499889806,0.5004288000054657,,DT,0.0007888000054657729
315,0.49964,1.2,1,0.37473,0.35808,0.67451,315,2.47322,0.14,0.06662,0.56626,5,1D1U,1.0,True,0.163,29,False,left,0.0,0.0003064000047743,2.4808845000807196,2.4805781000759453,1.6068043999839574,2.1065571000799537,0.4997527000959962,,DT,0.0001127000959962321
316,0.49964,0.1,1,0.39971,0.19986,0.41637,316,2.12348,0.22,0.10826,0.6079,5,1D1U,2.0,False,0.259,29,True,right,0.0,0.0010327999480068,2.123238400090486,2.122205600142479,1.4150755000300703,1.9151761999819428,0.5001006999518722,,DT,0.00046069995187225654
317,0.49964,1.2,1,0.28313,0.44135,0.48299,317,2.61479,0.82,0.40804,0.90768,5,2D1U,2.0,False,0.109,15,True,right,0.0,0.0007631999906152,2.62340350006707,2.622640300076455,1.6657930000219494,2.165405600098893,0.4996126000769436,,DT,-2.7399923056392606e-05
318,0.49964,0.1,1,0.41637,0.23317,0.40804,318,2.48988,0.86,0.43302,0.93266,5,2D1U,2.0,False,0.225,16,True,right,0.0,0.0007928998675197,2.49874379998073,2.49795090011321,1.748271299991757,2.2481505998875946,0.4998792998958379,,DT,0.00023929989583793
319,0.49964,1.2,1,0.41637,0.2748,0.66619,319,2.12347,-0.46,-0.23317,0.26647,5,1D2U,2.0,True,0.128,23,True,right,0.0,0.0004996000789105,2.123502700123936,2.1230031000450253,1.3407892000395805,1.840018399991095,0.4992291999515146,,DT,-0.00041080004848537133
320,0.49964,0.1,2,0.20818,0.44968,0.51629,320,2.22339,0.1,0.04996,0.5496,5,1D1U,2.0,True,0.429,29,False,right,0.0,0.0002496000379323,2.231422600103542,2.23117300006561,0.1984263001941144,0.6973800000268966,0.4989536998327821,,DT,-0.0006863001672178792
321,0.49964,1.2,2,0.34142,0.23317,0.41637,321,2.43992,0.9,0.44968,0.94932,5,2D1U,2.0,True,0.225,16,False,right,0.0,0.0013969999272376,2.458062699995935,2.4566657000686973,0.3325686999596655,0.8330997999291867,0.5005310999695212,,DT,0.0008910999695211919
322,0.49964,0.1,2,0.35808,0.39971,0.53295,322,2.05685,-0.46,-0.23317,0.26647,5,1D2U,1.0,True,0.286,23,True,left,0.0,0.000577500090003,2.056633499916643,2.05605599982664,0.3478049000259489,0.8484741998836398,0.5006692998576909,,DT,0.0010292998576909573
323,0.49964,1.2,2,0.44135,0.24982,0.89102,323,2.61478,0.06,0.03331,0.53295,5,1D1U,2.0,True,0.348,29,False,right,0.0,0.000293199904263,2.6234204000793397,2.6231272001750767,0.4313008000608533,0.931427399860695,0.5001265997998416,,DT,0.00048659979984166934
324,0.49964,0.1,2,0.2748,0.26647,0.53295,324,2.08183,0.02,0.00833,0.50797,5,1D1U,2.0,True,0.362,29,False,right,0.0,0.0007690999191254,2.0921205000486225,2.091351400129497,0.2668838000390678,0.7667457000352442,0.4998618999961763,,DT,0.0002218999961763335
325,0.49964,1.2,2,0.42469,0.23317,0.84106,325,2.63144,0.26,0.13324,0.63288,5,1D1U,2.0,True,0.258,30,True,right,0.0,0.0007777002174407,2.641647099982947,2.6408693997655064,0.41633339994587,0.9157465999014676,0.4994131999555975,,DT,-0.00022680004440245316
326,0.49964,0.1,2,0.35808,0.34975,0.73281,326,2.43159,-0.02,-0.00833,0.49131,5,1D1U,2.0,False,0.117,29,False,right,0.0,0.0008184001781046,2.440521700074896,2.4397032998967916,0.3479001000523567,0.8486941000446677,0.500793999992311,,DT,0.0011539999923110278
327,0.49964,1.2,2,0.2748,0.24149,0.6412,327,1.94859,-0.42,-0.20818,0.29146,5,1D2U,2.0,False,0.36,24,True,right,0.0,0.0006017000414431,1.9562578999903053,1.9556561999488624,0.2640273999422788,0.7650315999053419,0.501004199963063,,DT,0.0013641999630630286
328,0.49964,0.1,2,0.21651,0.25815,0.84106,328,2.08183,-0.46,-0.23317,0.26647,5,1D2U,2.0,False,0.321,25,True,right,0.0,0.0007038000039756,2.0826071999035776,2.081903399899602,0.2075954000465572,0.7079182998277247,0.5003228997811675,,DT,0.0006828997811675341
329,0.49964,1.2,2,0.28313,0.28313,0.63288,329,2.30668,0.22,0.10826,0.6079,5,1D1U,1.0,False,0.253,31,True,left,0.0,0.0007736999541521,2.3152190998662263,2.314445399912074,0.2748141998890787,0.7739061000756919,0.4990919001866132,,DT,-0.0005480998133867709
330,0.49964,0.1,1,0.2748,0.33309,0.84939,330,2.90624,0.9,0.44968,0.94932,5,2D1U,2.0,False,0.165,16,False,right,0.0,0.0007690999191254,2.9068202001508325,2.906051100231707,2.0655918000265956,2.56647550011985,0.5008837000932544,,DT,0.001243700093254474
331,0.49964,1.2,1,0.28313,0.35808,0.39971,331,1.79038,-0.5,-0.24982,0.24982,5,1D2U,2.0,True,0.276,25,False,right,0.0,0.000775400083512,1.7988825000356885,1.7981070999521762,0.9237677999772133,1.42400459991768,0.5002367999404669,,DT,0.0005967999404669078
332,0.49964,0.1,1,0.44135,0.43302,0.6412,332,2.48154,-0.06,-0.03331,0.46633,5,1D1U,2.0,True,0.574,29,False,right,0.0,0.0007436999585479,2.490570900030434,2.489827200071886,1.5409345999360085,2.0417345000896603,0.5007999001536518,,DT,0.0011599001536518605
333,0.49964,1.2,1,0.3664,0.25815,0.6995,333,2.315,-0.02,-0.00833,0.49131,5,1D1U,2.0,True,0.284,30,True,right,0.0,0.0002580001018941,2.316174300154671,2.315916300052777,1.5498390002176166,2.0492463000118732,0.4994072997942567,,DT,-0.00023270020574328587
334,0.49964,0.1,1,0.35808,0.34142,0.55793,334,2.38995,0.26,0.13324,0.63288,5,1D1U,1.0,True,0.442,32,True,left,0.0,0.0007325001060962,2.3988709000404924,2.398138399934396,1.5420980001799762,2.040329100098461,0.4982310999184847,,DT,-0.0014089000815152852
335,0.49964,1.2,1,0.39138,0.22484,0.49131,335,2.57314,0.94,0.46633,0.96597,5,2D1U,1.0,True,0.356,16,False,left,0.0,0.0007857999298721,2.581802000058815,2.5810162001289427,1.840225399937481,2.339760199887678,0.4995347999501973,,DT,-0.00010520004980268949
336,0.49964,0.1,1,0.35808,0.23317,0.64953,336,2.70639,0.94,0.46633,0.96597,5,2D1U,2.0,False,0.247,16,False,right,0.0,0.0007214997895061,2.7066438000183553,2.705922300228849,1.9654961999040097,2.465540499892086,0.5000442999880761,,DT,0.0004042999880761178
337,0.49964,1.2,1,0.24982,0.38306,0.51629,337,1.89863,-0.5,-0.24982,0.24982,5,1D2U,1.0,False,0.682,25,False,left,0.0,0.0006995000876486,1.8983863000757992,1.8976867999881504,1.0074521000497043,1.5068753000814468,0.4994232000317424,,DT,-0.00021679996825757497
338,0.49964,0.1,1,0.22484,0.37473,0.6412,338,2.24838,0.02,0.00833,0.50797,5,1D1U,1.0,True,0.27,30,False,left,0.0,0.0002800000365823,2.248442000010982,2.2481619999744,1.3651477000676095,1.8646917999722064,0.4995440999045968,,DT,-9.590009540316746e-05
339,0.49964,1.2,1,0.31644,0.25815,0.75779,339,2.43992,0.22,0.10826,0.6079,5,1D1U,1.0,True,0.284,33,True,left,0.0,0.000266500050202,2.4482746000867337,2.4480081000365317,1.6728065002243966,2.1722635000478476,0.499456999823451,,DT,-0.00018300017654898637
340,0.49964,0.1,2,0.19986,0.43302,0.68284,340,2.4066,0.18,0.0916,0.59124,5,1D1U,1.0,False,0.554,33,False,left,0.0,0.0002516000531613,2.414980200119317,2.414728600066155,0.1888037000317126,0.6889879999216646,0.5001842998899519,,DT,0.0005442998899519713
341,0.49964,1.2,2,0.44135,0.31644,0.78277,341,2.53151,-0.02,-0.00833,0.49131,5,1D1U,1.0,True,0.459,31,True,left,0.0,0.000377400079742,2.541341699892655,2.540964299812913,0.4317784998565912,0.9324957998469472,0.500717299990356,,DT,0.0010772999903559954
342,0.49964,0.1,2,0.34975,0.3664,0.86604,342,2.315,-0.54,-0.26647,0.23317,5,1D2U,1.0,True,0.421,25,False,left,0.0,0.0002687999513,2.324061900144443,2.323793100193143,0.3409607000648975,0.8409447001758963,0.4999840001109987,,DT,0.0003440001109987212
343,0.49964,1.2,2,0.31644,0.33309,0.81608,343,2.57315,0.22,0.10826,0.6079,5,1D1U,1.0,False,0.3,34,True,left,0.0,0.0007329999934881,2.5821651997976005,2.5814321998041123,0.3069799998775124,0.8074227999895811,0.5004428001120687,,DT,0.0008028001120686801
344,0.49964,0.1,2,0.24982,0.24149,0.61622,344,2.59812,0.98,0.49131,0.99095,5,2D1U,2.0,True,0.111,16,False,right,0.0,0.0007493000011891,2.6077481999527663,2.606998899951577,0.2400873999577015,0.7420294999610633,0.5019421000033617,,DT,0.002302100003361729
345,0.49964,1.2,2,0.31644,0.29146,0.8827,345,2.49821,0.02,0.00833,0.50797,5,1D1U,2.0,True,0.463,32,True,right,0.0,0.0007744999602437,2.499516499927267,2.4987419999670237,0.3082117000594735,0.8084422999527305,0.500230599893257,,DT,0.0005905998932570489
346,0.49964,0.1,2,0.26647,0.31644,0.41637,346,1.99023,-0.02,-0.00833,0.49131,5,1D1U,2.0,False,0.3,33,True,right,0.0,0.001438400009647,2.007156000006944,2.005717599997297,0.2571296000387519,0.7577345001045614,0.5006049000658095,,DT,0.0009649000658095153
347,0.49964,1.2,2,0.44968,0.24149,0.73281,347,2.15679,-0.54,-0.26647,0.23317,5,1D2U,1.0,True,0.302,25,False,left,0.0,0.0007789998780936,2.1661727000027895,2.165393700124696,0.4430182999931276,0.941247000126168,0.4982287001330405,,DT,-0.0014112998669594812
348,0.49964,0.1,2,0.42469,0.19986,0.6412,348,2.01521,-0.5,-0.24982,0.24982,5,1D2U,1.0,True,0.251,26,True,left,0.0,0.0007547000423073,2.023886499926448,2.0231317998841405,0.414617900038138,0.9139906000345944,0.4993726999964565,,DT,-0.00026730000354346917
349,0.49964,1.2,2,0.26647,0.31644,0.63288,349,2.70638,0.98,0.49131,0.99095,5,2D1U,2.0,True,0.176,16,False,right,0.0,0.0004883001092821,2.706800299929455,2.706311999820173,0.2577579999342561,0.7575523999985307,0.4997944000642746,,DT,0.00015440006427464015
350,0.49964,0.1,1,0.41637,0.28313,0.58291,350,2.41493,0.26,0.13324,0.63288,5,1D1U,2.0,False,0.398,34,False,right,0.0,0.0003401997964829,2.425131999887526,2.424791800091043,1.6247051998507231,2.123816799838096,0.4991115999873727,,DT,-0.0005284000126272725
351,0.49964,1.2,1,0.29146,0.34975,0.85771,351,2.46489,-0.06,-0.03331,0.46633,5,1D1U,2.0,True,1.228,33,False,right,0.0,0.0007423001807183,2.4742980001028627,2.4735556999221444,1.6079013000708071,2.107696000020951,0.4997946999501437,,DT,0.00015469995014372184
352,0.49964,0.1,1,0.2748,0.32477,0.74946,352,2.4982,0.3,0.14989,0.64953,5,1D1U,2.0,False,0.238,34,False,right,0.0,0.0007672999054193,2.4982376999687403,2.497470400063321,1.6650350999552757,2.1653657001443207,0.5003306001890451,,DT,0.0006906001890450986
353,0.49964,1.2,1,0.24982,0.21651,0.55793,353,2.48987,0.94,0.46633,0.96597,5,2D1U,1.0,True,0.242,17,True,left,0.0,0.0002705000806599,2.4984997999854386,2.4982292999047786,1.764451100025326,2.2644724000710994,0.5000213000457734,,DT,0.0003813000457734139
354,0.49964,0.1,1,0.33309,0.29146,0.81608,354,2.90624,0.94,0.46633,0.96597,5,2D1U,1.0,True,0.188,17,True,left,0.0,0.0007740000728517,2.908339200075716,2.907565200002864,2.1086893000174314,2.608430700143799,0.4997414001263678,,DT,0.00010140012636783435
355,0.49964,1.2,1,0.32477,0.44135,0.73281,355,2.24839,-0.5,-0.24982,0.24982,5,1D2U,2.0,True,0.113,26,True,right,0.0,0.0002492999192327,2.2490243001375347,2.248775000218302,1.2985733000095934,1.7994850999675691,0.5009117999579757,,DT,0.0012717999579757722
356,0.49964,0.1,1,0.23317,0.35808,0.64953,356,2.40661,0.34,0.16655,0.66619,5,1D1U,1.0,True,0.138,34,False,left,0.0,0.0004318000283092,2.4180660999845713,2.417634299956262,1.541888999985531,2.042250399943441,0.5003613999579102,,DT,0.0007213999579102071
357,0.49964,1.2,1,0.29146,0.20818,0.51629,357,1.78204,-0.46,-0.23317,0.26647,5,1D2U,2.0,True,0.265,26,False,right,0.0,0.0007575000636279,1.7902264001313597,1.7894689000677315,1.065647300099954,1.5656240000389516,0.4999766999389976,,DT,0.00033669993899765327
358,0.49964,0.1,1,0.28313,0.26647,0.59957,358,2.59813,0.9,0.44968,0.94932,5,2D1U,1.0,True,0.141,17,False,left,0.0,0.0005038001108914,2.598794599995017,2.5982907998841256,1.8230554000474513,2.3235625000670552,0.500507100019604,,DT,0.0008671000196039946
359,0.49964,1.2,1,0.42469,0.44135,0.54128,359,2.85628,0.9,0.44968,0.94932,5,2D1U,2.0,False,0.402,17,False,right,0.0,0.0004074000753462,2.8583208001218736,2.8579134000465274,1.9082432999275625,2.4077016999945045,0.499458400066942,,DT,-0.0001815999330579965
360,0.49964,0.1,2,0.22484,0.32477,0.7911,360,2.33166,-0.02,-0.00833,0.49131,5,1D1U,1.0,True,0.48,34,True,left,0.0,0.0007329999934881,2.33989330008626,2.3391603000927716,0.2156499000266194,0.7157531001139432,0.5001032000873238,,DT,0.0004632000873238118
361,0.49964,1.2,2,0.24149,0.44135,0.80775,361,2.9562,0.94,0.46633,0.96597,5,2D1U,1.0,False,0.109,18,True,left,0.0,0.0003219000063836,2.957169499946758,2.9568475999403745,0.2312046999577433,0.7323749999050051,0.5011702999472618,,DT,0.0015302999472618373
362,0.49964,0.1,2,0.37473,0.34142,0.83273,362,2.31499,-0.46,-0.23317,0.26647,5,1D2U,1.0,True,0.389,26,False,left,0.0,0.0008167000487446,2.315323199843988,2.314506499795243,0.3662639998365193,0.8661684000398964,0.499904400203377,,DT,0.0002644002033770354
363,0.49964,1.2,2,0.26647,0.35808,0.86604,363,2.4982,0.02,0.00833,0.50797,5,1D1U,2.0,True,0.304,34,False,right,0.0,0.0007742999587208,2.4980772000271827,2.497302900068462,0.2563628999050706,0.7566037001088262,0.5002408002037555,,DT,0.0006008002037555249
364,0.49964,0.1,2,0.37473,0.26647,0.63288,364,2.42325,0.3,0.14989,0.64953,5,1D1U,2.0,True,0.305,35,True,right,0.0,0.0007346998900175,2.431691400008276,2.4309567001182586,0.3643825999461114,0.8640256999060512,0.4996430999599397,,DT,3.0999599397452116e-06
365,0.49964,1.2,2,0.40804,0.35808,0.51629,365,2.773,0.98,0.49131,0.99095,5,2D1U,2.0,True,0.143,18,False,right,0.0,0.0006613000296056,2.774219100130722,2.7735578001011163,0.3985048001632094,0.8981678001582623,0.4996629999950528,,DT,2.299999505284145e-05
366,0.49964,0.1,2,0.31644,0.33309,0.41637,366,2.05685,-0.02,-0.00833,0.49131,5,1D1U,2.0,False,0.333,35,True,right,0.0,0.0004829000681638,2.0558836001437157,2.055400700075552,0.3056425000540912,0.8068844999652356,0.5012419999111444,,DT,0.0016019999111444028
367,0.49964,1.2,2,0.43302,0.44135,0.68284,367,2.34831,-0.42,-0.20818,0.29146,5,1D2U,1.0,True,0.145,26,False,left,0.0,0.0006719999946653,2.3492701000068337,2.3485981000121683,0.4238640000112355,0.9240880999714136,0.5002240999601781,,DT,0.0005840999601781638
368,0.49964,0.1,2,0.2748,0.44135,0.56626,368,2.41493,0.26,0.13324,0.63288,5,1D1U,2.0,True,0.305,35,False,right,0.0,0.0006562999915331,2.424265200039372,2.4236089000478387,0.2649995998945087,0.7657451999839395,0.5007456000894308,,DT,0.001105600089430836
369,0.49964,1.2,2,0.22484,0.41637,0.66619,369,2.41494,0.22,0.10826,0.6079,5,1D1U,2.0,True,0.328,35,False,right,0.0,0.0007744999602437,2.4146658999379724,2.4138913999777287,0.2148134000599384,0.7148293999489397,0.5000159998890013,,DT,0.00037599988900127723
370,0.49964,0.1,1,0.40804,0.39138,0.73281,370,3.02282,0.98,0.49131,0.99095,5,2D1U,1.0,True,0.224,18,False,left,0.0,0.0007730999495834,3.0307887999806553,3.030015700031072,2.1222316999919713,2.622358299791813,0.5001265997998416,,DT,0.00048659979984166934
371,0.49964,1.2,1,0.22484,0.30811,0.41637,371,2.0402,0.18,0.0916,0.59124,5,1D1U,1.0,True,0.35,35,False,left,0.0,0.0002789001446217,2.0500316000543535,2.0497526999097317,1.2239810000173748,1.7238324999343604,0.4998514999169856,,DT,0.00021149991698560244
372,0.49964,0.1,1,0.43302,0.34975,0.8827,372,2.63144,-0.06,-0.03331,0.46633,5,1D1U,2.0,True,0.717,35,False,right,0.0,0.0008471999317407,2.647783000022173,2.646935800090432,1.773231599945575,2.272748799994588,0.4995172000490129,,DT,-0.00012279995098707364
373,0.49964,1.2,1,0.37473,0.31644,0.53295,373,2.21507,-0.02,-0.00833,0.49131,5,1D1U,2.0,True,0.272,36,True,right,0.0,0.0007688000332564,2.215863000135869,2.2150942001026124,1.390665800077841,1.890119300223887,0.4994535001460463,,DT,-0.00018649985395369217
374,0.49964,0.1,1,0.39138,0.3664,0.57459,374,2.79798,0.94,0.46633,0.96597,5,2D1U,2.0,False,0.455,19,True,right,0.0,0.0008128001354634,2.7984827999025583,2.797669999767095,1.9232318999711424,2.4230009000748396,0.4997690001036972,,DT,0.0001290001036972077
375,0.49964,1.2,1,0.23317,0.35808,0.50797,375,2.58981,0.98,0.49131,0.99095,5,2D1U,1.0,True,0.223,20,True,left,0.0,0.0007699998095631,2.599451000103727,2.598681000294164,1.7233307000715286,2.223221000051126,0.4998902999795973,,DT,0.00025029997959730155
376,0.49964,0.1,1,0.24982,0.29146,0.44135,376,2.47322,0.98,0.49131,0.99095,5,2D1U,1.0,True,0.213,20,True,left,0.0,0.0008113000076264,2.483153000008315,2.4823417000006884,1.6743401000276208,2.1740522000472993,0.4997121000196785,,DT,7.210001967850044e-05
377,0.49964,1.2,1,0.21651,0.41637,0.58291,377,2.6814,0.94,0.46633,0.96597,5,2D1U,1.0,True,0.341,21,True,left,0.0,0.0008002999238669,2.6889984998852015,2.6881981999613345,1.7559843000490218,2.2572069000452757,0.5012225999962538,,DT,0.001582599996253875
378,0.49964,0.1,1,0.24149,0.39138,0.5496,378,2.64808,0.94,0.46633,0.96597,5,2D1U,1.0,True,0.487,21,True,left,0.0,0.0007488999981433,2.657795200124383,2.6570463001262397,1.748646100051701,2.2482511000707746,0.4996050000190735,,DT,-3.499998092648671e-05
379,0.49964,1.2,1,0.19986,0.25815,0.61622,379,2.14013,0.14,0.06662,0.56626,5,1D1U,1.0,True,0.34,35,False,left,0.0,0.0004783999174833,2.1492123999632895,2.148734000045806,1.3731994000263512,1.8739569000899792,0.500757500063628,,DT,0.0011175000636279853
380,0.49964,0.1,2,0.39138,0.33309,0.69117,380,2.42325,0.02,0.00833,0.50797,5,1D1U,1.0,False,0.112,36,False,left,0.0,0.0007730000652372,2.4313030999619514,2.430530099896714,0.3810159000568092,0.8808500999584794,0.4998341999016702,,DT,0.00019419990167024448
381,0.49964,1.2,2,0.21651,0.34975,0.70782,381,2.30667,0.06,0.03331,0.53295,5,1D1U,2.0,True,0.27,36,False,right,0.0,0.0005835001356899,2.306772299809382,2.3061887996736914,0.2063086999114602,0.7071624000091106,0.5008537000976503,,DT,0.0012137000976503165
382,0.49964,0.1,2,0.40804,0.3664,0.49131,382,2.27336,0.02,0.00833,0.50797,5,1D1U,1.0,False,0.433,37,True,left,0.0,0.0007342000026255,2.2816055000294,2.2808713000267744,0.3977222999092191,0.8984894999302924,0.5007672000210732,,DT,0.0011272000210732491
383,0.49964,1.2,2,0.28313,0.25815,0.49131,383,2.06518,0.06,0.03331,0.53295,5,1D1U,1.0,False,0.113,38,True,left,0.0,0.0007652000058442,2.0744553001131862,2.073690100107342,0.2738812000025064,0.7728726000059396,0.4989914000034332,,DT,-0.0006485999965667455
384,0.49964,0.1,2,0.44968,0.39138,0.80775,384,2.69805,0.1,0.04996,0.5496,5,1D1U,2.0,True,0.279,35,False,right,0.0,0.0002786999102681,2.691050000023097,2.6907713001128286,0.4411555000115186,0.9401647001504898,0.4990092001389712,,DT,-0.0006307998610287635
385,0.49964,1.2,2,0.33309,0.25815,0.86604,385,2.48987,0.06,0.03331,0.53295,5,1D1U,1.0,False,0.184,35,False,left,0.0,0.0002821001689881,2.4983432998415083,2.49806119967252,0.3243836998008191,0.8245283998548985,0.5001447000540793,,DT,0.0005047000540793212
386,0.49964,0.1,2,0.43302,0.34975,0.46633,386,2.29834,0.1,0.04996,0.5496,5,1D1U,1.0,False,0.628,36,True,left,0.0,0.0002576999831944,2.2984517998993397,2.298194099916145,0.4235369998496026,0.9229735999833792,0.4994366001337766,,DT,-0.0002033998662233638
387,0.49964,1.2,2,0.2748,0.29146,0.67451,387,2.30667,0.14,0.06662,0.56626,5,1D1U,2.0,True,0.278,36,False,right,0.0,0.0007371001411229,2.3070902000181377,2.3063530998770148,0.266069799894467,0.7651473998557776,0.4990775999613106,,DT,-0.000562400038689348
388,0.49964,0.1,2,0.24149,0.29978,0.73281,388,2.32332,0.1,0.04996,0.5496,5,1D1U,2.0,True,0.276,37,True,right,0.0,0.0007498001214116,2.331157400039956,2.3304075999185443,0.2306921000126749,0.7316691000014544,0.5009769999887794,,DT,0.0013369999887794526
0,0.50258,0.1,2,0.41881,0.29317,0.51933,0,2.68041,0.9,0.45232,0.94652,5,lapse_rate,2.0,True,0.213,0,False,right,0.0,0.0002983002923429,2.696996800135821,2.696698499843478,0.4053197000175714,0.905487600248307,0.5001679002307355,,oy,-0.0024120997692644863
1,0.50258,1.2,2,0.25129,0.25129,0.51095,1,1.66688,-0.7,-0.3518,0.15077,5,1U1D,1.0,True,1.358,0,False,left,0.0,0.0002608997747302,1.673657899722457,1.6733969999477267,0.2402741000987589,0.7403858001343906,0.5001117000356317,,oy,-0.00246829996436837
2,0.50258,0.1,2,0.30992,0.34343,0.86276,2,2.86469,0.7,0.3518,0.846,5,1D1U,2.0,True,31.279,0,False,right,0.0,0.0007334998808801,2.857196500059217,2.856463000178337,0.2987219998613,0.7978953998535872,0.4991733999922871,,oy,-0.0034066000077129233
3,0.50258,1.2,2,0.26804,0.44394,0.73711,3,2.79767,0.7,0.3518,0.846,5,2D1U,2.0,True,0.342,0,False,right,0.0,0.0003013997338712,2.815245300065726,2.814943900331855,0.2565322001464665,0.7562938001938164,0.4997616000473499,,oy,-0.0028183999526501524
