Unnamed: 0,standardDur,audNoise,order,preDur,postDur,isiDur,trial_num,total_audio_dur,delta_dur_percents,deltaDurS,testDurS,intensities,current_stair,responses,is_correct,response_rts,stair_num_reversal,stair_is_reversal,response_keys,participantID,,,,,,,,,
0,0.5,99,2,0.3833,0.2667,0.7333,0,1.9333,-0.9,-0.45,0.05,5,2D1U,1,TRUE,0.676,0,FALSE,left,as,,,,,,,,,
1,0.5,99,2,0.2167,0.2833,0.6833,1,1.7333,-0.9,-0.45,0.05,5,3D1U,1,TRUE,0.8,0,FALSE,left,as,,,,,,,,,
2,0.5,99,2,0.3333,0.4333,0.5667,2,1.9666,-0.74,-0.3667,0.1333,5,2D1U,2,FALSE,0.875,0,FALSE,right,as,,,,,,,,,
3,0.5,99,1,0.25,0.3833,0.6833,3,2.7166,0.8,0.4,0.9,5,lapse_rate,1,TRUE,1.067,0,FALSE,left,as,,,,,,,,,
4,0.5,99,2,0.4333,0.2333,0.4667,4,1.7666,-0.74,-0.3667,0.1333,5,3D1U,1,TRUE,1.375,0,FALSE,left,as,,,,,,,,,
5,0.5,99,1,0.3333,0.2167,0.85,5,1.95,-0.9,-0.45,0.05,5,1D3U,1,FALSE,1.016,0,FALSE,left,as,,,,,,,,,
6,0.5,99,1,0.2333,0.2167,0.9,6,1.9,-0.9,-0.45,0.05,5,1D2U,2,TRUE,0.434,0,FALSE,right,as,,,,,,,,,
7,0.5,99,2,0.3833,0.25,0.5833,7,1.7666,-0.9,-0.45,0.05,5,1D2U,1,TRUE,0.883,0,FALSE,left,as,,,,,,,,,
8,0.5,99,1,0.4333,0.35,0.6333,8,2.8166,0.8,0.4,0.9,5,lapse_rate,1,TRUE,0.417,0,FALSE,left,as,,,,,,,,,
9,0.5,99,1,0.2667,0.3667,0.8167,9,2.0001,-0.9,-0.45,0.05,5,1D3U,2,TRUE,0.425,0,FALSE,right,as,,,,,,,,,
10,0.5,99,1,0.3,0.25,0.4167,10,1.6834,-0.58,-0.2833,0.2167,5,3D1U,1,FALSE,0.741,0,FALSE,left,as,,,,,,,,,
11,0.5,99,2,0.2,0.3333,0.4333,11,1.5999,-0.74,-0.3667,0.1333,5,2D1U,1,TRUE,0.6,0,FALSE,left,as,,,,,,,,,
12,0.5,99,2,0.3167,0.2,0.6,12,1.75,-0.74,-0.3667,0.1333,5,1D2U,1,TRUE,0.717,0,FALSE,left,as,,,,,,,,,
13,0.5,99,1,0.45,0.3167,0.65,13,2.0167,-0.8,-0.4,0.1,5,lapse_rate,2,TRUE,0.458,0,FALSE,right,as,,,,,,,,,
14,0.5,99,1,0.4167,0.45,0.8167,14,2.4001,-0.58,-0.2833,0.2167,5,3D1U,2,TRUE,0.65,0,FALSE,right,as,,,,,,,,,
15,0.5,99,2,0.4,0.2,0.8333,15,2.15,-0.58,-0.2833,0.2167,5,2D1U,1,TRUE,0.691,0,FALSE,left,as,,,,,,,,,
16,0.5,99,2,0.4167,0.3833,0.7333,16,2.0833,-0.9,-0.45,0.05,5,1D3U,1,TRUE,0.624,0,FALSE,left,as,,,,,,,,,
17,0.5,99,2,0.3833,0.45,0.9,17,3.1333,0.8,0.4,0.9,5,lapse_rate,2,TRUE,0.467,0,FALSE,right,as,,,,,,,,,
18,0.5,99,1,0.25,0.2,0.65,18,1.65,-0.9,-0.45,0.05,5,1D3U,2,TRUE,0.499,0,FALSE,right,as,,,,,,,,,
19,0.5,99,2,0.3833,0.4167,0.6833,19,2.1166,-0.74,-0.3667,0.1333,5,1D2U,1,TRUE,0.407,0,FALSE,left,as,,,,,,,,,
20,0.5,99,1,0.3333,0.2667,0.6167,20,2,-0.42,-0.2167,0.2833,5,3D1U,2,TRUE,0.458,0,FALSE,right,as,,,,,,,,,
21,0.5,99,2,0.3167,0.4167,0.7,21,2.2167,-0.42,-0.2167,0.2833,5,2D1U,2,FALSE,0.708,0,FALSE,right,as,,,,,,,,,
22,0.5,99,1,0.3667,0.4,0.7333,22,2.3667,-0.26,-0.1333,0.3667,5,3D1U,2,TRUE,0.716,0,FALSE,right,as,,,,,,,,,
23,0.5,99,1,0.3,0.3167,0.7667,23,1.9667,-0.82,-0.4167,0.0833,5,1D3U,2,TRUE,0.618,1,TRUE,right,as,,,,,,,,,
24,0.5,99,2,0.2667,0.45,0.7333,24,2.05,-0.8,-0.4,0.1,5,lapse_rate,2,FALSE,0.65,0,FALSE,right,as,,,,,,,,,
25,0.5,99,1,0.2667,0.2333,0.7333,25,1.95,-0.58,-0.2833,0.2167,5,1D2U,2,TRUE,1.708,0,FALSE,right,as,,,,,,,,,
26,0.5,99,1,0.3167,0.3,0.6833,26,2.0833,-0.42,-0.2167,0.2833,5,2D1U,2,TRUE,1.691,0,FALSE,right,as,,,,,,,,,
27,0.5,99,1,0.4167,0.4167,0.7667,27,2.1834,-0.82,-0.4167,0.0833,5,1D3U,2,TRUE,0.492,1,TRUE,right,as,,,,,,,,,
28,0.5,99,1,0.3167,0.2333,0.5,28,2,-0.1,-0.05,0.45,5,3D1U,1,FALSE,1.083,0,FALSE,left,as,,,,,,,,,
29,0.5,99,1,0.3333,0.45,0.4167,29,1.9167,-0.58,-0.2833,0.2167,5,1D2U,2,TRUE,1.159,0,FALSE,right,as,,,,,,,,,
30,0.5,99,2,0.4333,0.2333,0.7,30,1.9666,-0.8,-0.4,0.1,5,lapse_rate,1,TRUE,0.508,0,FALSE,left,as,,,,,,,,,
31,0.5,99,2,0.35,0.2833,0.8667,31,2.3667,-0.26,-0.1333,0.3667,5,2D1U,2,FALSE,0.367,0,FALSE,right,as,,,,,,,,,
32,0.5,99,2,0.3167,0.4333,0.5167,32,1.8667,-0.8,-0.4,0.1,5,lapse_rate,1,TRUE,0.391,0,FALSE,left,as,,,,,,,,,
33,0.5,99,1,0.25,0.2667,0.6667,33,2.0501,-0.26,-0.1333,0.3667,5,2D1U,2,TRUE,1.608,0,FALSE,right,as,,,,,,,,,
34,0.5,99,1,0.2667,0.2833,0.85,34,2.1833,-0.42,-0.2167,0.2833,5,1D2U,1,FALSE,1.509,0,FALSE,left,as,,,,,,,,,
35,0.5,99,2,0.2167,0.4,0.8833,35,2.45,-0.1,-0.05,0.45,5,3D1U,2,FALSE,2.425,0,FALSE,right,as,,,,,,,,,
36,0.5,99,2,0.4333,0.2333,0.55,36,1.7999,-0.82,-0.4167,0.0833,5,1D3U,1,TRUE,0.626,1,TRUE,left,as,,,,,,,,,
37,0.5,99,2,0.3667,0.45,0.6667,37,2.4334,-0.1,-0.05,0.45,5,2D1U,1,TRUE,0.492,0,FALSE,left,as,,,,,,,,,
38,0.5,99,2,0.3833,0.2333,0.55,38,1.9166,-0.5,-0.25,0.25,5,1D2U,1,TRUE,0.708,1,TRUE,left,as,,,,,,,,,
39,0.5,99,1,0.3667,0.35,0.55,39,1.8667,-0.8,-0.4,0.1,5,lapse_rate,2,TRUE,0.467,0,FALSE,right,as,,,,,,,,,
40,0.5,99,2,0.3,0.3167,0.7,40,2.2667,-0.1,-0.05,0.45,5,3D1U,1,TRUE,0.858,0,FALSE,left,as,,,,,,,,,
41,0.5,99,2,0.2667,0.2167,0.4333,41,1.55,-0.74,-0.3667,0.1333,5,1D3U,1,TRUE,0.758,1,FALSE,left,as,,,,,,,,,
42,0.5,99,2,0.3,0.3667,0.8333,42,2.25,-0.5,-0.25,0.25,5,1D2U,1,TRUE,2.083,1,TRUE,left,as,,,,,,,,,
43,0.5,99,2,0.3667,0.25,0.4167,43,1.6667,-0.74,-0.3667,0.1333,5,1D3U,1,TRUE,0.625,1,FALSE,left,as,,,,,,,,,
44,0.5,99,2,0.45,0.2667,0.6167,44,2.3667,0.06,0.0333,0.5333,5,2D1U,2,TRUE,0.783,0,FALSE,right,as,,,,,,,,,
45,0.5,99,1,0.25,0.4,0.7,45,2.3833,0.06,0.0333,0.5333,5,3D1U,2,FALSE,0.7,0,FALSE,right,as,,,,,,,,,
46,0.5,99,2,0.3167,0.3667,0.5167,46,2.6001,0.8,0.4,0.9,5,lapse_rate,2,TRUE,0.483,0,FALSE,right,as,,,,,,,,,
47,0.5,99,1,0.4,0.2833,0.45,47,2.1666,0.06,0.0333,0.5333,5,2D1U,1,TRUE,0.525,0,FALSE,left,as,,,,,,,,,
48,0.5,99,2,0.2333,0.4333,0.8667,48,2.65,0.22,0.1167,0.6167,5,3D1U,2,TRUE,0.783,0,FALSE,right,as,,,,,,,,,
49,0.5,99,2,0.3167,0.3667,0.5,49,2.5834,0.8,0.4,0.9,5,lapse_rate,2,TRUE,0.45,0,FALSE,right,as,,,,,,,,,
50,0.5,99,2,0.2167,0.2667,0.45,50,1.5667,-0.74,-0.3667,0.1333,5,1D3U,1,TRUE,0.616,1,FALSE,left,as,,,,,,,,,
51,0.5,99,1,0.3667,0.2833,0.85,51,2.2667,-0.46,-0.2333,0.2667,5,1D2U,2,TRUE,0.607,2,TRUE,right,as,,,,,,,,,
52,0.5,99,1,0.2333,0.2167,0.8667,52,1.9167,-0.8,-0.4,0.1,5,lapse_rate,2,TRUE,0.449,0,FALSE,right,as,,,,,,,,,
53,0.5,99,2,0.4333,0.2333,0.6667,53,2.3166,-0.02,-0.0167,0.4833,5,2D1U,2,FALSE,0.559,1,TRUE,right,as,,,,,,,,,
54,0.5,99,2,0.35,0.3,0.5,54,1.9167,-0.46,-0.2333,0.2667,5,1D2U,2,FALSE,0.792,2,TRUE,right,as,,,,,,,,,
55,0.5,99,2,0.25,0.3667,0.65,55,2.3834,0.22,0.1167,0.6167,5,3D1U,2,TRUE,0.617,0,FALSE,right,as,,,,,,,,,
56,0.5,99,2,0.3333,0.25,0.65,56,1.9,-0.66,-0.3333,0.1667,5,1D3U,1,TRUE,0.574,1,FALSE,left,as,,,,,,,,,
57,0.5,99,2,0.4167,0.35,0.4,57,1.8334,-0.66,-0.3333,0.1667,5,1D3U,1,TRUE,0.467,1,FALSE,left,as,,,,,,,,,
58,0.5,99,1,0.3833,0.2833,0.8667,58,2.65,0.22,0.1167,0.6167,5,3D1U,1,TRUE,0.85,0,FALSE,left,as,,,,,,,,,
59,0.5,99,1,0.2333,0.3833,0.7333,59,2.0999,-0.5,-0.25,0.25,5,1D2U,2,TRUE,0.392,3,TRUE,right,as,,,,,,,,,
60,0.5,99,2,0.2833,0.3,0.5167,60,2.0833,-0.02,-0.0167,0.4833,5,2D1U,2,FALSE,0.659,1,TRUE,right,as,,,,,,,,,
61,0.5,99,2,0.2167,0.35,0.9,61,2.8667,0.8,0.4,0.9,5,lapse_rate,2,TRUE,0.534,0,FALSE,right,as,,,,,,,,,
62,0.5,99,2,0.4167,0.25,0.8167,62,2.4334,-0.1,-0.05,0.45,5,2D1U,2,FALSE,0.916,1,FALSE,right,as,,,,,,,,,
63,0.5,99,2,0.4167,0.4,0.6833,63,2.25,-0.5,-0.25,0.25,5,1D2U,1,TRUE,0.392,3,TRUE,left,as,,,,,,,,,
64,0.5,99,1,0.3667,0.3167,0.9,64,2.9834,0.8,0.4,0.9,5,lapse_rate,1,TRUE,0.792,0,FALSE,left,as,,,,,,,,,
65,0.5,99,1,0.4,0.3667,0.5833,65,2.4167,0.14,0.0667,0.5667,5,3D1U,1,TRUE,0.525,1,TRUE,left,as,,,,,,,,,
66,0.5,99,1,0.2333,0.2,0.6667,66,1.7667,-0.66,-0.3333,0.1667,5,1D3U,2,TRUE,0.367,1,FALSE,right,as,,,,,,,,,
67,0.5,99,1,0.4,0.2667,0.8667,67,2.3001,-0.46,-0.2333,0.2667,5,1D2U,2,TRUE,0.392,4,TRUE,right,as,,,,,,,,,
68,0.5,99,1,0.35,0.2833,0.5,68,2.2,0.14,0.0667,0.5667,5,3D1U,2,FALSE,0.609,1,TRUE,right,as,,,,,,,,,
69,0.5,99,2,0.3167,0.45,0.6,69,2.0834,-0.58,-0.2833,0.2167,5,1D3U,1,TRUE,0.583,1,FALSE,left,as,,,,,,,,,
70,0.5,99,2,0.2,0.3167,0.85,70,2.3167,-0.1,-0.05,0.45,5,2D1U,1,TRUE,1.633,1,FALSE,left,as,,,,,,,,,
71,0.5,99,2,0.25,0.35,0.6833,71,1.8833,-0.8,-0.4,0.1,5,lapse_rate,1,TRUE,0.684,0,FALSE,left,as,,,,,,,,,
72,0.5,99,1,0.2167,0.3833,0.7167,72,2.2834,-0.06,-0.0333,0.4667,5,2D1U,1,FALSE,0.458,2,TRUE,left,as,,,,,,,,,
73,0.5,99,1,0.45,0.3167,0.8167,73,2.3501,-0.46,-0.2333,0.2667,5,1D2U,1,FALSE,0.576,4,TRUE,left,as,,,,,,,,,
74,0.5,99,2,0.2167,0.4333,0.8667,74,2.2667,-0.5,-0.25,0.25,5,1D2U,1,TRUE,0.683,5,TRUE,left,as,,,,,,,,,
75,0.5,99,2,0.3667,0.2333,0.4667,75,1.7834,-0.58,-0.2833,0.2167,5,1D3U,1,TRUE,0.708,1,FALSE,left,as,,,,,,,,,
76,0.5,99,1,0.45,0.2167,0.45,76,2.2,0.18,0.0833,0.5833,5,3D1U,2,FALSE,0.525,2,TRUE,right,as,,,,,,,,,
77,0.5,99,1,0.2667,0.2833,0.5833,77,2.1,-0.06,-0.0333,0.4667,5,2D1U,2,TRUE,1.258,2,TRUE,right,as,,,,,,,,,
78,0.5,99,2,0.3167,0.35,0.8833,78,2.6667,0.22,0.1167,0.6167,5,3D1U,2,TRUE,0.483,2,FALSE,right,as,,,,,,,,,
79,0.5,99,2,0.35,0.4167,0.55,79,2.0334,-0.58,-0.2833,0.2167,5,1D3U,1,TRUE,0.425,1,FALSE,left,as,,,,,,,,,
80,0.5,99,2,0.3667,0.2167,0.8667,80,2.2001,-0.5,-0.25,0.25,5,1D3U,2,FALSE,0.549,1,FALSE,right,as,,,,,,,,,
81,0.5,99,2,0.4333,0.3,0.85,81,2.3333,-0.5,-0.25,0.25,5,1D2U,2,FALSE,1.176,5,TRUE,right,as,,,,,,,,,
82,0.5,99,1,0.2667,0.2833,0.8,82,2.0833,-0.54,-0.2667,0.2333,5,1D2U,2,TRUE,0.675,5,FALSE,right,as,,,,,,,,,
83,0.5,99,2,0.35,0.3667,0.7333,83,2.1833,-0.54,-0.2667,0.2333,5,1D2U,2,FALSE,0.55,5,FALSE,right,as,,,,,,,,,
84,0.5,99,1,0.4333,0.3,0.4167,84,2.2667,0.22,0.1167,0.6167,5,3D1U,1,TRUE,0.617,2,FALSE,left,as,,,,,,,,,
85,0.5,99,1,0.2167,0.3,0.5167,85,1.7667,-0.54,-0.2667,0.2333,5,1D3U,2,TRUE,0.833,2,TRUE,right,as,,,,,,,,,
86,0.5,99,2,0.35,0.4333,0.65,86,2.4166,-0.02,-0.0167,0.4833,5,2D1U,2,FALSE,0.65,2,FALSE,right,as,,,,,,,,,
87,0.5,99,1,0.2833,0.4167,0.6333,87,2.05,-0.58,-0.2833,0.2167,5,1D2U,2,TRUE,0.8,5,FALSE,right,as,,,,,,,,,
88,0.5,99,1,0.2833,0.2667,0.8833,88,2.55,0.22,0.1167,0.6167,5,3D1U,2,FALSE,0.517,2,FALSE,right,as,,,,,,,,,
89,0.5,99,2,0.3,0.4,0.75,89,2.4333,-0.02,-0.0167,0.4833,5,2D1U,2,FALSE,0.649,2,FALSE,right,as,,,,,,,,,
90,0.5,99,1,0.3333,0.4,0.8333,90,2.5333,-0.06,-0.0333,0.4667,5,2D1U,1,FALSE,0.933,3,TRUE,left,as,,,,,,,,,
91,0.5,99,2,0.2833,0.4167,0.8333,91,2.2666,-0.54,-0.2667,0.2333,5,1D3U,1,TRUE,0.425,2,TRUE,left,as,,,,,,,,,
92,0.5,99,2,0.4333,0.2333,0.5333,92,2.1666,-0.06,-0.0333,0.4667,5,2D1U,1,TRUE,0.491,3,TRUE,left,as,,,,,,,,,
93,0.5,99,1,0.3833,0.3833,0.5833,93,2.3332,-0.02,-0.0167,0.4833,5,2D1U,1,FALSE,0.626,4,TRUE,left,as,,,,,,,,,
94,0.5,99,1,0.2833,0.2333,0.5167,94,1.75,-0.58,-0.2833,0.2167,5,1D2U,2,TRUE,0.417,5,FALSE,right,as,,,,,,,,,
95,0.5,99,2,0.2167,0.2833,0.8667,95,2.1,-0.54,-0.2667,0.2333,5,1D3U,1,TRUE,0.584,2,TRUE,left,as,,,,,,,,,
96,0.5,99,1,0.3167,0.3167,0.8833,96,2.65,0.26,0.1333,0.6333,5,3D1U,1,TRUE,0.234,2,FALSE,left,as,,,,,,,,,
97,0.5,99,1,0.2833,0.4333,0.6,97,2.0666,-0.5,-0.25,0.25,5,1D3U,2,TRUE,0.3,3,TRUE,right,as,,,,,,,,,
98,0.5,99,1,0.3,0.2833,0.6667,98,2.3833,0.26,0.1333,0.6333,5,3D1U,1,TRUE,0.434,2,FALSE,left,as,,,,,,,,,
99,0.5,99,1,0.3333,0.2667,0.7667,99,2.1,-0.54,-0.2667,0.2333,5,1D2U,1,FALSE,0.716,6,TRUE,left,as,,,,,,,,,
100,0.5,99,2,0.3667,0.4,0.7,100,2.45,-0.02,-0.0167,0.4833,5,2D1U,2,FALSE,0.425,4,TRUE,right,as,,,,,,,,,
101,0.5,99,1,0.2333,0.2,0.8167,101,2.2167,-0.06,-0.0333,0.4667,5,2D1U,2,TRUE,0.517,5,TRUE,right,as,,,,,,,,,
102,0.5,99,2,0.2167,0.3167,0.85,102,2.1334,-0.5,-0.25,0.25,5,1D3U,1,TRUE,0.634,3,TRUE,left,as,,,,,,,,,
103,0.5,99,1,0.4333,0.45,0.4833,103,2.0833,-0.58,-0.2833,0.2167,5,1D2U,2,TRUE,0.534,7,TRUE,right,as,,,,,,,,,
104,0.5,99,2,0.25,0.2,0.4167,104,1.85,-0.02,-0.0167,0.4833,5,2D1U,1,TRUE,0.858,6,TRUE,left,as,,,,,,,,,
105,0.5,99,2,0.3833,0.2833,0.4333,105,2.1166,0.02,0.0167,0.5167,5,2D1U,1,FALSE,1.1,6,FALSE,left,as,,,,,,,,,
106,0.5,99,1,0.2667,0.3833,0.7167,106,2.5,0.26,0.1333,0.6333,5,3D1U,1,TRUE,0.65,2,FALSE,left,as,,,,,,,,,
107,0.5,99,1,0.3667,0.3333,0.75,107,2.4833,0.06,0.0333,0.5333,5,2D1U,2,FALSE,0.759,6,FALSE,right,as,,,,,,,,,
108,0.5,99,1,0.3333,0.4333,0.8833,108,2.3999,-0.5,-0.25,0.25,5,1D3U,1,FALSE,1.466,3,TRUE,left,as,,,,,,,,,
109,0.5,99,1,0.35,0.2167,0.75,109,2.05,-0.54,-0.2667,0.2333,5,1D3U,1,FALSE,1.051,4,TRUE,left,as,,,,,,,,,
110,0.5,99,1,0.3,0.25,0.4667,110,2.1334,0.22,0.1167,0.6167,5,3D1U,1,TRUE,0.417,3,TRUE,left,as,,,,,,,,,
111,0.5,99,1,0.4167,0.45,0.5667,111,2.1501,-0.58,-0.2833,0.2167,5,1D2U,1,FALSE,0.616,7,TRUE,left,as,,,,,,,,,
112,0.5,99,1,0.2,0.3,0.8667,112,2.4834,0.22,0.1167,0.6167,5,3D1U,1,TRUE,0.418,3,TRUE,left,as,,,,,,,,,
113,0.5,99,2,0.3333,0.35,0.8667,113,2.2333,-0.62,-0.3167,0.1833,5,1D2U,1,TRUE,0.642,7,FALSE,left,as,,,,,,,,,
114,0.5,99,1,0.3833,0.2,0.6833,114,1.9833,-0.58,-0.2833,0.2167,5,1D3U,1,FALSE,0.784,4,FALSE,left,as,,,,,,,,,
115,0.5,99,1,0.2,0.3333,0.6833,115,2.2666,0.1,0.05,0.55,5,2D1U,1,TRUE,0.492,6,FALSE,left,as,,,,,,,,,
116,0.5,99,1,0.2667,0.3,0.8,116,2.4834,0.22,0.1167,0.6167,5,3D1U,1,TRUE,0.758,3,TRUE,left,as,,,,,,,,,
117,0.5,99,2,0.2833,0.4,0.8833,117,2.2499,-0.62,-0.3167,0.1833,5,1D2U,1,TRUE,0.566,7,FALSE,left,as,,,,,,,,,
118,0.5,99,1,0.3,0.3,0.8333,118,2.1166,-0.62,-0.3167,0.1833,5,1D3U,1,FALSE,1.016,4,FALSE,left,as,,,,,,,,,
119,0.5,99,1,0.45,0.4167,0.4167,119,2.3334,0.1,0.05,0.55,5,2D1U,2,FALSE,1.832,6,FALSE,right,as,,,,,,,,,
120,0.5,99,2,0.3,0.4,0.6667,120,2.45,0.18,0.0833,0.5833,5,3D1U,1,FALSE,1.125,3,FALSE,left,as,,,,,,,,,
121,0.5,99,1,0.4167,0.3,0.4333,121,1.8667,-0.58,-0.2833,0.2167,5,1D2U,2,TRUE,0.666,8,TRUE,right,as,,,,,,,,,
122,0.5,99,1,0.3167,0.3667,0.5667,122,2.3668,0.22,0.1167,0.6167,5,3D1U,2,FALSE,1.532,4,TRUE,right,as,,,,,,,,,
123,0.5,99,2,0.3667,0.3833,0.7333,123,2.15,-0.66,-0.3333,0.1667,5,1D3U,1,TRUE,0.766,4,FALSE,left,as,,,,,,,,,
124,0.5,99,2,0.35,0.4167,0.5667,124,2.4001,0.14,0.0667,0.5667,5,2D1U,2,TRUE,0.525,6,FALSE,right,as,,,,,,,,,
125,0.5,99,2,0.4167,0.3667,0.8833,125,2.3834,-0.58,-0.2833,0.2167,5,1D2U,1,TRUE,0.517,8,TRUE,left,as,,,,,,,,,
126,0.5,99,2,0.3167,0.4167,0.7333,126,2.6,0.26,0.1333,0.6333,5,3D1U,1,FALSE,0.917,4,FALSE,left,as,,,,,,,,,
127,0.5,99,1,0.2333,0.45,0.6,127,2.0166,-0.54,-0.2667,0.2333,5,1D2U,2,TRUE,0.958,8,FALSE,right,as,,,,,,,,,
128,0.5,99,2,0.3167,0.3167,0.7333,128,2.0334,-0.66,-0.3333,0.1667,5,1D3U,1,TRUE,0.583,4,FALSE,left,as,,,,,,,,,
129,0.5,99,2,0.2667,0.3667,0.5,129,2.2834,0.3,0.15,0.65,5,3D1U,1,FALSE,0.841,4,FALSE,left,as,,,,,,,,,
130,0.5,99,2,0.4167,0.2333,0.7667,130,2.4834,0.14,0.0667,0.5667,5,2D1U,2,TRUE,0.568,6,FALSE,right,as,,,,,,,,,
131,0.5,99,2,0.3667,0.3833,0.6833,131,2.4833,0.1,0.05,0.55,5,2D1U,2,TRUE,2.391,7,TRUE,right,as,,,,,,,,,
132,0.5,99,2,0.3167,0.2167,0.7833,132,2.4834,0.34,0.1667,0.6667,5,3D1U,2,TRUE,0.559,4,FALSE,right,as,,,,,,,,,
133,0.5,99,1,0.4,0.2833,0.6,133,2.3333,0.1,0.05,0.55,5,2D1U,1,TRUE,0.741,7,TRUE,left,as,,,,,,,,,
134,0.5,99,2,0.2333,0.3833,0.8667,134,2.15,-0.66,-0.3333,0.1667,5,1D3U,1,TRUE,0.658,4,FALSE,left,as,,,,,,,,,
135,0.5,99,2,0.35,0.3333,0.85,135,2.2166,-0.62,-0.3167,0.1833,5,1D3U,1,TRUE,0.733,5,TRUE,left,as,,,,,,,,,
136,0.5,99,1,0.3833,0.3833,0.6333,136,2.1332,-0.54,-0.2667,0.2333,5,1D2U,1,FALSE,0.717,8,FALSE,left,as,,,,,,,,,
137,0.5,99,1,0.3833,0.3,0.6667,137,2.3833,0.06,0.0333,0.5333,5,2D1U,2,FALSE,0.576,7,FALSE,right,as,,,,,,,,,
138,0.5,99,2,0.4333,0.4333,0.5333,138,2.5666,0.34,0.1667,0.6667,5,3D1U,1,FALSE,0.824,4,FALSE,left,as,,,,,,,,,
139,0.5,99,1,0.3,0.3833,0.4667,139,1.8333,-0.62,-0.3167,0.1833,5,1D3U,1,FALSE,1.232,5,TRUE,left,as,,,,,,,,,
140,0.5,99,1,0.4167,0.3667,0.4833,140,1.9334,-0.66,-0.3333,0.1667,5,1D3U,1,FALSE,0.725,6,TRUE,left,as,,,,,,,,,
141,0.5,99,1,0.3,0.2833,0.6167,141,1.9167,-0.58,-0.2833,0.2167,5,1D2U,1,FALSE,0.808,9,TRUE,left,as,,,,,,,,,
142,0.5,99,1,0.3667,0.4167,0.8667,142,2.7001,0.1,0.05,0.55,5,2D1U,2,FALSE,0.658,8,TRUE,right,as,,,,,,,,,
143,0.5,99,1,0.25,0.2,0.4,143,1.5333,-0.62,-0.3167,0.1833,5,1D2U,1,FALSE,1.242,9,FALSE,left,as,,,,,,,,,
144,0.5,99,1,0.3167,0.2,0.4833,144,1.6667,-0.66,-0.3333,0.1667,5,1D2U,1,FALSE,1.475,9,FALSE,left,as,,,,,,,,,
145,0.5,99,1,0.3167,0.25,0.6667,145,1.8834,-0.7,-0.35,0.15,5,1D3U,2,TRUE,0.867,6,FALSE,right,as,,,,,,,,,
146,0.5,99,2,0.35,0.4333,0.8833,146,2.8499,0.38,0.1833,0.6833,5,3D1U,2,TRUE,0.567,4,FALSE,right,as,,,,,,,,,
147,0.5,99,1,0.2333,0.3167,0.4333,147,2.1666,0.38,0.1833,0.6833,5,3D1U,2,FALSE,1.158,4,FALSE,right,as,,,,,,,,,
148,0.5,99,2,0.25,0.3333,0.5333,148,1.7666,-0.7,-0.35,0.15,5,1D3U,1,TRUE,0.583,6,FALSE,left,as,,,,,,,,,
149,0.5,99,2,0.25,0.2333,0.7,149,1.8333,-0.7,-0.35,0.15,5,1D3U,1,TRUE,1.034,6,FALSE,left,as,,,,,,,,,
150,0.5,99,2,0.2333,0.4167,0.4333,150,1.7333,-0.7,-0.35,0.15,5,1D2U,1,TRUE,0.559,9,FALSE,left,as,,,,,,,,,
151,0.5,99,1,0.3333,0.3167,0.5833,151,2.45,0.42,0.2167,0.7167,5,3D1U,2,FALSE,0.491,4,FALSE,right,as,,,,,,,,,
152,0.5,99,1,0.35,0.3833,0.6,152,2.5666,0.46,0.2333,0.7333,5,3D1U,2,FALSE,1.733,4,FALSE,right,as,,,,,,,,,
153,0.5,99,2,0.2167,0.2667,0.8833,153,2.0167,-0.7,-0.35,0.15,5,1D2U,1,TRUE,0.758,9,FALSE,left,as,,,,,,,,,
0,0.5,99,1,0.2833,0.2833,0.9,0,2.0166,-0.9,-0.45,0.05,5,2D1U,2,TRUE,0.333,0,FALSE,right,DT,,,,,,,,,
1,0.5,99,2,0.25,0.4,0.6333,1,1.8333,-0.9,-0.45,0.05,5,1D2U,1,TRUE,0.334,0,FALSE,left,DT,,,,,,,,,
2,0.5,99,2,0.35,0.25,0.7833,2,2.7833,0.8,0.4,0.9,5,lapse_rate,2,TRUE,0.218,0,FALSE,right,DT,,,,,,,,,
3,0.5,99,1,0.3667,0.2667,0.4833,3,1.6667,-0.9,-0.45,0.05,5,1D2U,2,TRUE,0.517,0,FALSE,right,DT,,,,,,,,,
4,0.5,99,2,0.2833,0.2333,0.7833,4,1.9332,-0.74,-0.3667,0.1333,5,2D1U,1,TRUE,0.433,0,FALSE,left,DT,,,,,,,,,
5,0.5,99,1,0.4333,0.3667,0.45,5,1.8,-0.9,-0.45,0.05,5,1D3U,2,TRUE,0.224,0,FALSE,right,DT,,,,,,,,,
6,0.5,99,2,0.2667,0.4333,0.4667,6,1.7167,-0.9,-0.45,0.05,5,3D1U,1,TRUE,0.284,0,FALSE,left,DT,,,,,,,,,
7,0.5,99,2,0.3667,0.3,0.5833,7,1.8833,-0.74,-0.3667,0.1333,5,1D2U,1,TRUE,0.35,0,FALSE,left,DT,,,,,,,,,
8,0.5,99,2,0.2333,0.2667,0.5333,8,1.75,-0.58,-0.2833,0.2167,5,2D1U,1,TRUE,0.409,0,FALSE,left,DT,,,,,,,,,
9,0.5,99,1,0.4167,0.4167,0.55,9,2.0167,-0.74,-0.3667,0.1333,5,3D1U,2,TRUE,0.158,0,FALSE,right,DT,,,,,,,,,
10,0.5,99,2,0.3833,0.25,0.7167,10,1.95,-0.8,-0.4,0.1,5,lapse_rate,1,TRUE,0.3,0,FALSE,left,DT,,,,,,,,,
11,0.5,99,2,0.35,0.3667,0.7333,11,2,-0.9,-0.45,0.05,5,1D3U,1,TRUE,0.25,0,FALSE,left,DT,,,,,,,,,
12,0.5,99,2,0.3,0.3,0.6667,12,2.05,-0.42,-0.2167,0.2833,5,2D1U,2,FALSE,0.482,0,FALSE,right,DT,,,,,,,,,
13,0.5,99,1,0.4167,0.4167,0.7833,13,2.3334,-0.58,-0.2833,0.2167,5,3D1U,2,TRUE,0.517,0,FALSE,right,DT,,,,,,,,,
14,0.5,99,1,0.2167,0.2167,0.9,14,1.9667,-0.74,-0.3667,0.1333,5,1D2U,2,TRUE,0.44,0,FALSE,right,DT,,,,,,,,,
15,0.5,99,2,0.3667,0.45,0.4667,15,2.6834,0.8,0.4,0.9,5,lapse_rate,2,TRUE,0.157,0,FALSE,right,DT,,,,,,,,,
16,0.5,99,2,0.4333,0.35,0.7333,16,2.0666,-0.9,-0.45,0.05,5,1D3U,1,TRUE,0.308,0,FALSE,left,DT,,,,,,,,,
17,0.5,99,2,0.4333,0.2667,0.4167,17,1.75,-0.74,-0.3667,0.1333,5,1D3U,1,TRUE,0.375,0,FALSE,left,DT,,,,,,,,,
18,0.5,99,2,0.3,0.2167,0.55,18,2.4667,0.8,0.4,0.9,5,lapse_rate,2,TRUE,0.332,0,FALSE,right,DT,,,,,,,,,
19,0.5,99,2,0.3,0.3833,0.5333,19,1.9333,-0.58,-0.2833,0.2167,5,1D2U,1,TRUE,0.358,0,FALSE,left,DT,,,,,,,,,
20,0.5,99,2,0.25,0.2833,0.55,20,1.8666,-0.42,-0.2167,0.2833,5,2D1U,1,TRUE,0.4,0,FALSE,left,DT,,,,,,,,,
21,0.5,99,2,0.4,0.3,0.7667,21,2.25,-0.42,-0.2167,0.2833,5,3D1U,1,TRUE,0.424,0,FALSE,left,DT,,,,,,,,,
22,0.5,99,2,0.4167,0.3833,0.8333,22,2.5,-0.26,-0.1333,0.3667,5,3D1U,1,TRUE,0.424,0,FALSE,left,DT,,,,,,,,,
23,0.5,99,1,0.3,0.2167,0.75,23,1.9834,-0.58,-0.2833,0.2167,5,1D2U,2,TRUE,0.367,0,FALSE,right,DT,,,,,,,,,
24,0.5,99,1,0.2667,0.4,0.8333,24,2.3667,-0.26,-0.1333,0.3667,5,2D1U,2,TRUE,0.376,0,FALSE,right,DT,,,,,,,,,
25,0.5,99,1,0.4333,0.4333,0.8,25,2.2999,-0.74,-0.3667,0.1333,5,1D3U,2,TRUE,0.266,0,FALSE,right,DT,,,,,,,,,
26,0.5,99,2,0.3333,0.3667,0.4667,26,2.5667,0.8,0.4,0.9,5,lapse_rate,2,TRUE,0.358,0,FALSE,right,DT,,,,,,,,,
27,0.5,99,1,0.3333,0.2167,0.65,27,1.8,-0.8,-0.4,0.1,5,lapse_rate,2,TRUE,0.874,0,FALSE,right,DT,,,,,,,,,
28,0.5,99,2,0.4167,0.3833,0.4,28,2.15,-0.1,-0.05,0.45,5,2D1U,2,FALSE,0.641,0,FALSE,right,DT,,,,,,,,,
29,0.5,99,2,0.3333,0.25,0.8167,29,2.35,-0.1,-0.05,0.45,5,3D1U,2,FALSE,1.116,0,FALSE,right,DT,,,,,,,,,
30,0.5,99,1,0.2333,0.3167,0.5167,30,1.85,-0.42,-0.2167,0.2833,5,1D2U,1,FALSE,1.117,0,FALSE,left,DT,,,,,,,,,
31,0.5,99,1,0.2833,0.3,0.4667,31,1.6833,-0.74,-0.3667,0.1333,5,1D3U,2,TRUE,0.617,0,FALSE,right,DT,,,,,,,,,
32,0.5,99,2,0.4333,0.2167,0.5333,32,1.7833,-0.8,-0.4,0.1,5,lapse_rate,1,TRUE,0.4,0,FALSE,left,DT,,,,,,,,,
33,0.5,99,1,0.2167,0.3667,0.55,33,2.0834,-0.1,-0.05,0.45,5,3D1U,2,TRUE,0.742,0,FALSE,right,DT,,,,,,,,,
34,0.5,99,2,0.4333,0.3333,0.6667,34,2.1833,-0.5,-0.25,0.25,5,1D2U,1,TRUE,0.409,1,TRUE,left,DT,,,,,,,,,
35,0.5,99,1,0.3833,0.3833,0.7167,35,2.4333,-0.1,-0.05,0.45,5,2D1U,1,FALSE,0.425,0,FALSE,left,DT,,,,,,,,,
36,0.5,99,2,0.3667,0.3667,0.5333,36,1.9834,-0.58,-0.2833,0.2167,5,1D3U,1,TRUE,0.482,0,FALSE,left,DT,,,,,,,,,
37,0.5,99,1,0.2667,0.45,0.5167,37,1.9501,-0.58,-0.2833,0.2167,5,1D3U,2,TRUE,0.359,0,FALSE,right,DT,,,,,,,,,
38,0.5,99,2,0.2833,0.2667,0.4833,38,1.95,-0.18,-0.0833,0.4167,5,2D1U,1,TRUE,0.501,1,TRUE,left,DT,,,,,,,,,
39,0.5,99,1,0.3333,0.4333,0.6833,39,2.0499,-0.8,-0.4,0.1,5,lapse_rate,2,TRUE,0.199,0,FALSE,right,DT,,,,,,,,,
40,0.5,99,1,0.4333,0.3167,0.5,40,2,-0.5,-0.25,0.25,5,1D2U,2,TRUE,0.308,1,TRUE,right,DT,,,,,,,,,
41,0.5,99,1,0.4,0.45,0.8167,41,2.7,0.06,0.0333,0.5333,5,3D1U,2,FALSE,1.158,0,FALSE,right,DT,,,,,,,,,
42,0.5,99,1,0.35,0.35,0.5833,42,2,-0.58,-0.2833,0.2167,5,1D3U,1,FALSE,0.417,0,FALSE,left,DT,,,,,,,,,
43,0.5,99,1,0.4333,0.2333,0.9,43,2.6833,0.22,0.1167,0.6167,5,3D1U,1,TRUE,0.583,0,FALSE,left,DT,,,,,,,,,
44,0.5,99,1,0.3333,0.2,0.55,44,1.85,-0.46,-0.2333,0.2667,5,1D2U,1,FALSE,1.141,2,TRUE,left,DT,,,,,,,,,
45,0.5,99,1,0.4333,0.3,0.6667,45,2.3333,-0.14,-0.0667,0.4333,5,2D1U,2,TRUE,0.5,2,TRUE,right,DT,,,,,,,,,
46,0.5,99,1,0.3,0.2167,0.85,46,2.7667,0.8,0.4,0.9,5,lapse_rate,1,TRUE,0.483,0,FALSE,left,DT,,,,,,,,,
47,0.5,99,1,0.3167,0.45,0.7333,47,2.25,-0.5,-0.25,0.25,5,1D2U,2,TRUE,0.258,3,TRUE,right,DT,,,,,,,,,
48,0.5,99,1,0.3833,0.4167,0.8,48,2.2,-0.8,-0.4,0.1,5,lapse_rate,2,TRUE,0.574,0,FALSE,right,DT,,,,,,,,,
49,0.5,99,2,0.25,0.4167,0.6167,49,2.4001,0.22,0.1167,0.6167,5,3D1U,2,TRUE,0.723,0,FALSE,right,DT,,,,,,,,,
50,0.5,99,2,0.2333,0.25,0.45,50,1.8833,-0.1,-0.05,0.45,5,2D1U,1,TRUE,0.749,2,FALSE,left,DT,,,,,,,,,
51,0.5,99,2,0.4,0.4,0.7833,51,2.25,-0.66,-0.3333,0.1667,5,1D3U,1,TRUE,0.516,1,TRUE,left,DT,,,,,,,,,
52,0.5,99,2,0.3833,0.25,0.7667,52,2,-0.8,-0.4,0.1,5,lapse_rate,1,TRUE,0.666,0,FALSE,left,DT,,,,,,,,,
53,0.5,99,2,0.2167,0.3333,0.7333,53,2.4,0.22,0.1167,0.6167,5,3D1U,1,FALSE,0.434,0,FALSE,left,DT,,,,,,,,,
54,0.5,99,2,0.2167,0.25,0.45,54,1.8834,-0.06,-0.0333,0.4667,5,2D1U,1,TRUE,0.666,2,FALSE,left,DT,,,,,,,,,
55,0.5,99,2,0.3833,0.4,0.4167,55,1.95,-0.5,-0.25,0.25,5,1D2U,1,TRUE,0.317,3,TRUE,left,DT,,,,,,,,,
56,0.5,99,1,0.2667,0.2333,0.8,56,1.9667,-0.66,-0.3333,0.1667,5,1D3U,2,TRUE,0.415,1,TRUE,right,DT,,,,,,,,,
57,0.5,99,2,0.3833,0.3667,0.8333,57,2.25,-0.66,-0.3333,0.1667,5,1D3U,1,TRUE,0.517,1,TRUE,left,DT,,,,,,,,,
58,0.5,99,1,0.2,0.25,0.4833,58,1.9166,-0.02,-0.0167,0.4833,5,2D1U,1,FALSE,0.643,2,FALSE,left,DT,,,,,,,,,
59,0.5,99,1,0.2667,0.25,0.75,59,1.8667,-0.8,-0.4,0.1,5,lapse_rate,2,TRUE,0.291,0,FALSE,right,DT,,,,,,,,,
60,0.5,99,1,0.2833,0.35,0.6667,60,2.0667,-0.46,-0.2333,0.2667,5,1D2U,1,FALSE,0.358,4,TRUE,left,DT,,,,,,,,,
61,0.5,99,2,0.3667,0.3,0.6833,61,2.5333,0.38,0.1833,0.6833,5,3D1U,2,TRUE,0.516,0,FALSE,right,DT,,,,,,,,,
62,0.5,99,2,0.3667,0.4,0.6,62,2.35,-0.02,-0.0167,0.4833,5,2D1U,1,TRUE,0.45,2,FALSE,left,DT,,,,,,,,,
63,0.5,99,1,0.3833,0.4333,0.7667,63,2.3333,-0.5,-0.25,0.25,5,1D2U,2,TRUE,0.267,5,TRUE,right,DT,,,,,,,,,
64,0.5,99,1,0.3167,0.3667,0.85,64,2.2167,-0.62,-0.3167,0.1833,5,1D3U,1,FALSE,0.826,2,TRUE,left,DT,,,,,,,,,
65,0.5,99,2,0.2667,0.25,0.8667,65,2.5667,0.38,0.1833,0.6833,5,3D1U,2,TRUE,0.467,0,FALSE,right,DT,,,,,,,,,
66,0.5,99,2,0.3333,0.2667,0.4667,66,2.4667,0.8,0.4,0.9,5,lapse_rate,2,TRUE,0.366,0,FALSE,right,DT,,,,,,,,,
67,0.5,99,2,0.3333,0.3333,0.4167,67,1.8333,-0.5,-0.25,0.25,5,1D2U,1,TRUE,0.309,5,TRUE,left,DT,,,,,,,,,
68,0.5,99,1,0.2667,0.4333,0.75,68,2.85,0.8,0.4,0.9,5,lapse_rate,1,TRUE,0.616,0,FALSE,left,DT,,,,,,,,,
69,0.5,99,2,0.3,0.3,0.8333,69,2.45,0.02,0.0167,0.5167,5,2D1U,1,FALSE,0.416,2,FALSE,left,DT,,,,,,,,,
70,0.5,99,1,0.3833,0.2167,0.75,70,2.5333,0.38,0.1833,0.6833,5,3D1U,1,TRUE,0.408,0,FALSE,left,DT,,,,,,,,,
71,0.5,99,2,0.3333,0.2833,0.5333,71,1.8166,-0.66,-0.3333,0.1667,5,1D3U,1,TRUE,0.474,3,TRUE,left,DT,,,,,,,,,
72,0.5,99,2,0.45,0.25,0.5833,72,2.05,-0.46,-0.2333,0.2667,5,1D2U,1,TRUE,0.417,6,TRUE,left,DT,,,,,,,,,
73,0.5,99,1,0.2333,0.2333,0.8667,73,2.1,-0.46,-0.2333,0.2667,5,1D2U,2,TRUE,0.258,6,TRUE,right,DT,,,,,,,,,
74,0.5,99,1,0.4167,0.2667,0.8667,74,2.7001,0.3,0.15,0.65,5,3D1U,2,FALSE,0.616,1,TRUE,right,DT,,,,,,,,,
75,0.5,99,2,0.2667,0.3667,0.4667,75,2.1334,0.06,0.0333,0.5333,5,2D1U,1,FALSE,0.548,2,FALSE,left,DT,,,,,,,,,
76,0.5,99,1,0.3333,0.2667,0.4167,76,1.6834,-0.66,-0.3333,0.1667,5,1D3U,2,TRUE,0.783,3,TRUE,right,DT,,,,,,,,,
77,0.5,99,1,0.2833,0.3833,0.6,77,2.3166,0.1,0.05,0.55,5,2D1U,1,TRUE,0.474,2,FALSE,left,DT,,,,,,,,,
78,0.5,99,2,0.3167,0.35,0.5333,78,2.3667,0.34,0.1667,0.6667,5,3D1U,1,FALSE,1.033,2,TRUE,left,DT,,,,,,,,,
79,0.5,99,2,0.3667,0.35,0.8333,79,2.2167,-0.66,-0.3333,0.1667,5,1D3U,1,TRUE,0.449,3,TRUE,left,DT,,,,,,,,,
80,0.5,99,1,0.4167,0.3833,0.75,80,2.3333,-0.42,-0.2167,0.2833,5,1D2U,1,FALSE,0.532,6,FALSE,left,DT,,,,,,,,,
81,0.5,99,1,0.4167,0.2667,0.6333,81,2.3667,0.1,0.05,0.55,5,2D1U,1,TRUE,0.825,2,FALSE,left,DT,,,,,,,,,
82,0.5,99,1,0.3,0.3,0.4,82,1.7667,-0.46,-0.2333,0.2667,5,1D2U,2,TRUE,0.475,7,TRUE,right,DT,,,,,,,,,
83,0.5,99,1,0.3333,0.2167,0.7667,83,2,-0.62,-0.3167,0.1833,5,1D3U,2,TRUE,0.375,4,TRUE,right,DT,,,,,,,,,
84,0.5,99,1,0.25,0.2667,0.5667,84,2.1167,0.06,0.0333,0.5333,5,2D1U,2,FALSE,1.101,3,TRUE,right,DT,,,,,,,,,
85,0.5,99,2,0.4,0.35,0.45,85,2.3833,0.38,0.1833,0.6833,5,3D1U,2,TRUE,0.308,2,FALSE,right,DT,,,,,,,,,
86,0.5,99,2,0.4,0.3833,0.65,86,2.2,-0.46,-0.2333,0.2667,5,1D2U,1,TRUE,0.366,7,TRUE,left,DT,,,,,,,,,
87,0.5,99,1,0.2,0.2333,0.7333,87,2.3499,0.38,0.1833,0.6833,5,3D1U,1,TRUE,0.658,2,FALSE,left,DT,,,,,,,,,
88,0.5,99,2,0.4,0.3333,0.5667,88,2.0833,-0.42,-0.2167,0.2833,5,1D2U,1,TRUE,0.675,8,TRUE,left,DT,,,,,,,,,
89,0.5,99,2,0.25,0.2333,0.6667,89,2.2,0.1,0.05,0.55,5,2D1U,2,TRUE,0.525,4,TRUE,right,DT,,,,,,,,,
90,0.5,99,2,0.2667,0.3,0.4333,90,1.6833,-0.62,-0.3167,0.1833,5,1D3U,1,TRUE,0.39,4,TRUE,left,DT,,,,,,,,,
91,0.5,99,2,0.45,0.2667,0.6833,91,2.5833,0.38,0.1833,0.6833,5,3D1U,2,TRUE,0.401,2,FALSE,right,DT,,,,,,,,,
92,0.5,99,1,0.4333,0.4333,0.8667,92,2.5166,-0.42,-0.2167,0.2833,5,1D2U,2,TRUE,1.717,8,TRUE,right,DT,,,,,,,,,
93,0.5,99,1,0.4333,0.3833,0.7667,93,2.2666,-0.62,-0.3167,0.1833,5,1D3U,1,FALSE,0.491,4,TRUE,left,DT,,,,,,,,,
94,0.5,99,1,0.3333,0.3167,0.5833,94,2.2833,0.1,0.05,0.55,5,2D1U,2,FALSE,0.64,4,TRUE,right,DT,,,,,,,,,
95,0.5,99,1,0.3833,0.3,0.8,95,2.65,0.34,0.1667,0.6667,5,3D1U,1,TRUE,0.568,3,TRUE,left,DT,,,,,,,,,
96,0.5,99,2,0.3833,0.3167,0.6167,96,2.1334,-0.38,-0.1833,0.3167,5,1D2U,1,TRUE,0.692,8,FALSE,left,DT,,,,,,,,,
97,0.5,99,1,0.3333,0.3833,0.85,97,2.6333,0.14,0.0667,0.5667,5,2D1U,2,FALSE,0.741,4,FALSE,right,DT,,,,,,,,,
98,0.5,99,2,0.25,0.3667,0.55,98,1.8334,-0.66,-0.3333,0.1667,5,1D3U,1,TRUE,0.567,5,TRUE,left,DT,,,,,,,,,
99,0.5,99,1,0.45,0.3167,0.5833,99,2.5167,0.34,0.1667,0.6667,5,3D1U,1,TRUE,0.457,3,TRUE,left,DT,,,,,,,,,
100,0.5,99,1,0.2167,0.3833,0.8333,100,2.25,-0.38,-0.1833,0.3167,5,1D2U,2,TRUE,0.435,8,FALSE,right,DT,,,,,,,,,
101,0.5,99,2,0.45,0.25,0.7,101,2.2333,-0.34,-0.1667,0.3333,5,1D2U,1,TRUE,0.55,8,FALSE,left,DT,,,,,,,,,
102,0.5,99,2,0.2167,0.3,0.4333,102,2.1167,0.34,0.1667,0.6667,5,3D1U,1,FALSE,0.659,3,TRUE,left,DT,,,,,,,,,
103,0.5,99,1,0.3167,0.4,0.4667,103,2.3667,0.38,0.1833,0.6833,5,3D1U,1,TRUE,0.875,4,TRUE,left,DT,,,,,,,,,
104,0.5,99,2,0.2333,0.25,0.5,104,2.0666,0.18,0.0833,0.5833,5,2D1U,2,TRUE,0.743,4,FALSE,right,DT,,,,,,,,,
105,0.5,99,1,0.45,0.3333,0.7333,105,2.1833,-0.66,-0.3333,0.1667,5,1D3U,1,FALSE,0.492,5,TRUE,left,DT,,,,,,,,,
106,0.5,99,1,0.4167,0.4,0.6667,106,2.3167,-0.34,-0.1667,0.3333,5,1D2U,1,FALSE,0.725,8,FALSE,left,DT,,,,,,,,,
107,0.5,99,1,0.3,0.4167,0.4333,107,2.3333,0.38,0.1833,0.6833,5,3D1U,1,TRUE,0.324,4,TRUE,left,DT,,,,,,,,,
108,0.5,99,2,0.2167,0.4,0.85,108,2.1167,-0.7,-0.35,0.15,5,1D3U,1,TRUE,0.35,5,FALSE,left,DT,,,,,,,,,
109,0.5,99,2,0.3167,0.2,0.4167,109,1.5834,-0.7,-0.35,0.15,5,1D3U,1,TRUE,0.534,5,FALSE,left,DT,,,,,,,,,
110,0.5,99,1,0.4167,0.4333,0.4667,110,2.4,0.18,0.0833,0.5833,5,2D1U,1,TRUE,0.7,4,FALSE,left,DT,,,,,,,,,
111,0.5,99,2,0.25,0.3167,0.4333,111,1.8167,-0.38,-0.1833,0.3167,5,1D2U,2,FALSE,0.5,9,TRUE,right,DT,,,,,,,,,
112,0.5,99,2,0.3,0.3333,0.7833,112,2.0666,-0.7,-0.35,0.15,5,1D3U,1,TRUE,0.391,5,FALSE,left,DT,,,,,,,,,
113,0.5,99,2,0.2167,0.45,0.45,113,1.7834,-0.66,-0.3333,0.1667,5,1D3U,1,TRUE,0.6,6,TRUE,left,DT,,,,,,,,,
114,0.5,99,1,0.2833,0.2333,0.4,114,2.0999,0.38,0.1833,0.6833,5,3D1U,1,TRUE,0.534,4,TRUE,left,DT,,,,,,,,,
115,0.5,99,2,0.25,0.4333,0.6,115,2.35,0.14,0.0667,0.5667,5,2D1U,2,TRUE,0.307,5,TRUE,right,DT,,,,,,,,,
116,0.5,99,1,0.4333,0.45,0.7667,116,2.4333,-0.42,-0.2167,0.2833,5,1D2U,1,FALSE,0.408,9,FALSE,left,DT,,,,,,,,,
117,0.5,99,1,0.3833,0.2167,0.6,117,2.2667,0.14,0.0667,0.5667,5,2D1U,1,TRUE,0.558,5,TRUE,left,DT,,,,,,,,,
118,0.5,99,1,0.2833,0.2167,0.7,118,2.3667,0.34,0.1667,0.6667,5,3D1U,2,FALSE,0.467,5,TRUE,right,DT,,,,,,,,,
119,0.5,99,2,0.4333,0.3,0.6833,119,2.5999,0.38,0.1833,0.6833,5,3D1U,2,TRUE,0.573,6,TRUE,right,DT,,,,,,,,,
120,0.5,99,2,0.4,0.4333,0.4,120,1.9,-0.66,-0.3333,0.1667,5,1D3U,1,TRUE,0.458,6,TRUE,left,DT,,,,,,,,,
121,0.5,99,2,0.3167,0.4333,0.5167,121,2.0334,-0.46,-0.2333,0.2667,5,1D2U,1,TRUE,0.483,9,FALSE,left,DT,,,,,,,,,
122,0.5,99,2,0.3833,0.3,0.8,122,2.6666,0.38,0.1833,0.6833,5,3D1U,2,TRUE,0.425,6,TRUE,right,DT,,,,,,,,,
123,0.5,99,2,0.3,0.3333,0.7,123,2,-0.66,-0.3333,0.1667,5,1D3U,1,TRUE,0.468,6,TRUE,left,DT,,,,,,,,,
124,0.5,99,1,0.2,0.2667,0.6333,124,1.7833,-0.62,-0.3167,0.1833,5,1D3U,1,FALSE,0.691,6,FALSE,left,DT,,,,,,,,,
125,0.5,99,2,0.25,0.25,0.7,125,1.9667,-0.46,-0.2333,0.2667,5,1D2U,1,TRUE,1.175,9,FALSE,left,DT,,,,,,,,,
126,0.5,99,1,0.2833,0.4167,0.5333,126,2.2833,0.1,0.05,0.55,5,2D1U,1,TRUE,0.973,5,FALSE,left,DT,,,,,,,,,
127,0.5,99,2,0.35,0.4167,0.4667,127,1.9001,-0.66,-0.3333,0.1667,5,1D3U,1,TRUE,0.408,7,TRUE,left,DT,,,,,,,,,
128,0.5,99,2,0.3667,0.35,0.7,128,2.6,0.38,0.1833,0.6833,5,3D1U,2,TRUE,0.268,6,TRUE,right,DT,,,,,,,,,
129,0.5,99,1,0.2833,0.4333,0.4333,129,2.1999,0.1,0.05,0.55,5,2D1U,2,FALSE,0.283,5,FALSE,right,DT,,,,,,,,,
130,0.5,99,1,0.2333,0.2333,0.8833,130,2.1332,-0.42,-0.2167,0.2833,5,1D2U,2,TRUE,0.441,10,TRUE,right,DT,,,,,,,,,
131,0.5,99,1,0.2167,0.4333,0.4667,131,1.9,-0.42,-0.2167,0.2833,5,1D2U,2,TRUE,0.739,10,TRUE,right,DT,,,,,,,,,
132,0.5,99,2,0.2333,0.35,0.4667,132,1.8667,-0.38,-0.1833,0.3167,5,1D2U,1,TRUE,1.477,10,FALSE,left,DT,,,,,,,,,
133,0.5,99,1,0.2333,0.3667,0.85,133,2.1167,-0.66,-0.3333,0.1667,5,1D3U,2,TRUE,0.341,7,TRUE,right,DT,,,,,,,,,
134,0.5,99,2,0.2333,0.3667,0.8333,134,2.5,0.14,0.0667,0.5667,5,2D1U,1,FALSE,0.56,6,TRUE,left,DT,,,,,,,,,
135,0.5,99,2,0.35,0.2833,0.8833,135,2.6833,0.34,0.1667,0.6667,5,3D1U,2,TRUE,0.451,7,TRUE,right,DT,,,,,,,,,
136,0.5,99,1,0.3,0.2333,0.7333,136,2.0833,-0.38,-0.1833,0.3167,5,1D2U,2,TRUE,0.532,10,FALSE,right,DT,,,,,,,,,
137,0.5,99,1,0.2333,0.2667,0.6667,137,1.8334,-0.66,-0.3333,0.1667,5,1D3U,2,TRUE,0.449,7,TRUE,right,DT,,,,,,,,,
138,0.5,99,2,0.2667,0.45,0.7333,138,2.5333,0.18,0.0833,0.5833,5,2D1U,2,TRUE,0.617,6,FALSE,right,DT,,,,,,,,,
139,0.5,99,2,0.2667,0.3167,0.4833,139,2.2334,0.34,0.1667,0.6667,5,3D1U,2,TRUE,0.666,7,TRUE,right,DT,,,,,,,,,
140,0.5,99,1,0.25,0.3167,0.6667,140,2.0667,-0.34,-0.1667,0.3333,5,1D2U,2,TRUE,0.783,10,FALSE,right,DT,,,,,,,,,
141,0.5,99,1,0.45,0.2,0.5667,141,1.9,-0.62,-0.3167,0.1833,5,1D3U,2,TRUE,1.133,8,TRUE,right,DT,,,,,,,,,
142,0.5,99,2,0.2,0.3,0.6333,142,2.3,0.34,0.1667,0.6667,5,3D1U,2,TRUE,0.808,7,TRUE,right,DT,,,,,,,,,
143,0.5,99,1,0.3667,0.3667,0.5833,143,2.4667,0.3,0.15,0.65,5,3D1U,2,FALSE,0.484,7,FALSE,right,DT,,,,,,,,,
144,0.5,99,2,0.4333,0.2167,0.5333,144,1.8666,-0.62,-0.3167,0.1833,5,1D3U,1,TRUE,1.067,8,TRUE,left,DT,,,,,,,,,
145,0.5,99,2,0.45,0.3167,0.4333,145,1.8833,-0.62,-0.3167,0.1833,5,1D3U,1,TRUE,0.951,8,TRUE,left,DT,,,,,,,,,
146,0.5,99,2,0.45,0.2833,0.7667,146,2.5833,0.18,0.0833,0.5833,5,2D1U,2,TRUE,0.433,6,FALSE,right,DT,,,,,,,,,
147,0.5,99,2,0.4333,0.4,0.5333,147,2.4333,0.14,0.0667,0.5667,5,2D1U,1,FALSE,0.465,7,TRUE,left,DT,,,,,,,,,
148,0.5,99,2,0.3,0.2833,0.7,148,2,-0.58,-0.2833,0.2167,5,1D3U,1,TRUE,0.459,8,FALSE,left,DT,,,,,,,,,
149,0.5,99,2,0.2,0.3667,0.5,149,2.2334,0.34,0.1667,0.6667,5,3D1U,2,TRUE,0.283,8,TRUE,right,DT,,,,,,,,,
150,0.5,99,1,0.2667,0.3833,0.4167,150,2.2334,0.34,0.1667,0.6667,5,3D1U,1,TRUE,0.359,8,TRUE,left,DT,,,,,,,,,
151,0.5,99,2,0.3,0.4,0.8333,151,2.6166,0.18,0.0833,0.5833,5,2D1U,2,TRUE,0.383,8,TRUE,right,DT,,,,,,,,,
152,0.5,99,2,0.2667,0.3833,0.8,152,2.5333,0.18,0.0833,0.5833,5,2D1U,2,TRUE,0.383,8,TRUE,right,DT,,,,,,,,,
153,0.5,99,1,0.2667,0.2167,0.6333,153,2.1834,0.14,0.0667,0.5667,5,2D1U,1,TRUE,0.706,9,TRUE,left,DT,,,,,,,,,
0,0.5,99,2,0.4167,0.2167,0.45,0,1.7501,-0.65,-0.3333,0.1667,5,3U1D,1,TRUE,0.645,0,FALSE,left,HH,,,,,,,,,
1,0.5,99,2,0.2167,0.4167,0.85,1,2.8167,0.65,0.3333,0.8333,5,3D1U,2,TRUE,0.399,0,FALSE,right,HH,,,,,,,,,
2,0.5,99,2,0.4167,0.4,0.5833,2,2.7333,0.65,0.3333,0.8333,5,3D1U,2,TRUE,0.425,0,FALSE,right,HH,,,,,,,,,
3,0.5,99,2,0.4,0.4,0.85,3,2.3167,-0.65,-0.3333,0.1667,5,2U1D,1,TRUE,0.383,0,FALSE,left,HH,,,,,,,,,
4,0.5,99,2,0.3667,0.45,0.6667,4,2.0834,-0.8,-0.4,0.1,5,lapse_rate,1,TRUE,0.392,0,FALSE,left,HH,,,,,,,,,
5,0.5,99,2,0.3667,0.3833,0.4167,5,1.8334,-0.65,-0.3333,0.1667,5,3U1D,1,TRUE,0.308,0,FALSE,left,HH,,,,,,,,,
6,0.5,99,1,0.35,0.3,0.5,6,2.4833,0.65,0.3333,0.8333,5,2D1U,2,FALSE,0.55,0,FALSE,right,HH,,,,,,,,,
7,0.5,99,1,0.2833,0.25,0.6667,7,2.6,0.8,0.4,0.9,5,lapse_rate,2,FALSE,0.426,0,FALSE,right,HH,,,,,,,,,
8,0.5,99,2,0.35,0.2333,0.55,8,2.4666,0.65,0.3333,0.8333,5,3D1U,2,TRUE,0.4,0,FALSE,right,HH,,,,,,,,,
9,0.5,99,1,0.3667,0.3333,0.8333,9,2.2,-0.65,-0.3333,0.1667,5,3U1D,2,TRUE,0.391,0,FALSE,right,HH,,,,,,,,,
10,0.5,99,1,0.3333,0.35,0.5333,10,1.8833,-0.65,-0.3333,0.1667,5,2U1D,2,TRUE,0.434,0,FALSE,right,HH,,,,,,,,,
11,0.5,99,1,0.4,0.3833,0.6,11,2.75,0.75,0.3667,0.8667,5,2D1U,1,TRUE,0.3,0,FALSE,left,HH,,,,,,,,,
12,0.5,99,1,0.3167,0.3,0.6,12,1.9334,-0.55,-0.2667,0.2167,5,2U1D,2,TRUE,0.459,0,FALSE,right,HH,,,,,,,,,
13,0.5,99,2,0.25,0.3833,0.5833,13,2.5833,0.75,0.3667,0.8667,5,2D1U,2,TRUE,0.317,0,FALSE,right,HH,,,,,,,,,
14,0.5,99,2,0.3333,0.4333,0.8167,14,2.9833,0.8,0.4,0.9,5,lapse_rate,1,FALSE,17.6,0,FALSE,left,HH,,,,,,,,,
15,0.5,99,1,0.2667,0.3667,0.7333,15,2.6334,0.55,0.2667,0.7667,5,3D1U,2,FALSE,0.542,0,FALSE,right,HH,,,,,,,,,
16,0.5,99,2,0.2333,0.4,0.65,16,2,-0.55,-0.2667,0.2167,5,3U1D,1,TRUE,0.483,0,FALSE,left,HH,,,,,,,,,
17,0.5,99,2,0.3,0.3333,0.8167,17,2.1667,-0.55,-0.2667,0.2167,5,3U1D,1,TRUE,0.467,0,FALSE,left,HH,,,,,,,,,
18,0.5,99,1,0.4,0.4333,0.5833,18,2.1333,-0.55,-0.2667,0.2167,5,2U1D,2,TRUE,0.342,0,FALSE,right,HH,,,,,,,,,
19,0.5,99,2,0.3,0.3333,0.8167,19,2.85,0.8,0.4,0.9,5,lapse_rate,2,TRUE,0.401,0,FALSE,right,HH,,,,,,,,,
20,0.5,99,2,0.4,0.3333,0.4167,20,2.45,0.61,0.3,0.8,5,3D1U,2,TRUE,0.443,1,TRUE,right,HH,,,,,,,,,
21,0.5,99,1,0.2667,0.3667,0.4833,21,2.4667,0.69,0.35,0.85,5,2D1U,1,TRUE,0.376,1,TRUE,left,HH,,,,,,,,,
22,0.5,99,1,0.4167,0.2833,0.45,22,2.55,0.8,0.4,0.9,5,lapse_rate,1,TRUE,0.433,0,FALSE,left,HH,,,,,,,,,
23,0.5,99,2,0.2667,0.4167,0.6667,23,2.0668,-0.55,-0.2667,0.2167,5,3U1D,1,TRUE,0.475,0,FALSE,left,HH,,,,,,,,,
24,0.5,99,1,0.3833,0.3333,0.4667,24,1.95,-0.45,-0.2333,0.2667,5,2U1D,2,TRUE,0.475,0,FALSE,right,HH,,,,,,,,,
25,0.5,99,1,0.4333,0.2833,0.6333,25,2.6499,0.61,0.3,0.8,5,3D1U,1,TRUE,0.416,1,TRUE,left,HH,,,,,,,,,
26,0.5,99,1,0.4167,0.4167,0.65,26,2.8334,0.69,0.35,0.85,5,2D1U,1,TRUE,0.483,1,TRUE,left,HH,,,,,,,,,
27,0.5,99,2,0.2167,0.4167,0.6167,27,2.5501,0.61,0.3,0.8,5,3D1U,2,TRUE,0.391,1,TRUE,right,HH,,,,,,,,,
28,0.5,99,2,0.2167,0.25,0.8167,28,2.0501,-0.45,-0.2333,0.2667,5,2U1D,1,TRUE,0.491,0,FALSE,left,HH,,,,,,,,,
29,0.5,99,2,0.4167,0.2667,0.7,29,2.1501,-0.45,-0.2333,0.2667,5,3U1D,1,TRUE,0.416,0,FALSE,left,HH,,,,,,,,,
30,0.5,99,1,0.4333,0.3,0.6167,30,2.6667,0.63,0.3167,0.8167,5,2D1U,1,TRUE,0.292,1,FALSE,left,HH,,,,,,,,,
31,0.5,99,1,0.2667,0.3333,0.5,31,1.7,-0.8,-0.4,0.1,5,lapse_rate,2,TRUE,0.358,0,FALSE,right,HH,,,,,,,,,
32,0.5,99,2,0.2333,0.2833,0.8167,32,2.1666,-0.35,-0.1667,0.3333,5,2U1D,1,TRUE,0.483,0,FALSE,left,HH,,,,,,,,,
33,0.5,99,2,0.3333,0.3833,0.6333,33,2.1166,-0.45,-0.2333,0.2667,5,3U1D,1,TRUE,0.408,0,FALSE,left,HH,,,,,,,,,
34,0.5,99,1,0.35,0.3333,0.7333,34,2.7333,0.63,0.3167,0.8167,5,2D1U,1,TRUE,0.326,1,FALSE,left,HH,,,,,,,,,
35,0.5,99,2,0.4167,0.2667,0.7333,35,2.7,0.574,0.2833,0.7833,5,3D1U,2,TRUE,0.433,2,TRUE,right,HH,,,,,,,,,
36,0.5,99,2,0.3833,0.4333,0.8833,36,2.2999,-0.8,-0.4,0.1,5,lapse_rate,1,TRUE,0.45,0,FALSE,left,HH,,,,,,,,,
37,0.5,99,2,0.3667,0.3167,0.55,37,2.0001,-0.45,-0.2333,0.2667,5,3U1D,1,TRUE,0.442,0,FALSE,left,HH,,,,,,,,,
38,0.5,99,2,0.3333,0.35,0.7333,38,2.6999,0.57,0.2833,0.7833,5,2D1U,2,TRUE,0.384,1,FALSE,right,HH,,,,,,,,,
39,0.5,99,1,0.4333,0.3333,0.6667,39,2.0333,-0.8,-0.4,0.1,5,lapse_rate,2,TRUE,0.408,0,FALSE,right,HH,,,,,,,,,
40,0.5,99,1,0.2667,0.25,0.5167,40,1.8667,-0.35,-0.1667,0.3333,5,2U1D,2,TRUE,0.442,0,FALSE,right,HH,,,,,,,,,
41,0.5,99,1,0.4167,0.3333,0.7833,41,2.8166,0.574,0.2833,0.7833,5,3D1U,1,TRUE,0.458,2,TRUE,left,HH,,,,,,,,,
42,0.5,99,2,0.2333,0.4,0.75,42,1.9833,-0.8,-0.4,0.1,5,lapse_rate,1,TRUE,0.557,0,FALSE,left,HH,,,,,,,,,
43,0.5,99,1,0.2833,0.25,0.5,43,2.3166,0.574,0.2833,0.7833,5,3D1U,1,TRUE,0.434,2,TRUE,left,HH,,,,,,,,,
44,0.5,99,1,0.3167,0.25,0.4167,44,1.8501,-0.25,-0.1333,0.3667,5,2U1D,2,TRUE,0.442,0,FALSE,right,HH,,,,,,,,,
45,0.5,99,2,0.3333,0.2333,0.4167,45,1.8166,-0.35,-0.1667,0.3333,5,3U1D,1,TRUE,0.425,0,FALSE,left,HH,,,,,,,,,
46,0.5,99,1,0.2667,0.3333,0.85,46,2.7333,0.57,0.2833,0.7833,5,2D1U,1,TRUE,0.4,1,FALSE,left,HH,,,,,,,,,
47,0.5,99,2,0.4167,0.3667,0.6833,47,2.7167,0.51,0.25,0.75,5,2D1U,2,TRUE,0.39,1,FALSE,right,HH,,,,,,,,,
48,0.5,99,1,0.4333,0.35,0.6333,48,2.8166,0.8,0.4,0.9,5,lapse_rate,1,TRUE,0.491,0,FALSE,left,HH,,,,,,,,,
49,0.5,99,1,0.3667,0.3,0.4833,49,1.9833,-0.35,-0.1667,0.3333,5,3U1D,1,FALSE,0.483,0,FALSE,left,HH,,,,,,,,,
50,0.5,99,2,0.3667,0.45,0.8,50,2.8834,0.538,0.2667,0.7667,5,3D1U,2,TRUE,0.533,2,FALSE,right,HH,,,,,,,,,
51,0.5,99,1,0.3833,0.35,0.6667,51,2.2667,-0.25,-0.1333,0.3667,5,2U1D,2,TRUE,0.716,0,FALSE,right,HH,,,,,,,,,
52,0.5,99,1,0.2667,0.2667,0.6667,52,2.1334,-0.15,-0.0667,0.4333,5,2U1D,2,TRUE,0.575,0,FALSE,right,HH,,,,,,,,,
53,0.5,99,1,0.2333,0.3667,0.75,53,2.6167,0.538,0.2667,0.7667,5,3D1U,1,TRUE,0.284,2,FALSE,left,HH,,,,,,,,,
54,0.5,99,2,0.2,0.45,0.45,54,1.7,-0.8,-0.4,0.1,5,lapse_rate,1,TRUE,0.433,0,FALSE,left,HH,,,,,,,,,
55,0.5,99,2,0.4333,0.3,0.55,55,2.0833,-0.41,-0.2,0.3,5,3U1D,1,TRUE,0.417,1,TRUE,left,HH,,,,,,,,,
56,0.5,99,1,0.3167,0.2,0.6333,56,2.4,0.51,0.25,0.75,5,2D1U,1,TRUE,0.425,1,FALSE,left,HH,,,,,,,,,
57,0.5,99,1,0.45,0.4333,0.7167,57,2.8667,0.538,0.2667,0.7667,5,3D1U,2,FALSE,0.499,2,FALSE,right,HH,,,,,,,,,
58,0.5,99,1,0.4167,0.2167,0.4667,58,1.9001,-0.41,-0.2,0.3,5,3U1D,2,TRUE,0.541,1,TRUE,right,HH,,,,,,,,,
59,0.5,99,1,0.4167,0.3,0.7,59,2.8167,0.8,0.4,0.9,5,lapse_rate,1,TRUE,0.383,0,FALSE,left,HH,,,,,,,,,
60,0.5,99,1,0.2667,0.35,0.7333,60,2.5833,0.45,0.2333,0.7333,5,2D1U,1,TRUE,0.391,1,FALSE,left,HH,,,,,,,,,
61,0.5,99,2,0.3333,0.4167,0.4833,61,2.1666,-0.15,-0.0667,0.4333,5,2U1D,1,TRUE,0.2,0,FALSE,left,HH,,,,,,,,,
62,0.5,99,2,0.3833,0.4333,0.85,62,2.9499,0.574,0.2833,0.7833,5,3D1U,2,TRUE,0.282,3,TRUE,right,HH,,,,,,,,,
63,0.5,99,1,0.25,0.2333,0.5833,63,2.0333,-0.05,-0.0333,0.4667,5,2U1D,2,TRUE,0.492,0,FALSE,right,HH,,,,,,,,,
64,0.5,99,2,0.25,0.4167,0.6167,64,2.5167,0.45,0.2333,0.7333,5,2D1U,2,TRUE,0.366,1,FALSE,right,HH,,,,,,,,,
65,0.5,99,2,0.2167,0.2333,0.4333,65,1.6833,-0.41,-0.2,0.3,5,3U1D,1,TRUE,0.65,1,TRUE,left,HH,,,,,,,,,
66,0.5,99,1,0.3167,0.2833,0.7,66,1.9,-0.8,-0.4,0.1,5,lapse_rate,2,TRUE,0.367,0,FALSE,right,HH,,,,,,,,,
67,0.5,99,2,0.2667,0.3667,0.5167,67,1.9668,-0.374,-0.1833,0.3167,5,3U1D,2,FALSE,0.392,2,TRUE,right,HH,,,,,,,,,
68,0.5,99,2,0.2333,0.2333,0.4833,68,2.3499,0.8,0.4,0.9,5,lapse_rate,2,TRUE,0.426,0,FALSE,right,HH,,,,,,,,,
69,0.5,99,1,0.3167,0.4167,0.8833,69,2.8167,0.39,0.2,0.7,5,2D1U,1,TRUE,0.41,1,FALSE,left,HH,,,,,,,,,
70,0.5,99,2,0.2167,0.3667,0.4667,70,2.3334,0.574,0.2833,0.7833,5,3D1U,2,TRUE,0.367,3,TRUE,right,HH,,,,,,,,,
71,0.5,99,2,0.2167,0.3,0.8667,71,2.3501,-0.05,-0.0333,0.4667,5,2U1D,2,FALSE,0.517,0,FALSE,right,HH,,,,,,,,,
72,0.5,99,2,0.2667,0.3167,0.9,72,2.4334,-0.11,-0.05,0.45,5,2U1D,2,FALSE,0.425,1,TRUE,right,HH,,,,,,,,,
73,0.5,99,1,0.25,0.4,0.7833,73,2.2333,-0.41,-0.2,0.3,5,3U1D,1,FALSE,0.425,3,TRUE,left,HH,,,,,,,,,
74,0.5,99,1,0.3,0.2833,0.7667,74,2.55,0.39,0.2,0.7,5,2D1U,1,TRUE,0.409,1,FALSE,left,HH,,,,,,,,,
75,0.5,99,2,0.2333,0.35,0.5167,75,2.2667,0.33,0.1667,0.6667,5,2D1U,2,TRUE,0.425,1,FALSE,right,HH,,,,,,,,,
76,0.5,99,2,0.3667,0.3167,0.7333,76,2.7,0.574,0.2833,0.7833,5,3D1U,2,TRUE,0.485,3,TRUE,right,HH,,,,,,,,,
77,0.5,99,2,0.4333,0.3833,0.6167,77,2.7,0.538,0.2667,0.7667,5,3D1U,2,TRUE,0.417,4,TRUE,right,HH,,,,,,,,,
78,0.5,99,2,0.4333,0.4167,0.8833,78,2.9,0.33,0.1667,0.6667,5,2D1U,2,TRUE,0.384,1,FALSE,right,HH,,,,,,,,,
79,0.5,99,2,0.3167,0.2833,0.7167,79,2.2334,-0.17,-0.0833,0.4167,5,2U1D,1,TRUE,0.475,1,FALSE,left,HH,,,,,,,,,
80,0.5,99,2,0.4333,0.3167,0.5667,80,2.1,-0.446,-0.2167,0.2833,5,3U1D,1,TRUE,0.475,3,FALSE,left,HH,,,,,,,,,
81,0.5,99,1,0.2667,0.4333,0.8667,81,2.8334,0.538,0.2667,0.7667,5,3D1U,2,FALSE,0.408,4,TRUE,right,HH,,,,,,,,,
82,0.5,99,1,0.25,0.35,0.5667,82,2.3,0.27,0.1333,0.6333,5,2D1U,1,TRUE,0.45,1,FALSE,left,HH,,,,,,,,,
83,0.5,99,1,0.25,0.4167,0.7833,83,2.2333,-0.446,-0.2167,0.2833,5,3U1D,2,TRUE,0.368,3,FALSE,right,HH,,,,,,,,,
84,0.5,99,1,0.2333,0.4333,0.8667,84,2.3166,-0.446,-0.2167,0.2833,5,3U1D,2,TRUE,0.392,3,FALSE,right,HH,,,,,,,,,
85,0.5,99,2,0.2833,0.2333,0.7333,85,2.5332,0.574,0.2833,0.7833,5,3D1U,2,TRUE,0.434,5,TRUE,right,HH,,,,,,,,,
86,0.5,99,1,0.4,0.45,0.5167,86,2.2834,-0.17,-0.0833,0.4167,5,2U1D,2,TRUE,0.483,1,FALSE,right,HH,,,,,,,,,
87,0.5,99,2,0.3,0.35,0.45,87,2.2333,0.27,0.1333,0.6333,5,2D1U,2,TRUE,0.442,1,FALSE,right,HH,,,,,,,,,
88,0.5,99,2,0.2167,0.3167,0.6833,88,2.3167,0.21,0.1,0.6,5,2D1U,1,FALSE,0.408,1,FALSE,left,HH,,,,,,,,,
89,0.5,99,1,0.2333,0.3333,0.6333,89,2.4832,0.574,0.2833,0.7833,5,3D1U,1,TRUE,0.325,5,TRUE,left,HH,,,,,,,,,
90,0.5,99,1,0.2667,0.4167,0.45,90,1.9334,-0.41,-0.2,0.3,5,3U1D,1,FALSE,0.551,4,TRUE,left,HH,,,,,,,,,
91,0.5,99,1,0.2667,0.2667,0.6167,91,2.0834,-0.134,-0.0667,0.4333,5,2U1D,2,TRUE,0.476,2,TRUE,right,HH,,,,,,,,,
92,0.5,99,1,0.3167,0.2333,0.8,92,2.6333,0.574,0.2833,0.7833,5,3D1U,2,FALSE,0.475,5,TRUE,right,HH,,,,,,,,,
93,0.5,99,1,0.3667,0.3333,0.5,93,1.9833,-0.446,-0.2167,0.2833,5,3U1D,1,FALSE,0.626,5,TRUE,left,HH,,,,,,,,,
94,0.5,99,1,0.4,0.2667,0.6167,94,2.4001,0.246,0.1167,0.6167,5,2D1U,1,TRUE,0.491,2,TRUE,left,HH,,,,,,,,,
95,0.5,99,2,0.2167,0.4167,0.8167,95,2.3834,-0.134,-0.0667,0.4333,5,2U1D,2,FALSE,0.392,2,TRUE,right,HH,,,,,,,,,
96,0.5,99,2,0.35,0.3667,0.8333,96,2.4667,-0.17,-0.0833,0.4167,5,2U1D,1,TRUE,0.333,3,TRUE,left,HH,,,,,,,,,
97,0.5,99,2,0.25,0.3667,0.4167,97,2.1501,0.246,0.1167,0.6167,5,2D1U,1,FALSE,0.324,2,TRUE,left,HH,,,,,,,,,
98,0.5,99,2,0.3667,0.3833,0.5833,98,2.25,-0.17,-0.0833,0.4167,5,2U1D,1,TRUE,0.433,3,TRUE,left,HH,,,,,,,,,
99,0.5,99,1,0.3667,0.2333,0.6667,99,2.5667,0.61,0.3,0.8,5,3D1U,1,TRUE,0.425,5,FALSE,left,HH,,,,,,,,,
100,0.5,99,2,0.45,0.25,0.6167,100,2.0834,-0.482,-0.2333,0.2667,5,3U1D,1,TRUE,0.458,5,FALSE,left,HH,,,,,,,,,
101,0.5,99,2,0.3333,0.4,0.65,101,2.15,-0.482,-0.2333,0.2667,5,3U1D,1,TRUE,0.358,5,FALSE,left,HH,,,,,,,,,
102,0.5,99,2,0.4,0.2167,0.65,102,2.2,-0.134,-0.0667,0.4333,5,2U1D,1,TRUE,0.708,4,TRUE,left,HH,,,,,,,,,
103,0.5,99,2,0.25,0.3167,0.4167,103,2.2834,0.61,0.3,0.8,5,3D1U,1,FALSE,2.034,5,FALSE,left,HH,,,,,,,,,
104,0.5,99,1,0.35,0.3333,0.65,104,2.4666,0.282,0.1333,0.6333,5,2D1U,1,TRUE,0.45,2,FALSE,left,HH,,,,,,,,,
105,0.5,99,1,0.2667,0.4,0.5833,105,2.0167,-0.482,-0.2333,0.2667,5,3U1D,2,TRUE,0.392,5,FALSE,right,HH,,,,,,,,,
106,0.5,99,2,0.25,0.3,0.8333,106,2.3166,-0.134,-0.0667,0.4333,5,2U1D,2,FALSE,0.442,4,TRUE,right,HH,,,,,,,,,
107,0.5,99,1,0.3167,0.3333,0.85,107,2.8167,0.646,0.3167,0.8167,5,3D1U,1,TRUE,0.525,5,FALSE,left,HH,,,,,,,,,
108,0.5,99,2,0.25,0.2333,0.7667,108,2.0333,-0.446,-0.2167,0.2833,5,3U1D,1,TRUE,0.534,6,TRUE,left,HH,,,,,,,,,
109,0.5,99,2,0.2167,0.4,0.7,109,2.45,0.282,0.1333,0.6333,5,2D1U,2,TRUE,0.375,2,FALSE,right,HH,,,,,,,,,
110,0.5,99,1,0.35,0.2333,0.65,110,2.15,-0.17,-0.0833,0.4167,5,2U1D,2,TRUE,0.492,5,TRUE,right,HH,,,,,,,,,
111,0.5,99,2,0.35,0.4333,0.7667,111,2.8667,0.646,0.3167,0.8167,5,3D1U,2,TRUE,0.383,5,FALSE,right,HH,,,,,,,,,
112,0.5,99,1,0.35,0.35,0.6167,112,2.2334,-0.17,-0.0833,0.4167,5,2U1D,1,FALSE,0.542,5,TRUE,left,HH,,,,,,,,,
113,0.5,99,2,0.4,0.45,0.6333,113,2.6,0.246,0.1167,0.6167,5,2D1U,2,TRUE,0.308,3,TRUE,right,HH,,,,,,,,,
114,0.5,99,1,0.3167,0.2167,0.6167,114,2.4668,0.646,0.3167,0.8167,5,3D1U,2,FALSE,0.442,5,FALSE,right,HH,,,,,,,,,
115,0.5,99,1,0.3833,0.3333,0.7667,115,2.2666,-0.446,-0.2167,0.2833,5,3U1D,2,TRUE,0.392,6,TRUE,right,HH,,,,,,,,,
116,0.5,99,2,0.4333,0.4167,0.6,116,2.35,-0.206,-0.1,0.4,5,2U1D,1,TRUE,0.533,5,FALSE,left,HH,,,,,,,,,
117,0.5,99,2,0.3,0.2167,0.6,117,2.2334,0.246,0.1167,0.6167,5,2D1U,2,TRUE,0.343,3,TRUE,right,HH,,,,,,,,,
118,0.5,99,2,0.3833,0.3333,0.6167,118,2.6666,0.682,0.3333,0.8333,5,3D1U,2,TRUE,0.449,5,FALSE,right,HH,,,,,,,,,
119,0.5,99,1,0.25,0.2833,0.6167,119,2.4833,0.682,0.3333,0.8333,5,3D1U,1,TRUE,0.442,5,FALSE,left,HH,,,,,,,,,
120,0.5,99,2,0.3667,0.2333,0.7833,120,2.1666,-0.446,-0.2167,0.2833,5,3U1D,1,TRUE,0.491,6,TRUE,left,HH,,,,,,,,,
121,0.5,99,1,0.4,0.3333,0.5833,121,2.2166,-0.206,-0.1,0.4,5,2U1D,2,TRUE,0.592,5,FALSE,right,HH,,,,,,,,,
122,0.5,99,2,0.2667,0.2,0.8667,122,2.1334,-0.41,-0.2,0.3,5,3U1D,1,TRUE,0.458,6,FALSE,left,HH,,,,,,,,,
123,0.5,99,1,0.2167,0.2667,0.6333,123,2.45,0.682,0.3333,0.8333,5,3D1U,1,TRUE,0.35,5,FALSE,left,HH,,,,,,,,,
124,0.5,99,1,0.35,0.3,0.6167,124,2.3667,0.21,0.1,0.6,5,2D1U,2,FALSE,0.442,3,FALSE,right,HH,,,,,,,,,
125,0.5,99,1,0.25,0.35,0.8667,125,2.3834,-0.17,-0.0833,0.4167,5,2U1D,2,TRUE,0.442,6,TRUE,right,HH,,,,,,,,,
126,0.5,99,2,0.3833,0.3667,0.5,126,2.1667,-0.17,-0.0833,0.4167,5,2U1D,1,TRUE,0.507,6,TRUE,left,HH,,,,,,,,,
127,0.5,99,2,0.35,0.4167,0.5167,127,2.0834,-0.41,-0.2,0.3,5,3U1D,1,TRUE,0.391,6,FALSE,left,HH,,,,,,,,,
128,0.5,99,1,0.35,0.3833,0.4,128,1.9333,-0.41,-0.2,0.3,5,3U1D,1,FALSE,0.383,6,FALSE,left,HH,,,,,,,,,
129,0.5,99,1,0.2833,0.4,0.5333,129,2.5333,0.646,0.3167,0.8167,5,3D1U,1,TRUE,0.342,6,TRUE,left,HH,,,,,,,,,
130,0.5,99,1,0.3333,0.2667,0.8667,130,2.4,-0.134,-0.0667,0.4333,5,2U1D,1,FALSE,0.625,6,FALSE,left,HH,,,,,,,,,
131,0.5,99,1,0.3667,0.45,0.7833,131,2.7167,0.246,0.1167,0.6167,5,2D1U,2,FALSE,0.359,4,TRUE,right,HH,,,,,,,,,
132,0.5,99,1,0.2833,0.3833,0.4667,132,2.2666,0.282,0.1333,0.6333,5,2D1U,1,TRUE,0.442,4,FALSE,left,HH,,,,,,,,,
133,0.5,99,2,0.45,0.2833,0.4333,133,1.9499,-0.446,-0.2167,0.2833,5,3U1D,1,TRUE,0.442,7,TRUE,left,HH,,,,,,,,,
134,0.5,99,2,0.3833,0.25,0.5167,134,2.0667,-0.17,-0.0833,0.4167,5,2U1D,2,FALSE,0.459,7,TRUE,right,HH,,,,,,,,,
135,0.5,99,2,0.2833,0.2667,0.5167,135,2.3834,0.646,0.3167,0.8167,5,3D1U,2,TRUE,0.483,6,TRUE,right,HH,,,,,,,,,
136,0.5,99,1,0.45,0.25,0.45,136,2.4667,0.646,0.3167,0.8167,5,3D1U,1,TRUE,0.499,6,TRUE,left,HH,,,,,,,,,
137,0.5,99,1,0.2667,0.4,0.6667,137,2.2334,-0.206,-0.1,0.4,5,2U1D,2,TRUE,0.392,7,FALSE,right,HH,,,,,,,,,
138,0.5,99,2,0.3333,0.3333,0.4167,138,1.8666,-0.446,-0.2167,0.2833,5,3U1D,1,TRUE,0.583,7,TRUE,left,HH,,,,,,,,,
139,0.5,99,1,0.3667,0.3667,0.6667,139,2.5334,0.282,0.1333,0.6333,5,2D1U,2,FALSE,0.384,4,FALSE,right,HH,,,,,,,,,
140,0.5,99,2,0.3333,0.2167,0.8667,140,2.7167,0.61,0.3,0.8,5,3D1U,2,TRUE,0.359,6,FALSE,right,HH,,,,,,,,,
141,0.5,99,1,0.3,0.2333,0.8833,141,2.3166,-0.206,-0.1,0.4,5,2U1D,2,TRUE,0.493,7,FALSE,right,HH,,,,,,,,,
142,0.5,99,2,0.2333,0.2333,0.8333,142,2.5999,0.61,0.3,0.8,5,3D1U,2,TRUE,0.484,6,FALSE,right,HH,,,,,,,,,
143,0.5,99,1,0.3,0.3333,0.4167,143,1.8333,-0.446,-0.2167,0.2833,5,3U1D,1,FALSE,0.475,7,TRUE,left,HH,,,,,,,,,
144,0.5,99,1,0.4,0.2167,0.5333,144,2.0667,-0.17,-0.0833,0.4167,5,2U1D,2,TRUE,0.518,8,TRUE,right,HH,,,,,,,,,
145,0.5,99,2,0.35,0.3667,0.4333,145,2.0667,-0.17,-0.0833,0.4167,5,2U1D,1,TRUE,0.425,8,TRUE,left,HH,,,,,,,,,
146,0.5,99,2,0.3667,0.45,0.8333,146,2.8167,0.318,0.1667,0.6667,5,2D1U,2,TRUE,0.258,4,FALSE,right,HH,,,,,,,,,
147,0.5,99,2,0.2333,0.3833,0.7833,147,2.1666,-0.482,-0.2333,0.2667,5,3U1D,1,TRUE,0.417,7,FALSE,left,HH,,,,,,,,,
148,0.5,99,1,0.35,0.3833,0.45,148,2.35,0.318,0.1667,0.6667,5,2D1U,1,TRUE,0.375,4,FALSE,left,HH,,,,,,,,,
149,0.5,99,1,0.2833,0.45,0.8833,149,2.9166,0.61,0.3,0.8,5,3D1U,2,FALSE,0.475,6,FALSE,right,HH,,,,,,,,,
150,0.5,99,2,0.3333,0.2667,0.8333,150,2.2,-0.482,-0.2333,0.2667,5,3U1D,1,TRUE,0.508,7,FALSE,left,HH,,,,,,,,,
151,0.5,99,1,0.2833,0.25,0.4167,151,2.0833,0.282,0.1333,0.6333,5,2D1U,1,TRUE,0.725,5,TRUE,left,HH,,,,,,,,,
152,0.5,99,1,0.3833,0.25,0.55,152,2.3166,0.282,0.1333,0.6333,5,2D1U,1,TRUE,0.392,5,TRUE,left,HH,,,,,,,,,
153,0.5,99,1,0.4,0.4,0.7667,153,2.6834,0.246,0.1167,0.6167,5,2D1U,2,FALSE,0.342,5,FALSE,right,HH,,,,,,,,,
0,0.5,99,1,0.3167,0.3167,0.8167,0,2.8501,0.8,0.4,0.9,5,lapse_rate,1,TRUE,0.385,0,FALSE,left,IP,,,,,,,,,
1,0.5,99,2,0.3167,0.3333,0.4167,1,2.4,0.65,0.3333,0.8333,5,3D1U,2,TRUE,0.183,0,FALSE,right,IP,,,,,,,,,
2,0.5,99,1,0.4,0.2833,0.4667,2,1.8167,-0.65,-0.3333,0.1667,5,2U1D,2,TRUE,0.266,0,FALSE,right,IP,,,,,,,,,
3,0.5,99,1,0.3167,0.35,0.75,3,2.75,0.65,0.3333,0.8333,5,2D1U,2,FALSE,0.374,0,FALSE,right,IP,,,,,,,,,
4,0.5,99,1,0.4333,0.2333,0.4,4,1.7333,-0.65,-0.3333,0.1667,5,3U1D,2,TRUE,0.408,0,FALSE,right,IP,,,,,,,,,
5,0.5,99,2,0.2833,0.2333,0.6167,5,2.4666,0.65,0.3333,0.8333,5,3D1U,2,TRUE,0.359,0,FALSE,right,IP,,,,,,,,,
6,0.5,99,2,0.3,0.3167,0.4667,6,1.6834,-0.8,-0.4,0.1,5,lapse_rate,1,TRUE,0.45,0,FALSE,left,IP,,,,,,,,,
7,0.5,99,2,0.2333,0.2333,0.7167,7,1.7833,-0.8,-0.4,0.1,5,lapse_rate,1,TRUE,0.449,0,FALSE,left,IP,,,,,,,,,
8,0.5,99,2,0.2333,0.3667,0.7333,8,2,-0.65,-0.3333,0.1667,5,3U1D,1,TRUE,0.391,0,FALSE,left,IP,,,,,,,,,
9,0.5,99,1,0.4,0.2333,0.4333,9,2.4333,0.75,0.3667,0.8667,5,2D1U,1,TRUE,0.334,0,FALSE,left,IP,,,,,,,,,
10,0.5,99,1,0.35,0.3833,0.8,10,2.2,-0.65,-0.3333,0.1667,5,2U1D,2,TRUE,0.166,0,FALSE,right,IP,,,,,,,,,
11,0.5,99,1,0.3833,0.3833,0.8667,11,2.9666,0.65,0.3333,0.8333,5,3D1U,1,TRUE,0.458,0,FALSE,left,IP,,,,,,,,,
12,0.5,99,2,0.2167,0.3833,0.7333,12,2.6,0.55,0.2667,0.7667,5,3D1U,2,TRUE,1.249,0,FALSE,right,IP,,,,,,,,,
13,0.5,99,1,0.3833,0.25,0.8667,13,2.1667,-0.65,-0.3333,0.1667,5,3U1D,2,TRUE,0.25,0,FALSE,right,IP,,,,,,,,,
14,0.5,99,2,0.3667,0.25,0.7167,14,2.0501,-0.55,-0.2667,0.2167,5,2U1D,1,TRUE,0.548,0,FALSE,left,IP,,,,,,,,,
15,0.5,99,1,0.3667,0.3333,0.65,15,1.95,-0.8,-0.4,0.1,5,lapse_rate,2,TRUE,0.233,0,FALSE,right,IP,,,,,,,,,
16,0.5,99,2,0.35,0.2667,0.5833,16,2.5667,0.75,0.3667,0.8667,5,2D1U,2,TRUE,0.167,0,FALSE,right,IP,,,,,,,,,
17,0.5,99,2,0.4167,0.3167,0.5,17,1.9501,-0.55,-0.2667,0.2167,5,3U1D,1,TRUE,0.85,0,FALSE,left,IP,,,,,,,,,
18,0.5,99,2,0.4,0.2833,0.6,18,2.6333,0.69,0.35,0.85,5,2D1U,2,TRUE,0.308,1,TRUE,right,IP,,,,,,,,,
19,0.5,99,2,0.4167,0.3167,0.5167,19,1.9668,-0.55,-0.2667,0.2167,5,2U1D,1,TRUE,0.434,0,FALSE,left,IP,,,,,,,,,
20,0.5,99,2,0.4,0.45,0.6333,20,2.8833,0.8,0.4,0.9,5,lapse_rate,2,TRUE,0.166,0,FALSE,right,IP,,,,,,,,,
21,0.5,99,1,0.4333,0.35,0.6,21,2.65,0.55,0.2667,0.7667,5,3D1U,2,FALSE,0.367,0,FALSE,right,IP,,,,,,,,,
22,0.5,99,1,0.4,0.4,0.5833,22,2.7333,0.69,0.35,0.85,5,2D1U,2,FALSE,1.167,1,TRUE,right,IP,,,,,,,,,
23,0.5,99,1,0.3,0.45,0.7167,23,2.2334,-0.45,-0.2333,0.2667,5,2U1D,2,TRUE,0.16,0,FALSE,right,IP,,,,,,,,,
24,0.5,99,2,0.3333,0.2833,0.5333,24,2.5499,0.8,0.4,0.9,5,lapse_rate,2,TRUE,0.167,0,FALSE,right,IP,,,,,,,,,
25,0.5,99,2,0.3833,0.3167,0.7167,25,2.1334,-0.55,-0.2667,0.2167,5,3U1D,1,TRUE,0.401,0,FALSE,left,IP,,,,,,,,,
26,0.5,99,2,0.2833,0.2167,0.4333,26,2.2333,0.61,0.3,0.8,5,3D1U,2,TRUE,0.242,1,TRUE,right,IP,,,,,,,,,
27,0.5,99,1,0.4,0.3833,0.5333,27,2.0333,-0.55,-0.2667,0.2167,5,3U1D,2,TRUE,0.165,0,FALSE,right,IP,,,,,,,,,
28,0.5,99,2,0.2,0.2167,0.8,28,1.8167,-0.8,-0.4,0.1,5,lapse_rate,1,TRUE,0.409,0,FALSE,left,IP,,,,,,,,,
29,0.5,99,2,0.3167,0.4,0.6333,29,2.1167,-0.45,-0.2333,0.2667,5,2U1D,1,TRUE,0.291,0,FALSE,left,IP,,,,,,,,,
30,0.5,99,2,0.4,0.4167,0.6,30,2.7834,0.726,0.3667,0.8667,5,2D1U,2,TRUE,0.167,2,TRUE,right,IP,,,,,,,,,
31,0.5,99,1,0.3833,0.2667,0.8333,31,2.7833,0.61,0.3,0.8,5,3D1U,1,TRUE,0.577,1,TRUE,left,IP,,,,,,,,,
32,0.5,99,2,0.3833,0.25,0.6667,32,2.0667,-0.45,-0.2333,0.2667,5,3U1D,1,TRUE,0.417,0,FALSE,left,IP,,,,,,,,,
33,0.5,99,1,0.4167,0.4,0.6167,33,2.2667,-0.35,-0.1667,0.3333,5,2U1D,2,TRUE,0.157,0,FALSE,right,IP,,,,,,,,,
34,0.5,99,1,0.4167,0.25,0.85,34,2.8167,0.61,0.3,0.8,5,3D1U,1,TRUE,0.275,1,TRUE,left,IP,,,,,,,,,
35,0.5,99,1,0.45,0.4,0.5,35,2.7167,0.726,0.3667,0.8667,5,2D1U,1,TRUE,0.21,2,TRUE,left,IP,,,,,,,,,
36,0.5,99,2,0.2833,0.3,0.7333,36,1.9166,-0.8,-0.4,0.1,5,lapse_rate,1,TRUE,0.449,0,FALSE,left,IP,,,,,,,,,
37,0.5,99,2,0.3,0.2167,0.85,37,2.2,-0.35,-0.1667,0.3333,5,2U1D,1,TRUE,0.432,0,FALSE,left,IP,,,,,,,,,
38,0.5,99,1,0.2667,0.2167,0.9,38,2.1501,-0.45,-0.2333,0.2667,5,3U1D,2,TRUE,1.526,0,FALSE,right,IP,,,,,,,,,
39,0.5,99,1,0.4333,0.2333,0.5333,39,2.5499,0.69,0.35,0.85,5,2D1U,1,TRUE,0.367,3,TRUE,left,IP,,,,,,,,,
40,0.5,99,2,0.3333,0.3667,0.4167,40,1.7167,-0.8,-0.4,0.1,5,lapse_rate,1,TRUE,0.526,0,FALSE,left,IP,,,,,,,,,
41,0.5,99,1,0.35,0.3167,0.5,41,2.45,0.574,0.2833,0.7833,5,3D1U,1,TRUE,0.233,2,TRUE,left,IP,,,,,,,,,
42,0.5,99,2,0.2833,0.3167,0.6,42,1.9667,-0.45,-0.2333,0.2667,5,3U1D,1,TRUE,0.375,0,FALSE,left,IP,,,,,,,,,
43,0.5,99,1,0.3,0.2667,0.4167,43,1.8501,-0.25,-0.1333,0.3667,5,2U1D,1,FALSE,0.382,0,FALSE,left,IP,,,,,,,,,
44,0.5,99,1,0.4167,0.2833,0.8333,44,2.8833,0.69,0.35,0.85,5,2D1U,1,TRUE,0.167,3,TRUE,left,IP,,,,,,,,,
45,0.5,99,1,0.25,0.35,0.8167,45,2.7,0.574,0.2833,0.7833,5,3D1U,1,TRUE,0.308,2,TRUE,left,IP,,,,,,,,,
46,0.5,99,2,0.3333,0.2833,0.8167,46,2.0333,-0.8,-0.4,0.1,5,lapse_rate,1,TRUE,0.616,0,FALSE,left,IP,,,,,,,,,
47,0.5,99,1,0.2833,0.25,0.6833,47,2.0499,-0.35,-0.1667,0.3333,5,3U1D,2,TRUE,0.492,0,FALSE,right,IP,,,,,,,,,
48,0.5,99,1,0.2333,0.3333,0.5667,48,2.4166,0.574,0.2833,0.7833,5,3D1U,1,TRUE,0.283,2,TRUE,left,IP,,,,,,,,,
49,0.5,99,2,0.25,0.2833,0.5667,49,2.5,0.8,0.4,0.9,5,lapse_rate,2,TRUE,0.25,0,FALSE,right,IP,,,,,,,,,
50,0.5,99,2,0.2167,0.3,0.65,50,2.5,0.654,0.3333,0.8333,5,2D1U,2,TRUE,0.267,3,FALSE,right,IP,,,,,,,,,
51,0.5,99,2,0.2333,0.25,0.9,51,2.2333,-0.31,-0.15,0.35,5,2U1D,1,TRUE,0.417,1,TRUE,left,IP,,,,,,,,,
52,0.5,99,2,0.45,0.3333,0.8333,52,2.9499,0.654,0.3333,0.8333,5,2D1U,2,TRUE,0.235,3,FALSE,right,IP,,,,,,,,,
53,0.5,99,1,0.2,0.25,0.5667,53,2.2834,0.538,0.2667,0.7667,5,3D1U,1,TRUE,0.584,2,FALSE,left,IP,,,,,,,,,
54,0.5,99,1,0.2,0.4333,0.7667,54,2.8,0.8,0.4,0.9,5,lapse_rate,1,TRUE,0.349,0,FALSE,left,IP,,,,,,,,,
55,0.5,99,1,0.3,0.4333,0.65,55,2.2333,-0.31,-0.15,0.35,5,2U1D,2,TRUE,0.191,1,TRUE,right,IP,,,,,,,,,
56,0.5,99,2,0.4,0.25,0.4,56,1.8833,-0.35,-0.1667,0.3333,5,3U1D,1,TRUE,0.36,0,FALSE,left,IP,,,,,,,,,
57,0.5,99,2,0.45,0.3667,0.7167,57,2.8501,0.618,0.3167,0.8167,5,2D1U,2,TRUE,4.076,3,FALSE,right,IP,,,,,,,,,
58,0.5,99,2,0.2833,0.3167,0.5667,58,2.0334,-0.274,-0.1333,0.3667,5,2U1D,1,TRUE,0.49,2,TRUE,left,IP,,,,,,,,,
59,0.5,99,2,0.35,0.25,0.5,59,2.5,0.8,0.4,0.9,5,lapse_rate,2,TRUE,0.266,0,FALSE,right,IP,,,,,,,,,
60,0.5,99,2,0.2167,0.4167,0.55,60,2.4501,0.538,0.2667,0.7667,5,3D1U,2,TRUE,0.241,2,FALSE,right,IP,,,,,,,,,
61,0.5,99,1,0.3667,0.3833,0.4833,61,2.0666,-0.35,-0.1667,0.3333,5,3U1D,2,TRUE,0.25,0,FALSE,right,IP,,,,,,,,,
62,0.5,99,2,0.3,0.4333,0.5,62,2.6333,0.8,0.4,0.9,5,lapse_rate,2,TRUE,0.158,0,FALSE,right,IP,,,,,,,,,
63,0.5,99,1,0.2667,0.3833,0.7833,63,2.3,-0.274,-0.1333,0.3667,5,2U1D,2,TRUE,0.192,2,TRUE,right,IP,,,,,,,,,
64,0.5,99,2,0.3833,0.3167,0.45,64,2.4667,0.618,0.3167,0.8167,5,2D1U,2,TRUE,0.241,3,FALSE,right,IP,,,,,,,,,
65,0.5,99,1,0.3667,0.4167,0.55,65,2.6001,0.538,0.2667,0.7667,5,3D1U,2,FALSE,1.142,2,FALSE,right,IP,,,,,,,,,
66,0.5,99,1,0.35,0.3,0.5167,66,2.0334,-0.25,-0.1333,0.3667,5,3U1D,2,TRUE,0.326,0,FALSE,right,IP,,,,,,,,,
67,0.5,99,1,0.2333,0.2333,0.6667,67,2.0166,-0.238,-0.1167,0.3833,5,2U1D,2,TRUE,0.258,2,FALSE,right,IP,,,,,,,,,
68,0.5,99,1,0.3667,0.2333,0.5167,68,2.4,0.574,0.2833,0.7833,5,3D1U,1,TRUE,0.234,3,TRUE,left,IP,,,,,,,,,
69,0.5,99,1,0.4333,0.4,0.45,69,2.5666,0.582,0.2833,0.7833,5,2D1U,1,TRUE,0.349,3,FALSE,left,IP,,,,,,,,,
70,0.5,99,1,0.25,0.3,0.8833,70,2.3,-0.25,-0.1333,0.3667,5,3U1D,2,TRUE,0.224,0,FALSE,right,IP,,,,,,,,,
71,0.5,99,2,0.2167,0.35,0.6667,71,2.5167,0.582,0.2833,0.7833,5,2D1U,2,TRUE,0.192,3,FALSE,right,IP,,,,,,,,,
72,0.5,99,2,0.4,0.2167,0.5167,72,2.4167,0.574,0.2833,0.7833,5,3D1U,2,TRUE,0.258,3,TRUE,right,IP,,,,,,,,,
73,0.5,99,1,0.3167,0.2667,0.45,73,2.3167,0.574,0.2833,0.7833,5,3D1U,2,FALSE,0.316,3,TRUE,right,IP,,,,,,,,,
74,0.5,99,2,0.2333,0.3833,0.55,74,2.4333,0.546,0.2667,0.7667,5,2D1U,2,TRUE,0.168,3,FALSE,right,IP,,,,,,,,,
75,0.5,99,1,0.4167,0.4167,0.8833,75,2.6,-0.238,-0.1167,0.3833,5,2U1D,1,FALSE,1.218,2,FALSE,left,IP,,,,,,,,,
76,0.5,99,2,0.2667,0.3833,0.65,76,2.1667,-0.25,-0.1333,0.3667,5,3U1D,1,TRUE,0.358,0,FALSE,left,IP,,,,,,,,,
77,0.5,99,2,0.3167,0.3167,0.7333,77,2.6667,0.61,0.3,0.8,5,3D1U,2,TRUE,0.179,3,FALSE,right,IP,,,,,,,,,
78,0.5,99,1,0.2333,0.25,0.4167,78,2.1667,0.546,0.2667,0.7667,5,2D1U,1,TRUE,0.459,3,FALSE,left,IP,,,,,,,,,
79,0.5,99,1,0.2667,0.4,0.75,79,2.6667,0.51,0.25,0.75,5,2D1U,1,TRUE,0.449,3,FALSE,left,IP,,,,,,,,,
80,0.5,99,2,0.4,0.2667,0.8833,80,2.4167,-0.274,-0.1333,0.3667,5,2U1D,1,TRUE,0.492,3,TRUE,left,IP,,,,,,,,,
81,0.5,99,2,0.2167,0.3,0.4,81,1.85,-0.15,-0.0667,0.4333,5,3U1D,1,TRUE,0.541,0,FALSE,left,IP,,,,,,,,,
82,0.5,99,1,0.4167,0.35,0.4167,82,2.4334,0.51,0.25,0.75,5,2D1U,1,TRUE,0.207,3,FALSE,left,IP,,,,,,,,,
83,0.5,99,2,0.4167,0.2833,0.8,83,2.3667,-0.274,-0.1333,0.3667,5,2U1D,1,TRUE,0.392,3,TRUE,left,IP,,,,,,,,,
84,0.5,99,2,0.4,0.3667,0.5167,84,2.1667,-0.238,-0.1167,0.3833,5,2U1D,1,TRUE,0.442,4,TRUE,left,IP,,,,,,,,,
85,0.5,99,2,0.45,0.45,0.6833,85,2.8833,0.61,0.3,0.8,5,3D1U,2,TRUE,0.342,3,FALSE,right,IP,,,,,,,,,
86,0.5,99,1,0.2833,0.45,0.6333,86,2.2999,-0.15,-0.0667,0.4333,5,3U1D,2,TRUE,1.307,0,FALSE,right,IP,,,,,,,,,
87,0.5,99,2,0.4333,0.2333,0.8833,87,2.8499,0.61,0.3,0.8,5,3D1U,2,TRUE,0.708,3,FALSE,right,IP,,,,,,,,,
88,0.5,99,2,0.2833,0.3333,0.4667,88,2.0166,-0.15,-0.0667,0.4333,5,3U1D,1,TRUE,0.408,0,FALSE,left,IP,,,,,,,,,
89,0.5,99,1,0.4167,0.3167,0.65,89,2.6167,0.474,0.2333,0.7333,5,2D1U,1,TRUE,0.401,3,FALSE,left,IP,,,,,,,,,
90,0.5,99,2,0.35,0.2667,0.5167,90,2.0167,-0.238,-0.1167,0.3833,5,2U1D,1,TRUE,0.401,4,TRUE,left,IP,,,,,,,,,
91,0.5,99,1,0.3667,0.3167,0.5,91,2.4667,0.574,0.2833,0.7833,5,3D1U,1,TRUE,0.327,4,TRUE,left,IP,,,,,,,,,
92,0.5,99,2,0.2667,0.2167,0.85,92,2.5667,0.474,0.2333,0.7333,5,2D1U,2,TRUE,0.249,3,FALSE,right,IP,,,,,,,,,
93,0.5,99,2,0.3167,0.4333,0.8667,93,2.9,0.574,0.2833,0.7833,5,3D1U,2,TRUE,0.167,4,TRUE,right,IP,,,,,,,,,
94,0.5,99,2,0.3167,0.3167,0.4167,94,2.0168,-0.05,-0.0333,0.4667,5,3U1D,1,TRUE,0.458,0,FALSE,left,IP,,,,,,,,,
95,0.5,99,2,0.4167,0.3167,0.8333,95,2.4667,-0.202,-0.1,0.4,5,2U1D,2,FALSE,0.267,4,FALSE,right,IP,,,,,,,,,
96,0.5,99,2,0.4,0.2833,0.6833,96,2.2499,-0.238,-0.1167,0.3833,5,2U1D,1,TRUE,0.592,5,TRUE,left,IP,,,,,,,,,
97,0.5,99,1,0.2833,0.3333,0.6,97,2.4999,0.574,0.2833,0.7833,5,3D1U,1,TRUE,0.316,4,TRUE,left,IP,,,,,,,,,
98,0.5,99,1,0.35,0.2667,0.4667,98,2.3001,0.438,0.2167,0.7167,5,2D1U,1,TRUE,0.233,3,FALSE,left,IP,,,,,,,,,
99,0.5,99,2,0.3833,0.2167,0.8833,99,2.45,-0.05,-0.0333,0.4667,5,3U1D,2,FALSE,1.576,0,FALSE,right,IP,,,,,,,,,
100,0.5,99,2,0.3667,0.4,0.7333,100,2.3833,-0.238,-0.1167,0.3833,5,2U1D,1,TRUE,0.449,5,TRUE,left,IP,,,,,,,,,
101,0.5,99,1,0.4333,0.4167,0.65,101,2.7667,0.538,0.2667,0.7667,5,3D1U,1,TRUE,0.342,4,FALSE,left,IP,,,,,,,,,
102,0.5,99,1,0.3333,0.4,0.7667,102,2.7667,0.538,0.2667,0.7667,5,3D1U,2,FALSE,0.543,4,FALSE,right,IP,,,,,,,,,
103,0.5,99,1,0.2833,0.4333,0.4333,103,2.0999,-0.11,-0.05,0.45,5,3U1D,1,FALSE,0.792,1,TRUE,left,IP,,,,,,,,,
104,0.5,99,1,0.3667,0.2333,0.4,104,1.9167,-0.17,-0.0833,0.4167,5,3U1D,1,FALSE,0.417,1,FALSE,left,IP,,,,,,,,,
105,0.5,99,1,0.4,0.4333,0.4333,105,2.1666,-0.202,-0.1,0.4,5,2U1D,1,FALSE,0.526,6,TRUE,left,IP,,,,,,,,,
106,0.5,99,1,0.3667,0.3,0.4833,106,2.3667,0.438,0.2167,0.7167,5,2D1U,1,TRUE,0.634,3,FALSE,left,IP,,,,,,,,,
107,0.5,99,1,0.4,0.45,0.5,107,2.2333,-0.23,-0.1167,0.3833,5,3U1D,2,TRUE,0.258,1,FALSE,right,IP,,,,,,,,,
108,0.5,99,1,0.2667,0.4333,0.6167,108,2.5167,0.402,0.2,0.7,5,2D1U,2,FALSE,0.491,3,FALSE,right,IP,,,,,,,,,
109,0.5,99,1,0.2833,0.45,0.7333,109,2.6833,0.438,0.2167,0.7167,5,2D1U,2,FALSE,0.383,4,TRUE,right,IP,,,,,,,,,
110,0.5,99,1,0.35,0.4167,0.45,110,2.5,0.574,0.2833,0.7833,5,3D1U,2,FALSE,1.117,5,TRUE,right,IP,,,,,,,,,
111,0.5,99,2,0.4,0.2667,0.8,111,2.35,-0.238,-0.1167,0.3833,5,2U1D,1,TRUE,0.491,7,TRUE,left,IP,,,,,,,,,
112,0.5,99,2,0.2333,0.2833,0.45,112,2.1999,0.474,0.2333,0.7333,5,2D1U,2,TRUE,0.282,4,FALSE,right,IP,,,,,,,,,
113,0.5,99,2,0.45,0.3667,0.7833,113,2.8333,0.474,0.2333,0.7333,5,2D1U,2,TRUE,0.308,4,FALSE,right,IP,,,,,,,,,
114,0.5,99,1,0.2333,0.2667,0.7167,114,2.1,-0.238,-0.1167,0.3833,5,2U1D,2,TRUE,0.426,7,TRUE,right,IP,,,,,,,,,
115,0.5,99,2,0.3,0.2833,0.5167,115,2.4,0.61,0.3,0.8,5,3D1U,2,TRUE,0.218,5,FALSE,right,IP,,,,,,,,,
116,0.5,99,1,0.2833,0.25,0.7667,116,2.1833,-0.23,-0.1167,0.3833,5,3U1D,2,TRUE,0.625,1,FALSE,right,IP,,,,,,,,,
117,0.5,99,2,0.2333,0.35,0.4667,117,2.35,0.61,0.3,0.8,5,3D1U,2,TRUE,0.283,5,FALSE,right,IP,,,,,,,,,
118,0.5,99,2,0.4167,0.3667,0.6833,118,2.3667,-0.202,-0.1,0.4,5,2U1D,2,FALSE,0.516,8,TRUE,right,IP,,,,,,,,,
119,0.5,99,1,0.2167,0.3333,0.45,119,1.8833,-0.238,-0.1167,0.3833,5,2U1D,1,FALSE,0.475,9,TRUE,left,IP,,,,,,,,,
120,0.5,99,2,0.3833,0.4167,0.6167,120,2.3,-0.23,-0.1167,0.3833,5,3U1D,2,FALSE,0.367,1,FALSE,right,IP,,,,,,,,,
121,0.5,99,1,0.2,0.2833,0.55,121,2.25,0.438,0.2167,0.7167,5,2D1U,2,FALSE,0.417,5,TRUE,right,IP,,,,,,,,,
122,0.5,99,1,0.2333,0.2,0.6333,122,1.9166,-0.29,-0.15,0.35,5,3U1D,2,TRUE,0.275,1,FALSE,right,IP,,,,,,,,,
123,0.5,99,2,0.4167,0.3,0.9,123,2.9167,0.61,0.3,0.8,5,3D1U,1,FALSE,0.583,5,FALSE,left,IP,,,,,,,,,
124,0.5,99,2,0.3167,0.2833,0.8,124,2.2667,-0.274,-0.1333,0.3667,5,2U1D,1,TRUE,0.482,9,FALSE,left,IP,,,,,,,,,
125,0.5,99,2,0.4167,0.2,0.8167,125,2.3001,-0.274,-0.1333,0.3667,5,2U1D,1,TRUE,1.84,9,FALSE,left,IP,,,,,,,,,
126,0.5,99,2,0.3667,0.3667,0.75,126,2.7167,0.474,0.2333,0.7333,5,2D1U,2,TRUE,0.167,6,TRUE,right,IP,,,,,,,,,
127,0.5,99,2,0.3667,0.2333,0.8,127,2.7167,0.646,0.3167,0.8167,5,3D1U,2,TRUE,0.26,5,FALSE,right,IP,,,,,,,,,
128,0.5,99,1,0.2167,0.2167,0.4333,128,2.1834,0.646,0.3167,0.8167,5,3D1U,2,FALSE,0.325,5,FALSE,right,IP,,,,,,,,,
129,0.5,99,1,0.3167,0.3667,0.45,129,1.9834,-0.29,-0.15,0.35,5,3U1D,1,FALSE,0.466,1,FALSE,left,IP,,,,,,,,,
130,0.5,99,2,0.4333,0.3333,0.65,130,2.2999,-0.238,-0.1167,0.3833,5,2U1D,1,TRUE,0.424,10,TRUE,left,IP,,,,,,,,,
131,0.5,99,2,0.3667,0.4167,0.4667,131,2.4834,0.474,0.2333,0.7333,5,2D1U,2,TRUE,0.218,6,TRUE,right,IP,,,,,,,,,
132,0.5,99,2,0.4167,0.3167,0.7667,132,2.3834,-0.238,-0.1167,0.3833,5,2U1D,1,TRUE,0.675,10,TRUE,left,IP,,,,,,,,,
133,0.5,99,1,0.4,0.3167,0.4167,133,1.9667,-0.35,-0.1667,0.3333,5,3U1D,1,FALSE,0.425,1,FALSE,left,IP,,,,,,,,,
134,0.5,99,2,0.3667,0.2667,0.4667,134,2.3168,0.438,0.2167,0.7167,5,2D1U,2,TRUE,0.309,7,TRUE,right,IP,,,,,,,,,
135,0.5,99,1,0.2167,0.4,0.8167,135,2.7667,0.682,0.3333,0.8333,5,3D1U,2,FALSE,0.367,5,FALSE,right,IP,,,,,,,,,
136,0.5,99,2,0.2833,0.3667,0.9,136,2.9167,0.718,0.3667,0.8667,5,3D1U,2,TRUE,0.433,5,FALSE,right,IP,,,,,,,,,
137,0.5,99,2,0.2667,0.3,0.6833,137,2.05,-0.41,-0.2,0.3,5,3U1D,1,TRUE,0.451,1,FALSE,left,IP,,,,,,,,,
138,0.5,99,2,0.3833,0.25,0.8833,138,2.4166,-0.202,-0.1,0.4,5,2U1D,2,FALSE,0.734,10,FALSE,right,IP,,,,,,,,,
139,0.5,99,1,0.3333,0.4167,0.8833,139,3,0.718,0.3667,0.8667,5,3D1U,1,TRUE,0.634,5,FALSE,left,IP,,,,,,,,,
140,0.5,99,2,0.3833,0.2667,0.6667,140,2.5334,0.438,0.2167,0.7167,5,2D1U,2,TRUE,0.257,7,TRUE,right,IP,,,,,,,,,
141,0.5,99,2,0.3833,0.4,0.65,141,2.6333,0.402,0.2,0.7,5,2D1U,2,TRUE,0.166,7,FALSE,right,IP,,,,,,,,,
142,0.5,99,2,0.2667,0.2667,0.85,142,2.5834,0.402,0.2,0.7,5,2D1U,2,TRUE,0.224,7,FALSE,right,IP,,,,,,,,,
143,0.5,99,1,0.25,0.2,0.8167,143,2.15,-0.238,-0.1167,0.3833,5,2U1D,2,TRUE,0.274,11,TRUE,right,IP,,,,,,,,,
144,0.5,99,1,0.4333,0.3,0.5,144,2.6,0.718,0.3667,0.8667,5,3D1U,1,TRUE,0.183,5,FALSE,left,IP,,,,,,,,,
145,0.5,99,2,0.3167,0.3333,0.55,145,2,-0.41,-0.2,0.3,5,3U1D,1,TRUE,0.418,1,FALSE,left,IP,,,,,,,,,
146,0.5,99,2,0.45,0.35,0.65,146,2.25,-0.41,-0.2,0.3,5,3U1D,1,TRUE,0.4,1,FALSE,left,IP,,,,,,,,,
147,0.5,99,1,0.3167,0.3167,0.4333,147,2.25,0.366,0.1833,0.6833,5,2D1U,1,TRUE,0.509,7,FALSE,left,IP,,,,,,,,,
148,0.5,99,2,0.3333,0.3167,0.4667,148,2,-0.238,-0.1167,0.3833,5,2U1D,1,TRUE,0.532,11,TRUE,left,IP,,,,,,,,,
149,0.5,99,2,0.4167,0.3167,0.5667,149,2.2001,-0.202,-0.1,0.4,5,2U1D,2,FALSE,0.308,12,TRUE,right,IP,,,,,,,,,
150,0.5,99,1,0.3167,0.25,0.5333,150,1.9167,-0.374,-0.1833,0.3167,5,3U1D,2,TRUE,0.274,2,TRUE,right,IP,,,,,,,,,
151,0.5,99,1,0.45,0.2,0.5167,151,1.9834,-0.374,-0.1833,0.3167,5,3U1D,2,TRUE,0.351,2,TRUE,right,IP,,,,,,,,,
152,0.5,99,2,0.2833,0.35,0.6833,152,2.1333,-0.374,-0.1833,0.3167,5,3U1D,1,TRUE,0.483,2,TRUE,left,IP,,,,,,,,,
153,0.5,99,2,0.35,0.3833,0.8333,153,2.3999,-0.338,-0.1667,0.3333,5,3U1D,1,TRUE,0.457,2,FALSE,left,IP,,,,,,,,,
0,0.5,99,2,0.2167,0.3667,0.55,0,1.6834,-0.9,-0.45,0.05,5,1D3U,1,TRUE,0.39,0,FALSE,left,LN,,,,,,,,,
1,0.5,99,2,0.4,0.3167,0.4167,1,1.6834,-0.9,-0.45,0.05,5,3D1U,1,TRUE,0.484,0,FALSE,left,LN,,,,,,,,,
2,0.5,99,2,0.35,0.3333,0.7167,2,1.95,-0.9,-0.45,0.05,5,1D3U,1,TRUE,0.45,0,FALSE,left,LN,,,,,,,,,
3,0.5,99,1,0.3667,0.2,0.5333,3,1.65,-0.9,-0.45,0.05,5,2D1U,2,TRUE,0.457,0,FALSE,right,LN,,,,,,,,,
4,0.5,99,1,0.3167,0.4167,0.6167,4,2.7501,0.8,0.4,0.9,5,lapse_rate,1,TRUE,0.783,0,FALSE,left,LN,,,,,,,,,
5,0.5,99,2,0.35,0.3,0.75,5,1.95,-0.9,-0.45,0.05,5,1D2U,1,TRUE,0.425,0,FALSE,left,LN,,,,,,,,,
6,0.5,99,2,0.4333,0.4,0.6333,6,2.0999,-0.74,-0.3667,0.1333,5,3D1U,1,TRUE,0.474,0,FALSE,left,LN,,,,,,,,,
7,0.5,99,2,0.2333,0.25,0.8667,7,1.9833,-0.74,-0.3667,0.1333,5,2D1U,1,TRUE,0.517,0,FALSE,left,LN,,,,,,,,,
8,0.5,99,1,0.2333,0.2667,0.4667,8,1.5167,-0.9,-0.45,0.05,5,1D2U,2,TRUE,0.441,0,FALSE,right,LN,,,,,,,,,
9,0.5,99,1,0.4167,0.2667,0.4667,9,1.7001,-0.9,-0.45,0.05,5,1D3U,2,TRUE,0.475,0,FALSE,right,LN,,,,,,,,,
10,0.5,99,2,0.3,0.2667,0.8167,10,2.1001,-0.58,-0.2833,0.2167,5,3D1U,2,FALSE,0.759,0,FALSE,right,LN,,,,,,,,,
11,0.5,99,2,0.2833,0.2333,0.65,11,1.7666,-0.8,-0.4,0.1,5,lapse_rate,1,TRUE,0.508,0,FALSE,left,LN,,,,,,,,,
12,0.5,99,1,0.4,0.2667,0.7833,12,2.05,-0.8,-0.4,0.1,5,lapse_rate,2,TRUE,0.325,0,FALSE,right,LN,,,,,,,,,
13,0.5,99,1,0.3,0.2,0.8,13,2.0167,-0.58,-0.2833,0.2167,5,2D1U,2,TRUE,0.5,0,FALSE,right,LN,,,,,,,,,
14,0.5,99,2,0.3333,0.25,0.6667,14,1.9667,-0.58,-0.2833,0.2167,5,3D1U,1,TRUE,1.458,0,FALSE,left,LN,,,,,,,,,
15,0.5,99,1,0.2667,0.3167,0.7167,15,1.9334,-0.74,-0.3667,0.1333,5,1D2U,2,TRUE,0.333,0,FALSE,right,LN,,,,,,,,,
16,0.5,99,2,0.3333,0.35,0.7833,16,2.0999,-0.74,-0.3667,0.1333,5,1D3U,1,TRUE,0.376,0,FALSE,left,LN,,,,,,,,,
17,0.5,99,1,0.25,0.25,0.5833,17,2.4833,0.8,0.4,0.9,5,lapse_rate,1,TRUE,0.724,0,FALSE,left,LN,,,,,,,,,
18,0.5,99,1,0.2333,0.4,0.5167,18,1.9333,-0.42,-0.2167,0.2833,5,3D1U,1,FALSE,0.634,0,FALSE,left,LN,,,,,,,,,
19,0.5,99,2,0.2167,0.2833,0.85,19,2.1333,-0.42,-0.2167,0.2833,5,2D1U,2,FALSE,0.492,0,FALSE,right,LN,,,,,,,,,
20,0.5,99,2,0.3667,0.2333,0.85,20,2.0833,-0.74,-0.3667,0.1333,5,1D3U,1,TRUE,0.476,0,FALSE,left,LN,,,,,,,,,
21,0.5,99,2,0.4,0.25,0.6167,21,1.9,-0.74,-0.3667,0.1333,5,1D2U,1,TRUE,0.483,0,FALSE,left,LN,,,,,,,,,
22,0.5,99,2,0.45,0.2167,0.8667,22,2.2501,-0.58,-0.2833,0.2167,5,1D2U,1,TRUE,0.516,0,FALSE,left,LN,,,,,,,,,
23,0.5,99,1,0.3833,0.3167,0.75,23,2.85,0.8,0.4,0.9,5,lapse_rate,1,TRUE,0.459,0,FALSE,left,LN,,,,,,,,,
24,0.5,99,2,0.45,0.2833,0.75,24,2.2666,-0.42,-0.2167,0.2833,5,3D1U,1,TRUE,0.441,0,FALSE,left,LN,,,,,,,,,
25,0.5,99,1,0.25,0.2333,0.7667,25,1.8833,-0.74,-0.3667,0.1333,5,1D3U,2,TRUE,0.457,0,FALSE,right,LN,,,,,,,,,
26,0.5,99,2,0.4333,0.35,0.7333,26,2.2999,-0.42,-0.2167,0.2833,5,2D1U,2,FALSE,0.476,0,FALSE,right,LN,,,,,,,,,
27,0.5,99,1,0.2833,0.3333,0.4667,27,1.8333,-0.5,-0.25,0.25,5,2D1U,1,FALSE,0.567,1,TRUE,left,LN,,,,,,,,,
28,0.5,99,1,0.3167,0.2333,0.6167,28,2.0334,-0.26,-0.1333,0.3667,5,3D1U,2,TRUE,0.492,0,FALSE,right,LN,,,,,,,,,
29,0.5,99,1,0.3,0.4167,0.8667,29,2.3001,-0.58,-0.2833,0.2167,5,1D2U,1,FALSE,0.358,0,FALSE,left,LN,,,,,,,,,
30,0.5,99,1,0.25,0.4,0.6167,30,1.9834,-0.58,-0.2833,0.2167,5,1D3U,2,TRUE,0.449,0,FALSE,right,LN,,,,,,,,,
31,0.5,99,2,0.4333,0.2667,0.5333,31,2.6333,0.8,0.4,0.9,5,lapse_rate,2,TRUE,0.368,0,FALSE,right,LN,,,,,,,,,
32,0.5,99,1,0.45,0.3833,0.5333,32,2.0333,-0.66,-0.3333,0.1667,5,1D2U,2,TRUE,0.375,1,TRUE,right,LN,,,,,,,,,
33,0.5,99,1,0.4167,0.4,0.8333,33,2.6,-0.1,-0.05,0.45,5,3D1U,2,TRUE,0.376,0,FALSE,right,LN,,,,,,,,,
34,0.5,99,2,0.2667,0.2167,0.5,34,1.7001,-0.58,-0.2833,0.2167,5,1D3U,1,TRUE,0.516,0,FALSE,left,LN,,,,,,,,,
35,0.5,99,2,0.4,0.3167,0.5,35,1.8167,-0.8,-0.4,0.1,5,lapse_rate,1,TRUE,0.5,0,FALSE,left,LN,,,,,,,,,
36,0.5,99,2,0.4167,0.45,0.8333,36,2.45,-0.5,-0.25,0.25,5,2D1U,1,TRUE,0.375,1,TRUE,left,LN,,,,,,,,,
37,0.5,99,1,0.2333,0.4167,0.8333,37,2.25,-0.46,-0.2333,0.2667,5,2D1U,2,TRUE,0.283,2,TRUE,right,LN,,,,,,,,,
38,0.5,99,2,0.3,0.45,0.5833,38,2,-0.66,-0.3333,0.1667,5,1D2U,1,TRUE,0.517,1,TRUE,left,LN,,,,,,,,,
39,0.5,99,1,0.2833,0.35,0.4833,39,2.1499,0.06,0.0333,0.5333,5,3D1U,2,FALSE,0.5,0,FALSE,right,LN,,,,,,,,,
40,0.5,99,2,0.25,0.4333,0.4333,40,1.7166,-0.8,-0.4,0.1,5,lapse_rate,1,TRUE,0.433,0,FALSE,left,LN,,,,,,,,,
41,0.5,99,2,0.4333,0.4167,0.8667,41,2.4334,-0.58,-0.2833,0.2167,5,1D3U,1,TRUE,0.474,0,FALSE,left,LN,,,,,,,,,
42,0.5,99,2,0.25,0.3167,0.6333,42,1.8,-0.8,-0.4,0.1,5,lapse_rate,1,TRUE,0.458,0,FALSE,left,LN,,,,,,,,,
43,0.5,99,1,0.3167,0.3667,0.5,43,1.9667,-0.42,-0.2167,0.2833,5,1D3U,2,TRUE,0.357,0,FALSE,right,LN,,,,,,,,,
44,0.5,99,2,0.3833,0.4333,0.5167,44,2.45,0.22,0.1167,0.6167,5,3D1U,1,FALSE,0.484,0,FALSE,left,LN,,,,,,,,,
45,0.5,99,2,0.2167,0.3167,0.5667,45,1.7834,-0.62,-0.3167,0.1833,5,1D2U,1,TRUE,0.449,2,TRUE,left,LN,,,,,,,,,
46,0.5,99,2,0.35,0.4167,0.5167,46,2.0667,-0.42,-0.2167,0.2833,5,2D1U,1,TRUE,0.474,2,FALSE,left,LN,,,,,,,,,
47,0.5,99,2,0.4333,0.2,0.7833,47,2.0999,-0.62,-0.3167,0.1833,5,1D2U,1,TRUE,0.533,2,TRUE,left,LN,,,,,,,,,
48,0.5,99,2,0.4333,0.25,0.6167,48,2.0833,-0.42,-0.2167,0.2833,5,1D3U,1,TRUE,0.941,0,FALSE,left,LN,,,,,,,,,
49,0.5,99,1,0.2667,0.25,0.85,49,2.55,0.38,0.1833,0.6833,5,3D1U,2,FALSE,0.576,0,FALSE,right,LN,,,,,,,,,
50,0.5,99,2,0.4333,0.3,0.8167,50,2.3667,-0.38,-0.1833,0.3167,5,2D1U,1,TRUE,0.466,2,FALSE,left,LN,,,,,,,,,
51,0.5,99,2,0.45,0.4333,0.7,51,2.9833,0.8,0.4,0.9,5,lapse_rate,2,TRUE,0.292,0,FALSE,right,LN,,,,,,,,,
52,0.5,99,2,0.4167,0.4333,0.6833,52,2.8,0.54,0.2667,0.7667,5,3D1U,2,TRUE,0.559,0,FALSE,right,LN,,,,,,,,,
53,0.5,99,1,0.4167,0.2333,0.4667,53,1.8334,-0.58,-0.2833,0.2167,5,1D2U,2,TRUE,0.525,2,FALSE,right,LN,,,,,,,,,
54,0.5,99,2,0.45,0.3167,0.4833,54,1.85,-0.8,-0.4,0.1,5,lapse_rate,1,TRUE,0.416,0,FALSE,left,LN,,,,,,,,,
55,0.5,99,1,0.2833,0.2167,0.45,55,1.7833,-0.34,-0.1667,0.3333,5,2D1U,1,FALSE,0.592,2,FALSE,left,LN,,,,,,,,,
56,0.5,99,1,0.35,0.45,0.8333,56,2.4166,-0.42,-0.2167,0.2833,5,1D3U,2,TRUE,0.324,0,FALSE,right,LN,,,,,,,,,
57,0.5,99,1,0.35,0.2333,0.5833,57,2.0333,-0.26,-0.1333,0.3667,5,1D3U,2,TRUE,0.608,0,FALSE,right,LN,,,,,,,,,
58,0.5,99,2,0.4,0.2667,0.4333,58,1.9333,-0.34,-0.1667,0.3333,5,2D1U,1,TRUE,0.458,2,FALSE,left,LN,,,,,,,,,
59,0.5,99,2,0.2667,0.25,0.5667,59,2.4834,0.8,0.4,0.9,5,lapse_rate,2,TRUE,0.483,0,FALSE,right,LN,,,,,,,,,
60,0.5,99,1,0.45,0.3167,0.4333,60,2.4667,0.54,0.2667,0.7667,5,3D1U,1,TRUE,0.608,0,FALSE,left,LN,,,,,,,,,
61,0.5,99,1,0.25,0.3333,0.8667,61,2.1667,-0.58,-0.2833,0.2167,5,1D2U,2,TRUE,0.408,2,FALSE,right,LN,,,,,,,,,
62,0.5,99,2,0.3833,0.3333,0.5667,62,2.0166,-0.54,-0.2667,0.2333,5,1D2U,1,TRUE,0.558,2,FALSE,left,LN,,,,,,,,,
63,0.5,99,2,0.25,0.35,0.7,63,2.1667,-0.26,-0.1333,0.3667,5,1D3U,1,TRUE,0.557,0,FALSE,left,LN,,,,,,,,,
64,0.5,99,1,0.4333,0.25,0.4167,64,1.7,-0.8,-0.4,0.1,5,lapse_rate,2,TRUE,0.534,0,FALSE,right,LN,,,,,,,,,
65,0.5,99,2,0.4333,0.4333,0.6833,65,2.8166,0.54,0.2667,0.7667,5,3D1U,2,TRUE,0.276,0,FALSE,right,LN,,,,,,,,,
66,0.5,99,2,0.25,0.45,0.7167,66,2.2667,-0.3,-0.15,0.35,5,2D1U,1,TRUE,0.526,2,FALSE,left,LN,,,,,,,,,
67,0.5,99,2,0.3,0.4333,0.5333,67,2.6666,0.8,0.4,0.9,5,lapse_rate,2,TRUE,0.367,0,FALSE,right,LN,,,,,,,,,
68,0.5,99,1,0.2167,0.2833,0.7,68,1.9333,-0.54,-0.2667,0.2333,5,1D2U,2,TRUE,0.891,2,FALSE,right,LN,,,,,,,,,
69,0.5,99,2,0.3333,0.4,0.8167,69,2.4167,-0.26,-0.1333,0.3667,5,2D1U,2,FALSE,0.484,2,FALSE,right,LN,,,,,,,,,
70,0.5,99,2,0.4333,0.2833,0.6,70,2.5499,0.46,0.2333,0.7333,5,3D1U,2,TRUE,0.467,1,TRUE,right,LN,,,,,,,,,
71,0.5,99,2,0.4333,0.2,0.8667,71,2.3667,-0.26,-0.1333,0.3667,5,1D3U,1,TRUE,0.616,0,FALSE,left,LN,,,,,,,,,
72,0.5,99,1,0.2333,0.3833,0.4167,72,2.2666,0.46,0.2333,0.7333,5,3D1U,1,TRUE,0.459,1,TRUE,left,LN,,,,,,,,,
73,0.5,99,1,0.2667,0.25,0.55,73,1.9334,-0.26,-0.1333,0.3667,5,2D1U,2,TRUE,0.524,2,FALSE,right,LN,,,,,,,,,
74,0.5,99,2,0.25,0.25,0.7167,74,1.9667,-0.5,-0.25,0.25,5,1D2U,1,TRUE,0.549,2,FALSE,left,LN,,,,,,,,,
75,0.5,99,2,0.3667,0.3167,0.85,75,2.4834,-0.1,-0.05,0.45,5,1D3U,2,FALSE,0.532,0,FALSE,right,LN,,,,,,,,,
76,0.5,99,2,0.35,0.3667,0.4833,76,2.1167,-0.18,-0.0833,0.4167,5,1D3U,1,TRUE,0.633,1,TRUE,left,LN,,,,,,,,,
77,0.5,99,2,0.3667,0.3,0.8,77,2.35,-0.22,-0.1167,0.3833,5,2D1U,1,TRUE,0.651,2,FALSE,left,LN,,,,,,,,,
78,0.5,99,1,0.3167,0.2167,0.6,78,2.0501,-0.18,-0.0833,0.4167,5,1D3U,2,TRUE,0.558,1,TRUE,right,LN,,,,,,,,,
79,0.5,99,1,0.35,0.3833,0.8333,79,2.3166,-0.5,-0.25,0.25,5,1D2U,2,TRUE,0.768,2,FALSE,right,LN,,,,,,,,,
80,0.5,99,1,0.3,0.3333,0.8167,80,2.2167,-0.46,-0.2333,0.2667,5,1D2U,2,TRUE,0.551,2,FALSE,right,LN,,,,,,,,,
81,0.5,99,2,0.25,0.3833,0.6333,81,2.4999,0.46,0.2333,0.7333,5,3D1U,2,TRUE,0.534,1,TRUE,right,LN,,,,,,,,,
82,0.5,99,2,0.3833,0.25,0.4667,82,2.2833,0.38,0.1833,0.6833,5,3D1U,2,TRUE,1.041,1,FALSE,right,LN,,,,,,,,,
83,0.5,99,2,0.2667,0.4167,0.6333,83,2.2334,-0.18,-0.0833,0.4167,5,2D1U,1,TRUE,0.5,2,FALSE,left,LN,,,,,,,,,
84,0.5,99,2,0.4333,0.2167,0.5333,84,2.1166,-0.14,-0.0667,0.4333,5,2D1U,1,TRUE,0.557,2,FALSE,left,LN,,,,,,,,,
85,0.5,99,2,0.3,0.3,0.7333,85,2.25,-0.18,-0.0833,0.4167,5,1D3U,2,FALSE,0.525,1,TRUE,right,LN,,,,,,,,,
86,0.5,99,1,0.4,0.2167,0.8,86,2.1834,-0.46,-0.2333,0.2667,5,1D2U,2,TRUE,0.55,2,FALSE,right,LN,,,,,,,,,
87,0.5,99,2,0.25,0.2,0.7,87,2.3333,0.38,0.1833,0.6833,5,3D1U,2,TRUE,0.583,1,FALSE,right,LN,,,,,,,,,
88,0.5,99,2,0.3833,0.2833,0.7667,88,2.3833,-0.1,-0.05,0.45,5,2D1U,2,FALSE,0.534,2,FALSE,right,LN,,,,,,,,,
89,0.5,99,1,0.3167,0.3667,0.5667,89,2.0334,-0.42,-0.2167,0.2833,5,1D2U,2,TRUE,0.649,2,FALSE,right,LN,,,,,,,,,
90,0.5,99,1,0.3,0.3667,0.7833,90,2.2333,-0.42,-0.2167,0.2833,5,1D2U,2,TRUE,0.507,2,FALSE,right,LN,,,,,,,,,
91,0.5,99,2,0.3333,0.2667,0.8167,91,2.2834,-0.26,-0.1333,0.3667,5,1D3U,1,TRUE,0.583,1,FALSE,left,LN,,,,,,,,,
92,0.5,99,1,0.3833,0.3833,0.6,92,2.1833,-0.38,-0.1833,0.3167,5,1D2U,2,TRUE,0.5,2,FALSE,right,LN,,,,,,,,,
93,0.5,99,2,0.4333,0.2167,0.4667,93,1.9834,-0.26,-0.1333,0.3667,5,1D3U,1,TRUE,0.55,1,FALSE,left,LN,,,,,,,,,
94,0.5,99,1,0.35,0.2667,0.4333,94,2,-0.1,-0.05,0.45,5,2D1U,1,FALSE,0.533,2,FALSE,left,LN,,,,,,,,,
95,0.5,99,1,0.4333,0.3667,0.4667,95,2.45,0.38,0.1833,0.6833,5,3D1U,1,TRUE,0.491,1,FALSE,left,LN,,,,,,,,,
96,0.5,99,1,0.3667,0.3167,0.7833,96,2.2834,-0.38,-0.1833,0.3167,5,1D2U,2,TRUE,0.875,2,FALSE,right,LN,,,,,,,,,
97,0.5,99,1,0.25,0.4,0.5,97,2.0833,-0.14,-0.0667,0.4333,5,2D1U,1,FALSE,0.55,3,TRUE,left,LN,,,,,,,,,
98,0.5,99,1,0.2167,0.4,0.5167,98,2.2834,0.3,0.15,0.65,5,3D1U,1,TRUE,0.516,1,FALSE,left,LN,,,,,,,,,
99,0.5,99,1,0.3167,0.4167,0.4,99,1.9667,-0.34,-0.1667,0.3333,5,1D2U,1,FALSE,0.533,2,FALSE,left,LN,,,,,,,,,
100,0.5,99,1,0.2667,0.25,0.55,100,1.8834,-0.38,-0.1833,0.3167,5,1D2U,1,FALSE,0.616,3,TRUE,left,LN,,,,,,,,,
101,0.5,99,1,0.2667,0.35,0.8833,101,2.3667,-0.26,-0.1333,0.3667,5,1D3U,1,FALSE,0.774,1,FALSE,left,LN,,,,,,,,,
102,0.5,99,2,0.25,0.2667,0.5,102,1.95,-0.14,-0.0667,0.4333,5,2D1U,2,FALSE,0.658,3,TRUE,right,LN,,,,,,,,,
103,0.5,99,2,0.4,0.4333,0.45,103,2.1166,-0.34,-0.1667,0.3333,5,1D3U,1,TRUE,0.584,1,FALSE,left,LN,,,,,,,,,
104,0.5,99,2,0.3667,0.3,0.6167,104,2.1167,-0.34,-0.1667,0.3333,5,1D3U,1,TRUE,0.577,1,FALSE,left,LN,,,,,,,,,
105,0.5,99,2,0.3667,0.3833,0.5167,105,2.4167,0.3,0.15,0.65,5,3D1U,2,TRUE,0.526,1,FALSE,right,LN,,,,,,,,,
106,0.5,99,1,0.2,0.2167,0.6167,106,1.8167,-0.42,-0.2167,0.2833,5,1D2U,1,FALSE,0.577,3,FALSE,left,LN,,,,,,,,,
107,0.5,99,1,0.35,0.3,0.4833,107,2.2833,0.3,0.15,0.65,5,3D1U,2,FALSE,0.559,1,FALSE,right,LN,,,,,,,,,
108,0.5,99,1,0.4167,0.4167,0.75,108,2.3501,-0.46,-0.2333,0.2667,5,1D2U,1,FALSE,0.675,3,FALSE,left,LN,,,,,,,,,
109,0.5,99,2,0.3,0.25,0.45,109,1.8333,-0.34,-0.1667,0.3333,5,1D3U,1,TRUE,0.565,1,FALSE,left,LN,,,,,,,,,
110,0.5,99,2,0.3667,0.2167,0.8333,110,2.3334,-0.18,-0.0833,0.4167,5,2D1U,2,FALSE,0.583,3,FALSE,right,LN,,,,,,,,,
111,0.5,99,2,0.3833,0.4333,0.55,111,2.2833,-0.18,-0.0833,0.4167,5,2D1U,1,TRUE,0.567,3,FALSE,left,LN,,,,,,,,,
112,0.5,99,1,0.4333,0.4167,0.7833,112,2.3833,-0.5,-0.25,0.25,5,1D2U,2,TRUE,0.459,3,FALSE,right,LN,,,,,,,,,
113,0.5,99,2,0.2833,0.3667,0.8667,113,2.3667,-0.3,-0.15,0.35,5,1D3U,2,FALSE,0.591,2,TRUE,right,LN,,,,,,,,,
114,0.5,99,2,0.4167,0.2667,0.8667,114,2.4834,-0.14,-0.0667,0.4333,5,2D1U,2,FALSE,0.575,4,TRUE,right,LN,,,,,,,,,
115,0.5,99,2,0.2333,0.3,0.7,115,2.1666,-0.14,-0.0667,0.4333,5,2D1U,1,TRUE,0.532,4,TRUE,left,LN,,,,,,,,,
116,0.5,99,1,0.3833,0.3,0.8833,116,2.7333,0.34,0.1667,0.6667,5,3D1U,2,FALSE,0.542,2,TRUE,right,LN,,,,,,,,,
117,0.5,99,2,0.4333,0.4167,0.5,117,2.3,-0.1,-0.05,0.45,5,2D1U,2,FALSE,0.624,4,FALSE,right,LN,,,,,,,,,
118,0.5,99,1,0.3333,0.2667,0.8667,118,2.3,-0.34,-0.1667,0.3333,5,1D3U,2,TRUE,0.55,3,TRUE,right,LN,,,,,,,,,
119,0.5,99,1,0.45,0.2333,0.6333,119,2.0666,-0.5,-0.25,0.25,5,1D2U,1,FALSE,0.658,3,FALSE,left,LN,,,,,,,,,
120,0.5,99,1,0.35,0.4,0.5,120,2.4333,0.38,0.1833,0.6833,5,3D1U,1,TRUE,0.417,2,FALSE,left,LN,,,,,,,,,
121,0.5,99,2,0.35,0.4333,0.75,121,2.7166,0.38,0.1833,0.6833,5,3D1U,2,TRUE,0.35,2,FALSE,right,LN,,,,,,,,,
122,0.5,99,2,0.3667,0.2,0.7,122,2.2167,-0.1,-0.05,0.45,5,2D1U,1,TRUE,0.558,4,FALSE,left,LN,,,,,,,,,
123,0.5,99,1,0.4333,0.3167,0.7167,123,2.2,-0.54,-0.2667,0.2333,5,1D2U,2,TRUE,0.609,3,FALSE,right,LN,,,,,,,,,
124,0.5,99,2,0.3,0.4,0.5333,124,1.9666,-0.54,-0.2667,0.2333,5,1D2U,1,TRUE,0.515,3,FALSE,left,LN,,,,,,,,,
125,0.5,99,2,0.2167,0.2667,0.7,125,2.0167,-0.34,-0.1667,0.3333,5,1D3U,2,FALSE,0.516,3,TRUE,right,LN,,,,,,,,,
126,0.5,99,2,0.2,0.2333,0.65,126,2.2666,0.38,0.1833,0.6833,5,3D1U,1,FALSE,0.483,2,FALSE,left,LN,,,,,,,,,
127,0.5,99,1,0.2667,0.35,0.8,127,2.2334,-0.38,-0.1833,0.3167,5,1D3U,2,TRUE,0.525,3,FALSE,right,LN,,,,,,,,,
128,0.5,99,2,0.4167,0.2,0.7333,128,2.3167,-0.06,-0.0333,0.4667,5,2D1U,2,FALSE,0.526,4,FALSE,right,LN,,,,,,,,,
129,0.5,99,1,0.2667,0.3667,0.9,129,2.2834,-0.5,-0.25,0.25,5,1D2U,1,FALSE,0.592,4,TRUE,left,LN,,,,,,,,,
130,0.5,99,1,0.2167,0.2167,0.8,130,2.4501,0.42,0.2167,0.7167,5,3D1U,2,FALSE,0.557,2,FALSE,right,LN,,,,,,,,,
131,0.5,99,1,0.3167,0.2,0.55,131,2.3,0.46,0.2333,0.7333,5,3D1U,2,FALSE,0.624,2,FALSE,right,LN,,,,,,,,,
132,0.5,99,1,0.4167,0.3333,0.4667,132,1.95,-0.54,-0.2667,0.2333,5,1D2U,2,TRUE,0.526,5,TRUE,right,LN,,,,,,,,,
133,0.5,99,1,0.3,0.3167,0.7333,133,2.1667,-0.38,-0.1833,0.3167,5,1D3U,2,TRUE,0.492,3,FALSE,right,LN,,,,,,,,,
134,0.5,99,2,0.4167,0.35,0.5833,134,2.1667,-0.38,-0.1833,0.3167,5,1D3U,1,TRUE,0.508,3,FALSE,left,LN,,,,,,,,,
135,0.5,99,1,0.4333,0.25,0.7167,135,2.3667,-0.06,-0.0333,0.4667,5,2D1U,2,TRUE,0.524,4,FALSE,right,LN,,,,,,,,,
136,0.5,99,1,0.3833,0.2667,0.4667,136,2.3667,0.5,0.25,0.75,5,3D1U,1,TRUE,0.533,2,FALSE,left,LN,,,,,,,,,
137,0.5,99,2,0.2333,0.4333,0.4333,137,1.9332,-0.34,-0.1667,0.3333,5,1D3U,1,TRUE,0.559,4,TRUE,left,LN,,,,,,,,,
138,0.5,99,1,0.4333,0.2167,0.85,138,2.75,0.5,0.25,0.75,5,3D1U,1,TRUE,0.518,2,FALSE,left,LN,,,,,,,,,
139,0.5,99,1,0.3167,0.4,0.8667,139,2.5667,-0.02,-0.0167,0.4833,5,2D1U,1,FALSE,0.592,4,FALSE,left,LN,,,,,,,,,
140,0.5,99,2,0.2333,0.35,0.5667,140,2.1333,-0.02,-0.0167,0.4833,5,2D1U,1,TRUE,0.526,4,FALSE,left,LN,,,,,,,,,
141,0.5,99,1,0.2667,0.3,0.45,141,1.75,-0.54,-0.2667,0.2333,5,1D2U,1,FALSE,0.741,5,TRUE,left,LN,,,,,,,,,
142,0.5,99,1,0.2833,0.25,0.4667,142,2.25,0.5,0.25,0.75,5,3D1U,1,TRUE,0.433,2,FALSE,left,LN,,,,,,,,,
143,0.5,99,2,0.3833,0.2833,0.5,143,2.3999,0.46,0.2333,0.7333,5,3D1U,2,TRUE,0.392,3,TRUE,right,LN,,,,,,,,,
144,0.5,99,1,0.3,0.3833,0.7333,144,2.2499,-0.34,-0.1667,0.3333,5,1D3U,2,TRUE,0.433,4,TRUE,right,LN,,,,,,,,,
145,0.5,99,1,0.25,0.25,0.4667,145,1.9834,0.02,0.0167,0.5167,5,2D1U,1,TRUE,0.501,4,FALSE,left,LN,,,,,,,,,
146,0.5,99,2,0.45,0.3,0.5667,146,2.0334,-0.58,-0.2833,0.2167,5,1D2U,1,TRUE,0.574,5,FALSE,left,LN,,,,,,,,,
147,0.5,99,1,0.2833,0.25,0.5833,147,1.9499,-0.34,-0.1667,0.3333,5,1D3U,2,TRUE,0.501,4,TRUE,right,LN,,,,,,,,,
148,0.5,99,2,0.45,0.35,0.6667,148,2.3167,-0.3,-0.15,0.35,5,1D3U,1,TRUE,0.509,4,FALSE,left,LN,,,,,,,,,
149,0.5,99,1,0.2667,0.3,0.7,149,2.5,0.46,0.2333,0.7333,5,3D1U,2,FALSE,0.658,3,TRUE,right,LN,,,,,,,,,
150,0.5,99,2,0.3667,0.2167,0.45,150,2.0501,0.02,0.0167,0.5167,5,2D1U,1,FALSE,0.599,4,FALSE,left,LN,,,,,,,,,
151,0.5,99,1,0.3,0.4333,0.6,151,2.05,-0.58,-0.2833,0.2167,5,1D2U,2,TRUE,0.416,5,FALSE,right,LN,,,,,,,,,
152,0.5,99,1,0.2,0.3833,0.4167,152,2.25,0.5,0.25,0.75,5,3D1U,1,TRUE,0.517,4,TRUE,left,LN,,,,,,,,,
153,0.5,99,2,0.3667,0.2833,0.85,153,2.5333,0.06,0.0333,0.5333,5,2D1U,2,TRUE,0.567,4,FALSE,right,LN,,,,,,,,,
0,0.5,99,1,0.3667,0.3,0.8833,0,2.1,-0.9,-0.45,0.05,5,3D1U,2,TRUE,0.172,0,FALSE,right,mh,,,,,,,,,
1,0.5,99,2,0.2,0.4333,0.4167,1,2.45,0.8,0.4,0.9,5,lapse_rate,1,FALSE,0.161,0,FALSE,left,mh,,,,,,,,,
2,0.5,99,2,0.2833,0.4167,0.4833,2,1.7333,-0.9,-0.45,0.05,5,2D1U,1,TRUE,0.615,0,FALSE,left,mh,,,,,,,,,
3,0.5,99,2,0.2333,0.2667,0.9,3,2.0333,-0.74,-0.3667,0.1333,5,3D1U,1,TRUE,0.384,0,FALSE,left,mh,,,,,,,,,
4,0.5,99,2,0.3833,0.35,0.5167,4,1.85,-0.8,-0.4,0.1,5,lapse_rate,1,TRUE,0.392,0,FALSE,left,mh,,,,,,,,,
5,0.5,99,2,0.3667,0.4,0.7,5,2.0167,-0.9,-0.45,0.05,5,1D3U,1,TRUE,0.309,0,FALSE,left,mh,,,,,,,,,
6,0.5,99,2,0.4333,0.3667,0.7167,6,2.0667,-0.9,-0.45,0.05,5,1D2U,1,TRUE,0.416,0,FALSE,left,mh,,,,,,,,,
7,0.5,99,1,0.25,0.3333,0.8833,7,2.0999,-0.74,-0.3667,0.1333,5,2D1U,2,TRUE,0.258,0,FALSE,right,mh,,,,,,,,,
8,0.5,99,1,0.3333,0.4167,0.45,8,1.75,-0.9,-0.45,0.05,5,1D2U,2,TRUE,0.301,0,FALSE,right,mh,,,,,,,,,
9,0.5,99,1,0.3167,0.4167,0.8833,9,2.1667,-0.9,-0.45,0.05,5,1D3U,1,FALSE,0.334,0,FALSE,left,mh,,,,,,,,,
10,0.5,99,1,0.2333,0.35,0.5,10,2.4833,0.8,0.4,0.9,5,lapse_rate,1,TRUE,0.408,0,FALSE,left,mh,,,,,,,,,
11,0.5,99,2,0.3167,0.35,0.4667,11,1.8501,-0.58,-0.2833,0.2167,5,3D1U,1,TRUE,0.459,0,FALSE,left,mh,,,,,,,,,
12,0.5,99,2,0.2667,0.3167,0.8833,12,2.25,-0.42,-0.2167,0.2833,5,3D1U,1,TRUE,0.516,0,FALSE,left,mh,,,,,,,,,
13,0.5,99,1,0.3833,0.2167,0.6167,13,1.85,-0.74,-0.3667,0.1333,5,1D2U,2,TRUE,0.2,0,FALSE,right,mh,,,,,,,,,
14,0.5,99,1,0.3833,0.2167,0.5333,14,1.85,-0.58,-0.2833,0.2167,5,2D1U,2,TRUE,0.283,0,FALSE,right,mh,,,,,,,,,
15,0.5,99,1,0.3667,0.2167,0.6667,15,1.8001,-0.9,-0.45,0.05,5,1D3U,2,TRUE,0.267,0,FALSE,right,mh,,,,,,,,,
16,0.5,99,1,0.3833,0.2333,0.8667,16,2.0833,-0.8,-0.4,0.1,5,lapse_rate,2,TRUE,0.232,0,FALSE,right,mh,,,,,,,,,
17,0.5,99,1,0.3333,0.4167,0.45,17,2.0667,-0.26,-0.1333,0.3667,5,3D1U,2,TRUE,0.259,0,FALSE,right,mh,,,,,,,,,
18,0.5,99,1,0.3833,0.4333,0.4833,18,1.8499,-0.9,-0.45,0.05,5,1D3U,2,TRUE,0.242,0,FALSE,right,mh,,,,,,,,,
19,0.5,99,2,0.2833,0.4333,0.8667,19,2.9833,0.8,0.4,0.9,5,lapse_rate,2,TRUE,0.274,0,FALSE,right,mh,,,,,,,,,
20,0.5,99,2,0.3333,0.4333,0.7333,20,2.2832,-0.42,-0.2167,0.2833,5,2D1U,1,TRUE,0.374,0,FALSE,left,mh,,,,,,,,,
21,0.5,99,1,0.35,0.3833,0.65,21,2.0166,-0.74,-0.3667,0.1333,5,1D2U,2,TRUE,0.241,0,FALSE,right,mh,,,,,,,,,
22,0.5,99,1,0.4167,0.2833,0.6,22,1.85,-0.9,-0.45,0.05,5,1D3U,2,TRUE,0.284,0,FALSE,right,mh,,,,,,,,,
23,0.5,99,2,0.2667,0.3667,0.65,23,2.1501,-0.26,-0.1333,0.3667,5,2D1U,2,FALSE,0.382,0,FALSE,right,mh,,,,,,,,,
24,0.5,99,2,0.3333,0.2667,0.4833,24,2.0333,-0.1,-0.05,0.45,5,3D1U,2,FALSE,0.333,0,FALSE,right,mh,,,,,,,,,
25,0.5,99,2,0.3,0.3,0.7167,25,2.7167,0.8,0.4,0.9,5,lapse_rate,2,TRUE,0.334,0,FALSE,right,mh,,,,,,,,,
26,0.5,99,1,0.2333,0.45,0.8667,26,2.2667,-0.58,-0.2833,0.2167,5,1D2U,2,TRUE,0.307,0,FALSE,right,mh,,,,,,,,,
27,0.5,99,2,0.2667,0.35,0.5667,27,1.7834,-0.8,-0.4,0.1,5,lapse_rate,1,TRUE,0.4,0,FALSE,left,mh,,,,,,,,,
28,0.5,99,1,0.3667,0.3,0.45,28,1.8334,-0.58,-0.2833,0.2167,5,1D2U,2,TRUE,0.334,0,FALSE,right,mh,,,,,,,,,
29,0.5,99,1,0.3667,0.3667,0.5167,29,2.2001,-0.1,-0.05,0.45,5,3D1U,2,TRUE,0.391,0,FALSE,right,mh,,,,,,,,,
30,0.5,99,1,0.3667,0.4167,0.6333,30,2.2834,-0.26,-0.1333,0.3667,5,2D1U,2,TRUE,0.383,0,FALSE,right,mh,,,,,,,,,
31,0.5,99,1,0.4,0.25,0.6667,31,1.9,-0.82,-0.4167,0.0833,5,1D3U,2,TRUE,0.278,1,TRUE,right,mh,,,,,,,,,
32,0.5,99,2,0.3333,0.2333,0.4333,32,1.9499,-0.1,-0.05,0.45,5,2D1U,2,FALSE,0.35,0,FALSE,right,mh,,,,,,,,,
33,0.5,99,2,0.2333,0.45,0.4667,33,1.9333,-0.42,-0.2167,0.2833,5,1D2U,1,TRUE,0.31,0,FALSE,left,mh,,,,,,,,,
34,0.5,99,2,0.2333,0.3333,0.85,34,2.0166,-0.8,-0.4,0.1,5,lapse_rate,1,TRUE,0.407,0,FALSE,left,mh,,,,,,,,,
35,0.5,99,2,0.45,0.4333,0.7167,35,2.1833,-0.82,-0.4167,0.0833,5,1D3U,1,TRUE,0.326,1,TRUE,left,mh,,,,,,,,,
36,0.5,99,2,0.4333,0.2833,0.7833,36,2.5332,0.06,0.0333,0.5333,5,3D1U,2,TRUE,0.308,0,FALSE,right,mh,,,,,,,,,
37,0.5,99,1,0.3833,0.4333,0.7667,37,2.3666,-0.42,-0.2167,0.2833,5,1D2U,2,TRUE,0.258,0,FALSE,right,mh,,,,,,,,,
38,0.5,99,1,0.2833,0.2667,0.5333,38,1.6666,-0.82,-0.4167,0.0833,5,1D3U,2,TRUE,0.301,1,TRUE,right,mh,,,,,,,,,
39,0.5,99,2,0.2833,0.3167,0.7167,39,2.2667,-0.1,-0.05,0.45,5,2D1U,2,FALSE,0.302,0,FALSE,right,mh,,,,,,,,,
40,0.5,99,2,0.45,0.4167,0.5667,40,2.4667,0.06,0.0333,0.5333,5,3D1U,2,TRUE,0.232,0,FALSE,right,mh,,,,,,,,,
41,0.5,99,2,0.3,0.3667,0.4,41,1.6667,-0.8,-0.4,0.1,5,lapse_rate,1,TRUE,0.391,0,FALSE,left,mh,,,,,,,,,
42,0.5,99,2,0.35,0.3,0.8,42,2.4833,0.06,0.0333,0.5333,5,3D1U,2,TRUE,0.282,0,FALSE,right,mh,,,,,,,,,
43,0.5,99,2,0.2167,0.3,0.5833,43,1.7333,-0.74,-0.3667,0.1333,5,1D3U,1,TRUE,0.375,1,FALSE,left,mh,,,,,,,,,
44,0.5,99,1,0.2667,0.25,0.6167,44,2.5334,0.8,0.4,0.9,5,lapse_rate,1,TRUE,0.292,0,FALSE,left,mh,,,,,,,,,
45,0.5,99,2,0.25,0.3833,0.4667,45,2.0167,-0.18,-0.0833,0.4167,5,2D1U,1,TRUE,0.399,1,TRUE,left,mh,,,,,,,,,
46,0.5,99,1,0.25,0.45,0.5,46,2.0667,-0.26,-0.1333,0.3667,5,1D2U,2,TRUE,0.292,0,FALSE,right,mh,,,,,,,,,
47,0.5,99,2,0.2333,0.4,0.4833,47,2.0499,-0.14,-0.0667,0.4333,5,2D1U,1,TRUE,0.375,2,TRUE,left,mh,,,,,,,,,
48,0.5,99,2,0.35,0.3167,0.7333,48,2.0333,-0.74,-0.3667,0.1333,5,1D3U,1,TRUE,0.449,1,FALSE,left,mh,,,,,,,,,
49,0.5,99,1,0.2333,0.3167,0.8833,49,2.8333,0.8,0.4,0.9,5,lapse_rate,1,TRUE,0.417,0,FALSE,left,mh,,,,,,,,,
50,0.5,99,1,0.3167,0.3,0.6,50,2.2,-0.02,-0.0167,0.4833,5,3D1U,1,FALSE,0.533,1,TRUE,left,mh,,,,,,,,,
51,0.5,99,2,0.3333,0.2,0.5,51,1.9,-0.26,-0.1333,0.3667,5,1D2U,1,TRUE,0.667,0,FALSE,left,mh,,,,,,,,,
52,0.5,99,1,0.25,0.4167,0.8333,52,2.45,-0.1,-0.05,0.45,5,1D2U,2,TRUE,0.3,0,FALSE,right,mh,,,,,,,,,
53,0.5,99,1,0.2333,0.3167,0.6833,53,1.8666,-0.74,-0.3667,0.1333,5,1D3U,2,TRUE,0.233,1,FALSE,right,mh,,,,,,,,,
54,0.5,99,2,0.2167,0.2333,0.6833,54,2.0833,-0.1,-0.05,0.45,5,2D1U,2,FALSE,0.357,2,FALSE,right,mh,,,,,,,,,
55,0.5,99,1,0.3667,0.35,0.7667,55,2.4667,-0.02,-0.0167,0.4833,5,3D1U,2,TRUE,0.317,1,TRUE,right,mh,,,,,,,,,
56,0.5,99,1,0.4333,0.25,0.6,56,2.6833,0.8,0.4,0.9,5,lapse_rate,1,TRUE,0.233,0,FALSE,left,mh,,,,,,,,,
57,0.5,99,2,0.2667,0.4167,0.85,57,2.5501,0.02,0.0167,0.5167,5,3D1U,2,TRUE,0.327,2,TRUE,right,mh,,,,,,,,,
58,0.5,99,2,0.3167,0.2333,0.45,58,1.95,-0.1,-0.05,0.45,5,2D1U,2,FALSE,0.41,2,FALSE,right,mh,,,,,,,,,
59,0.5,99,2,0.2333,0.25,0.5333,59,1.6833,-0.66,-0.3333,0.1667,5,1D3U,1,TRUE,0.435,1,FALSE,left,mh,,,,,,,,,
60,0.5,99,1,0.2333,0.45,0.6167,60,1.9,-0.8,-0.4,0.1,5,lapse_rate,1,FALSE,0.349,0,FALSE,left,mh,,,,,,,,,
61,0.5,99,2,0.4,0.3,0.7667,61,2.4167,-0.1,-0.05,0.45,5,1D2U,2,FALSE,0.342,0,FALSE,right,mh,,,,,,,,,
62,0.5,99,1,0.4,0.2333,0.6,62,1.9,-0.66,-0.3333,0.1667,5,1D3U,2,TRUE,0.375,1,FALSE,right,mh,,,,,,,,,
63,0.5,99,1,0.35,0.4333,0.7333,63,2.4333,-0.18,-0.0833,0.4167,5,1D2U,2,TRUE,0.31,1,TRUE,right,mh,,,,,,,,,
64,0.5,99,2,0.2167,0.2833,0.75,64,1.85,-0.8,-0.4,0.1,5,lapse_rate,1,TRUE,0.525,0,FALSE,left,mh,,,,,,,,,
65,0.5,99,2,0.35,0.3,0.4833,65,2.0666,-0.14,-0.0667,0.4333,5,2D1U,1,TRUE,0.433,3,TRUE,left,mh,,,,,,,,,
66,0.5,99,1,0.4333,0.2167,0.7167,66,2.3834,0.02,0.0167,0.5167,5,3D1U,1,TRUE,0.376,2,TRUE,left,mh,,,,,,,,,
67,0.5,99,2,0.4333,0.3833,0.7167,67,2.55,0.02,0.0167,0.5167,5,3D1U,2,TRUE,0.25,2,TRUE,right,mh,,,,,,,,,
68,0.5,99,1,0.2833,0.2833,0.85,68,2.3333,-0.18,-0.0833,0.4167,5,1D2U,2,TRUE,0.285,1,TRUE,right,mh,,,,,,,,,
69,0.5,99,1,0.35,0.2167,0.6833,69,2.1833,-0.14,-0.0667,0.4333,5,1D2U,2,TRUE,0.225,2,TRUE,right,mh,,,,,,,,,
70,0.5,99,1,0.4333,0.4333,0.75,70,2.5666,-0.1,-0.05,0.45,5,2D1U,1,FALSE,0.161,4,TRUE,left,mh,,,,,,,,,
71,0.5,99,1,0.45,0.2667,0.5,71,1.8834,-0.66,-0.3333,0.1667,5,1D3U,2,TRUE,0.183,1,FALSE,right,mh,,,,,,,,,
72,0.5,99,1,0.25,0.2167,0.7333,72,1.9167,-0.58,-0.2833,0.2167,5,1D3U,2,TRUE,0.25,1,FALSE,right,mh,,,,,,,,,
73,0.5,99,2,0.3167,0.35,0.5167,73,2.1167,-0.14,-0.0667,0.4333,5,1D2U,2,FALSE,0.257,2,TRUE,right,mh,,,,,,,,,
74,0.5,99,2,0.2167,0.2833,0.45,74,1.8667,-0.18,-0.0833,0.4167,5,1D2U,2,FALSE,0.3,3,TRUE,right,mh,,,,,,,,,
75,0.5,99,1,0.3833,0.3167,0.7333,75,2.4166,-0.02,-0.0167,0.4833,5,3D1U,2,TRUE,0.2,3,TRUE,right,mh,,,,,,,,,
76,0.5,99,2,0.3333,0.25,0.9,76,2.4333,-0.1,-0.05,0.45,5,2D1U,2,FALSE,0.249,4,TRUE,right,mh,,,,,,,,,
77,0.5,99,2,0.4333,0.3167,0.8833,77,2.65,0.02,0.0167,0.5167,5,3D1U,2,TRUE,0.162,4,TRUE,right,mh,,,,,,,,,
78,0.5,99,1,0.3167,0.3667,0.8167,78,2.3834,-0.22,-0.1167,0.3833,5,1D2U,2,TRUE,0.225,3,FALSE,right,mh,,,,,,,,,
79,0.5,99,2,0.4333,0.3333,0.5,79,2.1999,-0.14,-0.0667,0.4333,5,2D1U,2,FALSE,0.351,5,TRUE,right,mh,,,,,,,,,
80,0.5,99,1,0.35,0.4167,0.6333,80,2.3333,-0.14,-0.0667,0.4333,5,2D1U,2,TRUE,0.701,5,TRUE,right,mh,,,,,,,,,
81,0.5,99,1,0.4333,0.35,0.5333,81,2.0333,-0.58,-0.2833,0.2167,5,1D3U,2,TRUE,0.558,1,FALSE,right,mh,,,,,,,,,
82,0.5,99,1,0.25,0.3333,0.4667,82,2,-0.1,-0.05,0.45,5,2D1U,2,TRUE,0.349,6,TRUE,right,mh,,,,,,,,,
83,0.5,99,1,0.3167,0.3167,0.55,83,2.0667,-0.22,-0.1167,0.3833,5,1D2U,1,FALSE,0.657,3,FALSE,left,mh,,,,,,,,,
84,0.5,99,2,0.4333,0.3667,0.5667,84,2.0834,-0.58,-0.2833,0.2167,5,1D3U,1,TRUE,0.459,1,FALSE,left,mh,,,,,,,,,
85,0.5,99,2,0.4167,0.2667,0.8167,85,2.2501,-0.5,-0.25,0.25,5,1D3U,1,TRUE,0.415,1,FALSE,left,mh,,,,,,,,,
86,0.5,99,2,0.4333,0.35,0.85,86,2.65,0.02,0.0167,0.5167,5,3D1U,2,TRUE,0.707,4,TRUE,right,mh,,,,,,,,,
87,0.5,99,2,0.4167,0.25,0.6167,87,2.2501,-0.06,-0.0333,0.4667,5,2D1U,1,TRUE,0.442,6,FALSE,left,mh,,,,,,,,,
88,0.5,99,2,0.3,0.35,0.4833,88,2,-0.26,-0.1333,0.3667,5,1D2U,1,TRUE,0.408,3,FALSE,left,mh,,,,,,,,,
89,0.5,99,1,0.4333,0.3167,0.5,89,2.2667,0.02,0.0167,0.5167,5,3D1U,1,TRUE,0.343,4,TRUE,left,mh,,,,,,,,,
90,0.5,99,1,0.2667,0.3667,0.4167,90,1.8001,-0.5,-0.25,0.25,5,1D3U,2,TRUE,0.159,1,FALSE,right,mh,,,,,,,,,
91,0.5,99,2,0.3167,0.3833,0.4667,91,1.9167,-0.5,-0.25,0.25,5,1D3U,1,TRUE,0.35,1,FALSE,left,mh,,,,,,,,,
92,0.5,99,1,0.3667,0.35,0.5833,92,2.1667,-0.26,-0.1333,0.3667,5,1D2U,2,TRUE,0.277,3,FALSE,right,mh,,,,,,,,,
93,0.5,99,1,0.2667,0.3,0.55,93,2.1,-0.02,-0.0167,0.4833,5,2D1U,2,TRUE,0.242,6,FALSE,right,mh,,,,,,,,,
94,0.5,99,2,0.2167,0.3833,0.7667,94,2.35,-0.02,-0.0167,0.4833,5,3D1U,2,FALSE,0.25,5,TRUE,right,mh,,,,,,,,,
95,0.5,99,2,0.4333,0.2833,0.8167,95,2.3166,-0.42,-0.2167,0.2833,5,1D3U,1,TRUE,0.5,1,FALSE,left,mh,,,,,,,,,
96,0.5,99,2,0.2167,0.3,0.55,96,1.95,-0.22,-0.1167,0.3833,5,1D2U,2,FALSE,0.583,4,TRUE,right,mh,,,,,,,,,
97,0.5,99,2,0.45,0.3667,0.8167,97,2.6167,-0.02,-0.0167,0.4833,5,3D1U,1,TRUE,0.325,5,TRUE,left,mh,,,,,,,,,
98,0.5,99,1,0.2667,0.4167,0.8667,98,2.5668,0.02,0.0167,0.5167,5,3D1U,2,FALSE,0.275,6,TRUE,right,mh,,,,,,,,,
99,0.5,99,2,0.2333,0.2333,0.7,99,2.0333,-0.26,-0.1333,0.3667,5,1D2U,1,TRUE,0.477,5,TRUE,left,mh,,,,,,,,,
100,0.5,99,1,0.4,0.2167,0.7667,100,2.4001,0.02,0.0167,0.5167,5,2D1U,1,TRUE,0.366,6,FALSE,left,mh,,,,,,,,,
101,0.5,99,2,0.3167,0.35,0.85,101,2.3,-0.42,-0.2167,0.2833,5,1D3U,1,TRUE,0.459,1,FALSE,left,mh,,,,,,,,,
102,0.5,99,2,0.3833,0.3333,0.8,102,2.2999,-0.42,-0.2167,0.2833,5,1D3U,2,FALSE,0.324,1,FALSE,right,mh,,,,,,,,,
103,0.5,99,1,0.2667,0.4167,0.6667,103,2.3834,0.06,0.0333,0.5333,5,3D1U,2,FALSE,0.3,6,FALSE,right,mh,,,,,,,,,
104,0.5,99,1,0.3667,0.3667,0.7667,104,2.3668,-0.26,-0.1333,0.3667,5,1D2U,2,TRUE,0.232,5,TRUE,right,mh,,,,,,,,,
105,0.5,99,1,0.2333,0.3667,0.7667,105,2.25,-0.22,-0.1167,0.3833,5,1D2U,2,TRUE,0.351,6,TRUE,right,mh,,,,,,,,,
106,0.5,99,2,0.2833,0.35,0.6167,106,2.2667,0.02,0.0167,0.5167,5,2D1U,2,TRUE,0.415,6,FALSE,right,mh,,,,,,,,,
107,0.5,99,1,0.2667,0.4333,0.6167,107,2.0834,-0.46,-0.2333,0.2667,5,1D3U,2,TRUE,0.307,2,TRUE,right,mh,,,,,,,,,
108,0.5,99,2,0.4167,0.4333,0.6,108,2.5,0.1,0.05,0.55,5,3D1U,2,TRUE,0.583,6,FALSE,right,mh,,,,,,,,,
109,0.5,99,1,0.3667,0.3833,0.5667,109,2.2,-0.22,-0.1167,0.3833,5,1D2U,2,TRUE,0.3,6,TRUE,right,mh,,,,,,,,,
110,0.5,99,2,0.4333,0.35,0.6667,110,2.3667,-0.18,-0.0833,0.4167,5,1D2U,2,FALSE,0.558,6,FALSE,right,mh,,,,,,,,,
111,0.5,99,2,0.3333,0.3167,0.55,111,2.1833,-0.02,-0.0167,0.4833,5,2D1U,2,FALSE,0.308,7,TRUE,right,mh,,,,,,,,,
112,0.5,99,2,0.3,0.3667,0.5333,112,1.9667,-0.46,-0.2333,0.2667,5,1D3U,1,TRUE,0.341,2,TRUE,left,mh,,,,,,,,,
113,0.5,99,1,0.45,0.3167,0.55,113,2.3,-0.02,-0.0167,0.4833,5,2D1U,1,FALSE,0.833,7,TRUE,left,mh,,,,,,,,,
114,0.5,99,2,0.3833,0.3,0.4333,114,2.1666,0.1,0.05,0.55,5,3D1U,2,TRUE,0.36,6,FALSE,right,mh,,,,,,,,,
115,0.5,99,2,0.2333,0.3333,0.5167,115,1.9666,-0.22,-0.1167,0.3833,5,1D2U,2,FALSE,0.316,7,TRUE,right,mh,,,,,,,,,
116,0.5,99,1,0.2167,0.45,0.4333,116,1.8667,-0.46,-0.2333,0.2667,5,1D3U,2,TRUE,0.434,2,TRUE,right,mh,,,,,,,,,
117,0.5,99,1,0.2833,0.4167,0.9,117,2.5667,-0.06,-0.0333,0.4667,5,2D1U,2,TRUE,0.225,7,FALSE,right,mh,,,,,,,,,
118,0.5,99,1,0.3167,0.3333,0.5667,118,2.0834,-0.26,-0.1333,0.3667,5,1D2U,2,TRUE,0.408,7,FALSE,right,mh,,,,,,,,,
119,0.5,99,1,0.3167,0.25,0.7833,119,2.4,0.1,0.05,0.55,5,3D1U,2,FALSE,0.333,6,FALSE,right,mh,,,,,,,,,
120,0.5,99,2,0.3167,0.3667,0.7167,120,2.1834,-0.42,-0.2167,0.2833,5,1D3U,1,TRUE,0.491,3,TRUE,left,mh,,,,,,,,,
121,0.5,99,1,0.25,0.3167,0.5,121,1.85,-0.42,-0.2167,0.2833,5,1D3U,2,TRUE,0.326,3,TRUE,right,mh,,,,,,,,,
122,0.5,99,1,0.2667,0.2333,0.7833,122,2.35,0.14,0.0667,0.5667,5,3D1U,2,FALSE,0.341,6,FALSE,right,mh,,,,,,,,,
123,0.5,99,1,0.4,0.3167,0.6333,123,2.1333,-0.42,-0.2167,0.2833,5,1D3U,2,TRUE,0.366,3,TRUE,right,mh,,,,,,,,,
124,0.5,99,2,0.4333,0.4167,0.4333,124,2.2666,-0.02,-0.0167,0.4833,5,2D1U,1,TRUE,0.325,8,TRUE,left,mh,,,,,,,,,
125,0.5,99,2,0.2,0.25,0.7,125,2.1667,0.02,0.0167,0.5167,5,2D1U,2,TRUE,0.334,8,FALSE,right,mh,,,,,,,,,
126,0.5,99,2,0.2667,0.2167,0.8167,126,2.1668,-0.26,-0.1333,0.3667,5,1D2U,1,TRUE,0.5,7,FALSE,left,mh,,,,,,,,,
127,0.5,99,1,0.2167,0.4167,0.45,127,2.1667,0.18,0.0833,0.5833,5,3D1U,2,FALSE,0.24,6,FALSE,right,mh,,,,,,,,,
128,0.5,99,2,0.3667,0.25,0.4333,128,1.8667,-0.38,-0.1833,0.3167,5,1D3U,1,TRUE,0.583,3,FALSE,left,mh,,,,,,,,,
129,0.5,99,1,0.3833,0.3833,0.7333,129,2.3166,-0.38,-0.1833,0.3167,5,1D3U,2,TRUE,0.208,3,FALSE,right,mh,,,,,,,,,
130,0.5,99,1,0.25,0.3167,0.6667,130,2.2501,0.02,0.0167,0.5167,5,2D1U,1,TRUE,0.442,8,FALSE,left,mh,,,,,,,,,
131,0.5,99,1,0.4,0.3167,0.5167,131,2.1167,-0.22,-0.1167,0.3833,5,1D2U,2,TRUE,0.424,8,TRUE,right,mh,,,,,,,,,
132,0.5,99,1,0.25,0.25,0.45,132,1.7667,-0.38,-0.1833,0.3167,5,1D3U,2,TRUE,0.491,3,FALSE,right,mh,,,,,,,,,
133,0.5,99,2,0.3833,0.35,0.4333,133,2.2833,0.22,0.1167,0.6167,5,3D1U,2,TRUE,0.217,6,FALSE,right,mh,,,,,,,,,
134,0.5,99,1,0.4,0.3167,0.8667,134,2.5667,-0.02,-0.0167,0.4833,5,2D1U,2,TRUE,0.417,9,TRUE,right,mh,,,,,,,,,
135,0.5,99,1,0.45,0.3667,0.7333,135,2.4333,-0.22,-0.1167,0.3833,5,1D2U,2,TRUE,0.308,8,TRUE,right,mh,,,,,,,,,
136,0.5,99,2,0.3,0.35,0.4833,136,1.9666,-0.34,-0.1667,0.3333,5,1D3U,1,TRUE,0.358,3,FALSE,left,mh,,,,,,,,,
137,0.5,99,2,0.4,0.2167,0.6167,137,2.2501,0.02,0.0167,0.5167,5,2D1U,2,TRUE,0.292,10,TRUE,right,mh,,,,,,,,,
138,0.5,99,2,0.25,0.3333,0.4167,138,2.1167,0.22,0.1167,0.6167,5,3D1U,1,FALSE,0.299,6,FALSE,left,mh,,,,,,,,,
139,0.5,99,1,0.3833,0.3,0.5667,139,2.1667,-0.18,-0.0833,0.4167,5,1D2U,2,TRUE,0.251,8,FALSE,right,mh,,,,,,,,,
140,0.5,99,2,0.2667,0.4167,0.4167,140,2.0168,-0.18,-0.0833,0.4167,5,1D2U,2,FALSE,0.2,8,FALSE,right,mh,,,,,,,,,
141,0.5,99,1,0.3333,0.3667,0.8667,141,2.4,-0.34,-0.1667,0.3333,5,1D3U,2,TRUE,0.309,3,FALSE,right,mh,,,,,,,,,
142,0.5,99,1,0.2667,0.2667,0.6833,142,2.35,0.26,0.1333,0.6333,5,3D1U,2,FALSE,0.366,6,FALSE,right,mh,,,,,,,,,
143,0.5,99,1,0.3833,0.25,0.7,143,2.35,0.02,0.0167,0.5167,5,2D1U,2,FALSE,0.275,10,TRUE,right,mh,,,,,,,,,
144,0.5,99,1,0.3,0.2,0.7667,144,2.15,-0.22,-0.1167,0.3833,5,1D2U,2,TRUE,0.402,9,TRUE,right,mh,,,,,,,,,
145,0.5,99,1,0.4333,0.3,0.45,145,2.0166,-0.34,-0.1667,0.3333,5,1D3U,1,FALSE,0.341,3,FALSE,left,mh,,,,,,,,,
146,0.5,99,2,0.3833,0.35,0.75,146,2.6333,0.3,0.15,0.65,5,3D1U,2,TRUE,0.258,6,FALSE,right,mh,,,,,,,,,
147,0.5,99,1,0.3667,0.3833,0.6833,147,2.4666,0.06,0.0333,0.5333,5,2D1U,2,FALSE,0.392,10,FALSE,right,mh,,,,,,,,,
148,0.5,99,1,0.2333,0.2,0.8,148,2.2833,0.1,0.05,0.55,5,2D1U,2,FALSE,0.374,10,FALSE,right,mh,,,,,,,,,
149,0.5,99,1,0.2167,0.3,0.6167,149,2.2834,0.3,0.15,0.65,5,3D1U,1,TRUE,0.334,6,FALSE,left,mh,,,,,,,,,
150,0.5,99,2,0.2167,0.4333,0.4667,150,2.2667,0.3,0.15,0.65,5,3D1U,2,TRUE,0.216,6,FALSE,right,mh,,,,,,,,,
151,0.5,99,1,0.3167,0.3,0.8333,151,2.5167,0.14,0.0667,0.5667,5,2D1U,2,FALSE,0.265,10,FALSE,right,mh,,,,,,,,,
152,0.5,99,1,0.2667,0.3,0.5167,152,2.1667,0.18,0.0833,0.5833,5,2D1U,1,TRUE,0.4,10,FALSE,left,mh,,,,,,,,,
153,0.5,99,1,0.3833,0.2333,0.65,153,2.3999,0.26,0.1333,0.6333,5,3D1U,2,FALSE,0.516,7,TRUE,right,mh,,,,,,,,,
0,0.5,99,2,0.3,0.2333,0.8333,0,1.9166,-0.9,-0.45,0.05,5,1D3U,1,TRUE,1.672,0,FALSE,left,ln,,,,,,,,,
1,0.5,99,1,0.45,0.2667,0.45,1,1.7667,-0.8,-0.4,0.1,5,lapse_rate,2,TRUE,0.865,0,FALSE,right,ln,,,,,,,,,
2,0.5,99,1,0.3,0.3667,0.85,2,2.0667,-0.9,-0.45,0.05,5,1D2U,2,TRUE,3.282,0,FALSE,right,ln,,,,,,,,,
3,0.5,99,1,0.4167,0.3667,0.7667,3,2.1001,-0.9,-0.45,0.05,5,1D3U,2,TRUE,0.416,0,FALSE,right,ln,,,,,,,,,
4,0.5,99,1,0.2833,0.2333,0.8167,4,1.8833,-0.9,-0.45,0.05,5,3D1U,2,TRUE,0.467,0,FALSE,right,ln,,,,,,,,,
5,0.5,99,2,0.35,0.45,0.8167,5,2.2167,-0.8,-0.4,0.1,5,lapse_rate,1,TRUE,0.308,0,FALSE,left,ln,,,,,,,,,
6,0.5,99,1,0.25,0.2,0.85,6,1.85,-0.9,-0.45,0.05,5,2D1U,2,TRUE,0.517,0,FALSE,right,ln,,,,,,,,,
7,0.5,99,2,0.4,0.3167,0.7333,7,2,-0.9,-0.45,0.05,5,1D2U,1,TRUE,0.516,0,FALSE,left,ln,,,,,,,,,
8,0.5,99,1,0.2833,0.45,0.6833,8,2.0499,-0.74,-0.3667,0.1333,5,2D1U,2,TRUE,0.449,0,FALSE,right,ln,,,,,,,,,
9,0.5,99,1,0.3333,0.4,0.6167,9,1.9833,-0.74,-0.3667,0.1333,5,3D1U,2,TRUE,0.392,0,FALSE,right,ln,,,,,,,,,
10,0.5,99,1,0.3333,0.4167,0.7667,10,2.9167,0.8,0.4,0.9,5,lapse_rate,2,FALSE,0.599,0,FALSE,right,ln,,,,,,,,,
11,0.5,99,2,0.4,0.3333,0.4333,11,1.7166,-0.9,-0.45,0.05,5,1D3U,1,TRUE,0.816,0,FALSE,left,ln,,,,,,,,,
12,0.5,99,2,0.4167,0.3667,0.85,12,2.2667,-0.74,-0.3667,0.1333,5,1D2U,1,TRUE,0.55,0,FALSE,left,ln,,,,,,,,,
13,0.5,99,1,0.2,0.4333,0.8667,13,2.2167,-0.58,-0.2833,0.2167,5,3D1U,2,TRUE,0.291,0,FALSE,right,ln,,,,,,,,,
0,0.5,99,1,0.2167,0.2667,0.4,0,1.4334,-0.9,-0.45,0.05,5,1D3U,2,TRUE,0.865,0,FALSE,right,ML,,,,,,,,,
