Unnamed: 0,standardDur,audNoise,order,preDur,postDur,isiDur,trial_num,totalDur,delta_dur_percents,deltaDurS,testDurS,intensities,current_stair,responses,is_correct,response_rts,stair_num_reversal,stair_is_reversal,response_keys,conflictDur,recordedOnsetVisualTest,recordedOffsetVisualTest,recordedDurVisualTest,recordedOnsetVisualStandard,recordedOffsetVisualStandard,recordedDurVisualStandard,modalityPostCue,VisualPSE,participantID
0,0.49635,1.2,1,0.39708,0.25645,0.90169,0,2.1012,-0.9,-0.44671,0.04963,5,1D3U,1.0,False,0.355,0,False,left,0.0,0.3955,0.4458,0.0503,1.354,1.8539,0.4999,A,0.0035499999999999976,qs
1,0.49635,0.1,2,0.30608,0.28126,0.72797,1,1.86129,-0.9,-0.44671,0.04963,5,3D1U,1.0,True,0.292,0,False,left,0.0,1.538,1.5874,0.0494,0.3045,0.8049,0.5004,V,0.0040499999999999425,qs
2,0.49635,1.2,2,0.20681,0.28126,0.63698,2,1.67103,-0.9,-0.44671,0.04963,5,1D3U,1.0,True,0.383,0,False,left,0.0,1.346,1.3962,0.0502,0.2048,0.7046,0.4999,V,0.0035499999999999976,qs
3,0.49635,0.1,1,0.21508,0.27299,0.59561,3,1.71239,-0.74,-0.37226,0.13236,5,3D1U,2.0,True,0.184,0,False,right,0.0,0.2163,0.3492,0.1329,0.9488,1.4485,0.4998,A,0.0034500000000000086,qs
4,0.49635,1.2,2,0.20681,0.27299,0.58734,4,2.51482,0.9,0.44671,0.95133,5,lapse_rate,2.0,True,0.108,0,False,right,0.0,1.2992,2.2586,0.9594,0.2076,0.708,0.5004,A,0.0040499999999999425,qs
5,0.49635,1.2,2,0.36399,0.36399,0.47153,5,1.74549,-0.9,-0.44671,0.04963,5,1D2U,1.0,True,5.192,0,False,left,0.0,1.3439,1.3937,0.0498,0.3689,0.8689,0.5,A,0.0036499999999999866,qs
6,0.49635,0.1,1,0.37226,0.3888,0.65352,6,1.96056,-0.9,-0.44671,0.04963,5,2D1U,2.0,True,0.181,0,False,right,0.0,0.373,0.4232,0.0502,1.0816,1.5812,0.4996,A,0.003249999999999975,qs
7,0.49635,1.2,1,0.24817,0.28954,0.87688,7,1.96057,-0.9,-0.44671,0.04963,5,lapse_rate,1.0,False,3.592,0,False,left,0.0,0.2488,0.2987,0.0499,1.1823,1.6823,0.5,V,0.0036499999999999866,qs
8,0.49635,1.2,1,0.25645,0.43017,0.77761,8,2.09294,-0.74,-0.37226,0.13236,5,2D1U,2.0,True,1.276,0,False,right,0.0,0.2571,0.3902,0.1331,1.1741,1.6734,0.4994,A,0.003049999999999997,qs
9,0.49635,0.1,2,0.43017,0.34744,0.79415,9,2.11774,-0.9,-0.44671,0.04963,5,1D2U,1.0,True,0.45,0,False,left,0.0,1.7286,1.7786,0.0499,0.428,0.9279,0.5,A,0.0036499999999999866,qs
10,0.49635,1.2,2,0.24817,0.31435,0.57907,10,1.68757,-0.9,-0.44671,0.04963,5,1D3U,1.0,True,0.475,0,False,left,0.0,1.3329,1.3828,0.0499,0.2499,0.7499,0.5,A,0.0036499999999999866,qs
11,0.49635,0.1,2,0.30608,0.35571,0.45498,11,1.81993,-0.58,-0.28954,0.20681,5,3D1U,1.0,True,0.547,0,False,left,0.0,1.2632,1.4705,0.2073,0.3046,0.8046,0.5,A,0.0036499999999999866,qs
12,0.49635,1.2,1,0.20681,0.43844,0.75279,12,1.94402,-0.9,-0.44671,0.04963,5,lapse_rate,2.0,True,0.275,0,False,right,0.0,0.2064,0.257,0.0505,1.0141,1.5153,0.5012,A,0.0048499999999999654,qs
13,0.49635,1.2,1,0.44671,0.41362,0.79415,13,2.44037,-0.42,-0.20681,0.28954,5,3D1U,2.0,True,1.075,0,False,right,0.0,0.447,0.7395,0.2925,1.5392,2.0396,0.5004,V,0.0040499999999999425,qs
14,0.49635,0.1,2,0.23163,0.33917,0.7197,14,1.99366,-0.58,-0.28954,0.20681,5,2D1U,1.0,True,0.282,0,False,left,0.0,1.4591,1.6666,0.2075,0.2341,0.7337,0.4996,V,0.003249999999999975,qs
15,0.49635,1.2,2,0.33917,0.42189,0.45498,15,1.76202,-0.9,-0.44671,0.04963,5,1D3U,2.0,False,4.429,0,False,right,0.0,1.298,1.3481,0.0502,0.3399,0.8401,0.5002,V,0.0038499999999999646,qs
16,0.49635,0.1,2,0.2399,0.40535,0.68661,16,1.96057,-0.74,-0.37226,0.13236,5,1D2U,1.0,True,0.293,0,False,left,0.0,1.4322,1.5656,0.1333,0.2407,0.7399,0.4991,V,0.0027499999999999747,qs
17,0.49635,1.2,2,0.43844,0.41362,0.88515,17,2.28319,-0.9,-0.44671,0.04963,5,1D3U,1.0,True,0.285,0,False,left,0.0,1.8332,1.8827,0.0495,0.4414,0.9421,0.5008,A,0.0044500000000000095,qs
18,0.49635,0.1,1,0.41362,0.25645,0.67007,18,2.12603,-0.42,-0.20681,0.28954,5,2D1U,2.0,True,0.391,0,False,right,0.0,0.4169,0.7086,0.2917,1.383,1.883,0.5001,V,0.0037499999999999756,qs
19,0.49635,1.2,2,0.23163,0.25645,0.53771,19,1.6545,-0.74,-0.37226,0.13236,5,1D2U,1.0,True,2.325,0,False,left,0.0,1.2704,1.4045,0.1341,0.2295,0.7289,0.4995,A,0.003149999999999986,qs
20,0.49635,0.1,1,0.22336,0.21508,0.71143,20,2.01848,-0.26,-0.13236,0.37226,5,3D1U,2.0,True,1.109,0,False,right,0.0,0.2262,0.6008,0.3745,1.3181,1.818,0.4998,A,0.0034500000000000086,qs
21,0.49635,1.2,1,0.42189,0.33917,0.82724,21,2.13428,-0.9,-0.44671,0.04963,5,lapse_rate,2.0,True,0.751,0,False,right,0.0,0.423,0.4731,0.0501,1.3059,1.8067,0.5008,V,0.0044500000000000095,qs
22,0.49635,1.2,1,0.25645,0.44671,0.65352,22,2.05984,-0.58,-0.28954,0.20681,5,1D2U,2.0,True,7.458,0,False,right,0.0,0.256,0.4638,0.2078,1.1222,1.6229,0.5007,V,0.0043500000000000205,qs
23,0.49635,0.1,2,0.37226,0.31435,0.69488,23,2.32455,-0.1,-0.04963,0.44671,5,3D1U,1.0,True,3.259,0,False,left,0.0,1.5711,2.0208,0.4496,0.3706,0.8708,0.5002,V,0.0038499999999999646,qs
24,0.49635,0.1,2,0.29781,0.28954,0.79415,24,2.82918,0.9,0.44671,0.95133,5,lapse_rate,2.0,True,0.441,0,False,right,0.0,1.6058,2.5615,0.9557,0.304,0.8043,0.5003,A,0.0039499999999999535,qs
25,0.49635,1.2,1,0.2399,0.3309,0.83552,25,2.27493,-0.26,-0.13236,0.37226,5,2D1U,1.0,False,0.4,0,False,left,0.0,0.2383,0.6129,0.3746,1.4544,1.9553,0.5009,A,0.0045499999999999985,qs
26,0.49635,0.1,2,0.32262,0.26472,0.53771,26,1.67103,-0.9,-0.44671,0.04963,5,1D3U,1.0,True,4.502,0,False,left,0.0,1.3646,1.4144,0.0498,0.3237,0.8234,0.4997,V,0.003349999999999964,qs
27,0.49635,1.2,1,0.40535,0.31435,0.63698,27,1.90266,-0.9,-0.44671,0.04963,5,1D3U,1.0,False,8.117,0,False,left,0.0,0.4063,0.4564,0.0501,1.0974,1.5982,0.5008,V,0.0044500000000000095,qs
28,0.49635,0.1,1,0.32262,0.29781,0.52116,28,1.84475,-0.58,-0.28954,0.20681,5,1D2U,2.0,True,0.379,0,False,right,0.0,0.3213,0.5293,0.208,1.0549,1.5549,0.4999,V,0.0035499999999999976,qs
29,0.49635,1.2,2,0.40535,0.28126,0.51289,29,2.06811,-0.26,-0.13236,0.37226,5,2D1U,1.0,True,1.008,0,False,left,0.0,1.4256,1.8005,0.3749,0.409,0.9095,0.5005,V,0.0041499999999999315,qs
30,0.49635,1.2,2,0.31435,0.29781,0.77761,30,1.93575,-0.9,-0.44671,0.04963,5,lapse_rate,2.0,False,3.386,0,False,right,0.0,1.5949,1.6453,0.0503,0.3113,0.8119,0.5006,A,0.0042500000000000315,qs
31,0.49635,0.1,2,0.33917,0.32262,0.80243,31,2.49001,0.06,0.03309,0.52944,5,3D1U,2.0,True,0.6,0,False,right,0.0,1.6528,2.1869,0.5342,0.3446,0.8454,0.5008,A,0.0044500000000000095,qs
32,0.49635,1.2,1,0.37226,0.43844,0.77761,32,2.53137,-0.1,-0.04963,0.44671,5,2D1U,2.0,True,0.459,0,False,right,0.0,0.3745,0.825,0.4505,1.6087,2.1086,0.4999,A,0.0035499999999999976,qs
33,0.49635,0.1,1,0.33917,0.21508,0.41362,33,1.75376,-0.42,-0.20681,0.28954,5,1D2U,2.0,True,0.286,0,False,right,0.0,0.3397,0.6307,0.291,1.047,1.5473,0.5003,A,0.0039499999999999535,qs
34,0.49635,1.2,2,0.32262,0.20681,0.50462,34,2.05984,0.06,0.03309,0.52944,5,3D1U,1.0,False,0.66,0,False,left,0.0,1.3351,1.8687,0.5336,0.3262,0.8273,0.5012,A,0.0048499999999999654,qs
35,0.49635,0.1,1,0.37226,0.34744,0.70316,35,1.96884,-0.9,-0.44671,0.04963,5,1D3U,2.0,True,0.108,0,False,right,0.0,0.3798,0.4294,0.0496,1.1375,1.6382,0.5006,A,0.0042500000000000315,qs
36,0.49635,1.2,1,0.25645,0.35571,0.44671,36,1.60485,-0.9,-0.44671,0.04963,5,lapse_rate,2.0,True,1.417,0,False,right,0.0,0.2581,0.308,0.0498,0.7579,1.2583,0.5004,V,0.0040499999999999425,qs
37,0.49635,1.2,2,0.24817,0.40535,0.53771,37,2.63891,0.9,0.44671,0.95133,5,lapse_rate,2.0,True,0.242,0,False,right,0.0,1.2911,2.2499,0.9588,0.2503,0.7496,0.4993,A,0.002950000000000008,qs
38,0.49635,1.2,1,0.2399,0.31435,0.46326,38,1.8034,-0.42,-0.20681,0.28954,5,1D2U,1.0,False,1.435,0,False,left,0.0,0.2387,0.5311,0.2924,0.9983,1.4979,0.4996,A,0.003249999999999975,qs
39,0.49635,0.1,1,0.27299,0.24817,0.49635,39,2.0433,0.06,0.03309,0.52944,5,2D1U,1.0,True,11.001,0,False,left,0.0,0.2724,0.8058,0.5335,1.3063,1.8059,0.4996,V,0.003249999999999975,qs
40,0.49635,1.2,1,0.26472,0.43017,0.41362,40,1.65449,-0.9,-0.44671,0.04963,5,1D3U,2.0,True,1.86,0,False,right,0.0,0.2636,0.3137,0.0501,0.7302,1.2309,0.5007,V,0.0043500000000000205,qs
41,0.49635,0.1,1,0.32262,0.29781,0.74452,41,2.47346,0.22,0.10754,0.61216,5,3D1U,1.0,True,2.557,0,False,left,0.0,0.3254,0.9412,0.6158,1.6919,2.1921,0.5001,V,0.0037499999999999756,qs
42,0.49635,1.2,2,0.25645,0.25645,0.84379,42,2.4652,0.22,0.10754,0.61216,5,3D1U,2.0,True,0.466,0,False,right,0.0,1.6095,2.2261,0.6166,0.259,0.7593,0.5003,V,0.0039499999999999535,qs
43,0.49635,0.1,2,0.21508,0.28126,0.80243,43,2.74645,0.9,0.44671,0.95133,5,lapse_rate,2.0,True,0.201,0,False,right,0.0,1.5257,2.4838,0.9581,0.2179,0.7177,0.4998,V,0.0034500000000000086,qs
44,0.49635,0.1,2,0.30608,0.32262,0.78588,44,2.1591,-0.5,-0.24817,0.24817,5,1D2U,1.0,True,0.683,1,True,left,0.0,1.5996,1.8503,0.2507,0.3073,0.8078,0.5004,A,0.0040499999999999425,qs
45,0.49635,1.2,2,0.26472,0.3888,0.81897,45,2.01847,-0.9,-0.44671,0.04963,5,1D3U,2.0,False,2.483,0,False,right,0.0,1.5873,1.6365,0.0492,0.2616,0.7627,0.5011,V,0.0047499999999999765,qs
46,0.49635,0.1,1,0.31435,0.39708,0.43844,46,2.17566,0.06,0.03309,0.52944,5,2D1U,1.0,True,0.425,0,False,left,0.0,0.3195,0.8532,0.5337,1.2945,1.7949,0.5004,V,0.0040499999999999425,qs
47,0.49635,1.2,1,0.22336,0.33917,0.46326,47,2.01021,-0.02,-0.00827,0.48807,5,2D1U,2.0,True,1.543,1,True,right,0.0,0.2248,0.7169,0.492,1.1833,1.6837,0.5004,V,0.0040499999999999425,qs
48,0.49635,0.1,1,0.3309,0.28126,0.81897,48,2.53964,0.22,0.10754,0.61216,5,3D1U,1.0,True,0.233,0,False,left,0.0,0.3341,0.9515,0.6174,1.7764,2.2771,0.5007,A,0.0043500000000000205,qs
49,0.49635,0.1,2,0.38053,0.37226,0.43844,49,1.73721,-0.9,-0.44671,0.04963,5,lapse_rate,1.0,True,0.684,0,False,left,0.0,1.3223,1.373,0.0507,0.3808,0.8809,0.5001,V,0.0037499999999999756,qs
50,0.49635,1.2,1,0.39708,0.31435,0.62043,50,1.87784,-0.9,-0.44671,0.04963,5,1D3U,2.0,True,1.746,0,False,right,0.0,0.3958,0.4465,0.0506,1.0715,1.5709,0.4994,V,0.003049999999999997,qs
51,0.49635,0.1,2,0.34744,0.3309,0.87688,51,2.29974,-0.5,-0.24817,0.24817,5,1D2U,1.0,True,0.607,1,True,left,0.0,1.7335,1.983,0.2495,0.3498,0.85,0.5002,V,0.0038499999999999646,qs
52,0.49635,1.2,2,0.24817,0.44671,0.66179,52,2.42382,0.14,0.06618,0.5708,5,3D1U,2.0,True,6.168,1,True,right,0.0,1.418,1.992,0.574,0.2518,0.7511,0.4993,A,0.002950000000000008,qs
53,0.49635,0.1,2,0.43017,0.32262,0.51289,53,1.81166,-0.9,-0.44671,0.04963,5,1D3U,1.0,True,1.009,0,False,left,0.0,1.4542,1.5041,0.0499,0.4367,0.9376,0.5009,A,0.0045499999999999985,qs
54,0.49635,1.2,2,0.43017,0.43844,0.64525,54,2.5231,0.02,0.00827,0.51289,5,2D1U,1.0,False,1.001,2,True,left,0.0,1.5839,2.0998,0.5159,0.4338,0.934,0.5002,V,0.0038499999999999646,qs
55,0.49635,0.1,2,0.32262,0.28954,0.82724,55,2.20874,-0.46,-0.23163,0.27299,5,1D2U,1.0,True,0.674,2,True,left,0.0,1.6611,1.9365,0.2754,0.3274,0.8281,0.5006,V,0.0042500000000000315,qs
56,0.49635,1.2,1,0.28126,0.30608,0.63698,56,1.7703,-0.9,-0.44671,0.04963,5,lapse_rate,2.0,True,1.409,0,False,right,0.0,0.2852,0.3345,0.0493,0.9763,1.4764,0.5001,V,0.0037499999999999756,qs
57,0.49635,1.2,2,0.25645,0.26472,0.43844,57,1.50559,-0.9,-0.44671,0.04963,5,1D3U,1.0,True,0.75,0,False,left,0.0,1.2034,1.2539,0.0505,0.2619,0.7615,0.4996,V,0.003249999999999975,qs
58,0.49635,0.1,2,0.39708,0.33917,0.79415,58,2.29974,-0.46,-0.23163,0.27299,5,1D2U,1.0,True,0.384,2,True,left,0.0,1.7011,1.9761,0.275,0.4013,0.9012,0.4999,V,0.0035499999999999976,qs
59,0.49635,1.2,1,0.24817,0.3309,0.50462,59,2.10948,0.06,0.03309,0.52944,5,2D1U,1.0,True,3.383,2,False,left,0.0,0.2526,0.786,0.5334,1.2943,1.7941,0.4997,V,0.003349999999999964,qs
60,0.49635,0.1,1,0.38053,0.41362,0.52944,60,2.77127,0.9,0.44671,0.95133,5,lapse_rate,1.0,True,3.109,0,False,left,0.0,0.3796,1.3382,0.9586,1.8712,2.3712,0.5,V,0.0036499999999999866,qs
61,0.49635,0.1,2,0.25645,0.29781,0.6287,61,2.25011,0.14,0.06618,0.5708,5,3D1U,2.0,True,1.059,1,True,right,0.0,1.3933,1.9677,0.5744,0.261,0.7597,0.4987,V,0.0023499999999999632,qs
62,0.49635,1.2,1,0.43017,0.25645,0.65352,62,1.92749,-0.82,-0.41362,0.091,5,1D3U,2.0,True,1.259,1,True,right,0.0,0.4353,0.5263,0.091,1.1846,1.6855,0.5009,A,0.0045499999999999985,qs
63,0.49635,0.1,1,0.32262,0.29781,0.54598,63,1.71239,-0.9,-0.44671,0.04963,5,lapse_rate,2.0,True,0.21,0,False,right,0.0,0.3212,0.3714,0.0501,0.9208,1.4206,0.4998,V,0.0034500000000000086,qs
64,0.49635,0.1,1,0.3309,0.25645,0.58734,64,2.20048,0.06,0.03309,0.52944,5,2D1U,1.0,True,0.867,2,False,left,0.0,0.3369,0.87,0.5331,1.461,1.9618,0.5008,A,0.0044500000000000095,qs
65,0.49635,1.2,1,0.3888,0.24817,0.86033,65,2.56445,0.14,0.06618,0.5708,5,3D1U,2.0,False,1.409,1,True,right,0.0,0.3917,0.9662,0.5745,1.8344,2.3326,0.4982,V,0.0018499999999999628,qs
66,0.49635,0.1,2,0.37226,0.32262,0.89342,66,2.37419,-0.42,-0.20681,0.28954,5,1D2U,1.0,True,0.791,2,False,left,0.0,1.7771,2.0695,0.2924,0.3765,0.8773,0.5008,V,0.0044500000000000095,qs
67,0.49635,0.1,1,0.42189,0.42189,0.60389,67,1.99365,-0.9,-0.44671,0.04963,5,lapse_rate,2.0,True,0.104,0,False,right,0.0,0.423,0.4735,0.0505,1.0815,1.5814,0.4999,A,0.0035499999999999976,qs
68,0.49635,1.2,2,0.22336,0.43017,0.82724,68,2.26666,-0.42,-0.20681,0.28954,5,1D2U,1.0,True,0.825,2,False,left,0.0,1.5609,1.8525,0.2917,0.2267,0.7268,0.5001,V,0.0037499999999999756,qs
69,0.49635,0.1,2,0.2399,0.32262,0.88515,69,2.03502,-0.82,-0.41362,0.091,5,1D3U,1.0,True,0.785,1,True,left,0.0,1.6348,1.727,0.0923,0.2434,0.7436,0.5002,A,0.0038499999999999646,qs
70,0.49635,1.2,1,0.36399,0.41362,0.59561,70,2.45691,0.18,0.091,0.58734,5,3D1U,2.0,False,3.392,2,True,right,0.0,0.3636,0.9556,0.592,1.5551,2.0557,0.5006,V,0.0042500000000000315,qs
71,0.49635,0.1,2,0.26472,0.29781,0.57907,71,2.15084,0.02,0.00827,0.51289,5,2D1U,1.0,False,0.508,3,True,left,0.0,1.3511,1.8679,0.5169,0.2673,0.7682,0.5009,A,0.0045499999999999985,qs
72,0.49635,1.2,2,0.32262,0.23163,0.80243,72,1.94403,-0.82,-0.41362,0.091,5,1D3U,1.0,True,0.793,1,True,left,0.0,1.6334,1.725,0.0916,0.3247,0.8248,0.5001,A,0.0037499999999999756,qs
73,0.49635,0.1,2,0.34744,0.34744,0.55425,73,2.27492,0.06,0.03309,0.52944,5,2D1U,1.0,False,2.167,4,True,left,0.0,1.406,1.9391,0.5331,0.3475,0.8476,0.5001,A,0.0037499999999999756,qs
74,0.49635,1.2,1,0.3888,0.24817,0.7197,74,2.46518,0.22,0.10754,0.61216,5,3D1U,1.0,True,0.559,2,False,left,0.0,0.3877,1.0043,0.6166,1.7292,2.2295,0.5004,V,0.0040499999999999425,qs
75,0.49635,0.1,2,0.29781,0.35571,0.67834,75,2.13429,-0.38,-0.19027,0.30608,5,1D2U,1.0,True,0.359,2,False,left,0.0,1.4865,1.7947,0.3083,0.3028,0.8033,0.5004,A,0.0040499999999999425,qs
76,0.49635,0.1,1,0.28126,0.19854,0.48807,76,2.41555,0.9,0.44671,0.95133,5,lapse_rate,1.0,True,0.599,0,False,left,0.0,0.2843,1.243,0.9587,1.7343,2.2345,0.5002,A,0.0038499999999999646,qs
77,0.49635,1.2,1,0.20681,0.3888,0.55425,77,2.19219,0.1,0.04963,0.54598,5,2D1U,2.0,False,0.733,4,False,right,0.0,0.2095,0.7596,0.5501,1.3185,1.8182,0.4996,V,0.003249999999999975,qs
78,0.49635,0.1,1,0.44671,0.21508,0.74452,78,2.85399,0.9,0.44671,0.95133,5,lapse_rate,1.0,True,0.675,0,False,left,0.0,0.4512,1.4098,0.9586,2.159,2.6594,0.5004,A,0.0040499999999999425,qs
79,0.49635,0.1,2,0.36399,0.34744,0.55425,79,2.37419,0.22,0.10754,0.61216,5,3D1U,2.0,True,0.417,2,False,right,0.0,1.4251,2.0427,0.6176,0.3673,0.8671,0.4998,A,0.0034500000000000086,qs
80,0.49635,1.2,1,0.26472,0.34744,0.8107,80,2.05157,-0.74,-0.37226,0.13236,5,1D3U,2.0,True,0.467,1,False,right,0.0,0.2618,0.396,0.1342,1.2122,1.7121,0.4998,V,0.0034500000000000086,qs
81,0.49635,0.1,2,0.27299,0.39708,0.75279,81,2.22529,-0.38,-0.19027,0.30608,5,1D2U,1.0,True,2.592,2,False,left,0.0,1.5329,1.8399,0.307,0.2742,0.7732,0.499,A,0.0026499999999999857,qs
82,0.49635,1.2,2,0.44671,0.31435,0.85206,82,2.24183,-0.74,-0.37226,0.13236,5,1D3U,1.0,True,0.75,1,False,left,0.0,1.8038,1.9365,0.1328,0.445,0.9449,0.5,V,0.0036499999999999866,qs
83,0.49635,0.1,1,0.28126,0.25645,0.60389,83,2.58928,0.9,0.44671,0.95133,5,lapse_rate,1.0,True,2.682,0,False,left,0.0,0.2858,1.2441,0.9583,1.8516,2.3521,0.5005,A,0.0041499999999999315,qs
84,0.49635,0.1,2,0.40535,0.28954,0.80243,84,2.56447,0.14,0.06618,0.5708,5,2D1U,1.0,False,2.309,4,False,left,0.0,1.7116,2.287,0.5754,0.4035,0.904,0.5005,A,0.0041499999999999315,qs
85,0.49635,1.2,1,0.3309,0.43017,0.46326,85,2.05158,-0.34,-0.17372,0.3309,5,1D2U,2.0,True,0.935,2,False,right,0.0,0.3315,0.6654,0.3339,1.1317,1.6314,0.4997,A,0.003349999999999964,qs
86,0.49635,0.1,2,0.3888,0.20681,0.43844,86,2.14256,0.22,0.10754,0.61216,5,3D1U,1.0,False,0.942,2,False,left,0.0,1.3325,1.9489,0.6164,0.3905,0.8902,0.4997,V,0.003349999999999964,qs
87,0.49635,1.2,2,0.27299,0.20681,0.84379,87,2.44864,0.26,0.13236,0.6287,5,3D1U,2.0,True,1.651,2,False,right,0.0,1.6235,2.2556,0.6321,0.2722,0.7726,0.5004,A,0.0040499999999999425,qs
88,0.49635,0.1,1,0.42189,0.33917,0.86861,88,2.45692,-0.34,-0.17372,0.3309,5,1D2U,1.0,False,6.875,2,False,left,0.0,0.4266,0.7592,0.3326,1.6346,2.1351,0.5005,A,0.0041499999999999315,qs
89,0.49635,1.2,2,0.40535,0.41362,0.88515,89,2.78781,0.18,0.091,0.58734,5,2D1U,1.0,False,2.067,4,False,left,0.0,1.7998,2.3919,0.5921,0.4084,0.9077,0.4993,V,0.002950000000000008,qs
90,0.49635,1.2,1,0.35571,0.27299,0.55425,90,1.72893,-0.9,-0.44671,0.04963,5,lapse_rate,2.0,True,1.058,0,False,right,0.0,0.3559,0.4061,0.0501,0.965,1.4652,0.5002,V,0.0038499999999999646,qs
91,0.49635,0.1,2,0.35571,0.3309,0.82724,91,2.14256,-0.74,-0.37226,0.13236,5,1D3U,1.0,True,0.709,1,False,left,0.0,1.6873,1.82,0.1327,0.3544,0.8536,0.4991,A,0.0027499999999999747,qs
92,0.49635,1.2,2,0.22336,0.37226,0.83552,92,2.23357,-0.38,-0.19027,0.30608,5,1D2U,1.0,True,0.507,3,True,left,0.0,1.5641,1.8725,0.3084,0.2228,0.7222,0.4994,V,0.003049999999999997,qs
93,0.49635,1.2,1,0.28954,0.42189,0.71143,93,2.87054,0.9,0.44671,0.95133,5,lapse_rate,2.0,False,2.033,0,False,right,0.0,0.2872,1.2456,0.9585,1.9623,2.4618,0.4995,V,0.003149999999999986,qs
94,0.49635,0.1,2,0.20681,0.30608,0.4798,94,2.1012,0.22,0.10754,0.61216,5,2D1U,1.0,False,1.91,4,False,left,0.0,1.1899,1.8064,0.6165,0.2067,0.7063,0.4997,V,0.003349999999999964,qs
95,0.49635,1.2,2,0.34744,0.26472,0.45498,95,2.19219,0.26,0.13236,0.6287,5,3D1U,2.0,True,0.476,2,False,right,0.0,1.3061,1.9398,0.6337,0.3482,0.8483,0.5002,A,0.0038499999999999646,qs
96,0.49635,0.1,1,0.31435,0.41362,0.75279,96,2.15083,-0.66,-0.3309,0.17372,5,1D3U,2.0,True,3.491,1,False,right,0.0,0.3182,0.4935,0.1753,1.2521,1.7519,0.4998,V,0.0034500000000000086,qs
97,0.49635,1.2,2,0.3888,0.43844,0.81897,97,2.44864,-0.38,-0.19027,0.30608,5,1D2U,1.0,True,0.283,3,True,left,0.0,1.7187,2.0264,0.3076,0.3929,0.8934,0.5005,A,0.0041499999999999315,qs
98,0.49635,0.1,1,0.31435,0.33917,0.40535,98,1.60485,-0.9,-0.44671,0.04963,5,lapse_rate,2.0,True,0.167,0,False,right,0.0,0.3159,0.3667,0.0508,0.7753,1.2743,0.4991,A,0.0027499999999999747,qs
99,0.49635,0.1,1,0.42189,0.39708,0.53771,99,2.48173,0.26,0.13236,0.6287,5,3D1U,1.0,True,0.825,2,False,left,0.0,0.424,1.0574,0.6334,1.5992,2.0991,0.5,A,0.0036499999999999866,qs
100,0.49635,1.2,1,0.37226,0.43017,0.45498,100,1.92748,-0.66,-0.3309,0.17372,5,1D3U,2.0,True,0.464,1,False,right,0.0,0.3719,0.547,0.1751,1.0056,1.5057,0.5,A,0.0036499999999999866,qs
101,0.49635,0.1,1,0.32262,0.24817,0.42189,101,2.11773,0.26,0.13236,0.6287,5,2D1U,2.0,False,3.975,4,False,right,0.0,0.3202,0.954,0.6338,1.3785,1.8788,0.5003,V,0.0039499999999999535,qs
102,0.49635,1.2,2,0.3309,0.40535,0.5708,102,2.45692,0.3,0.1489,0.65352,5,2D1U,2.0,True,0.4,4,False,right,0.0,1.4047,2.0632,0.6586,0.3298,0.8302,0.5004,A,0.0040499999999999425,qs
103,0.49635,0.1,2,0.25645,0.42189,0.57907,103,2.36592,0.22,0.10754,0.61216,5,3D1U,2.0,True,6.158,3,True,right,0.0,1.3417,1.9588,0.6171,0.2586,0.7589,0.5003,V,0.0039499999999999535,qs
104,0.49635,1.2,2,0.38053,0.40535,0.47153,104,2.70509,0.9,0.44671,0.95133,5,lapse_rate,2.0,True,0.425,0,False,right,0.0,1.3596,2.3177,0.9581,0.3845,0.884,0.4995,V,0.003149999999999986,qs
105,0.49635,1.2,1,0.34744,0.44671,0.61216,105,2.07638,-0.66,-0.3309,0.17372,5,1D3U,2.0,True,0.857,1,False,right,0.0,0.3493,0.5253,0.176,1.1422,1.6419,0.4997,V,0.003349999999999964,qs
106,0.49635,0.1,2,0.25645,0.32262,0.76934,106,2.17566,-0.34,-0.17372,0.3309,5,1D2U,1.0,True,0.427,4,True,left,0.0,1.5308,1.8642,0.3334,0.2558,0.7554,0.4996,V,0.003249999999999975,qs
107,0.49635,1.2,1,0.32262,0.28126,0.70316,107,2.41555,0.22,0.10754,0.61216,5,3D1U,1.0,True,1.092,3,True,left,0.0,0.324,0.9407,0.6167,1.649,2.1484,0.4993,A,0.002950000000000008,qs
108,0.49635,0.1,2,0.40535,0.2399,0.7197,108,2.51482,0.3,0.1489,0.65352,5,2D1U,2.0,True,0.543,4,False,right,0.0,1.6301,2.2883,0.6582,0.4052,0.9043,0.4991,A,0.0027499999999999747,qs
109,0.49635,1.2,2,0.2399,0.32262,0.89342,109,2.1591,-0.58,-0.28954,0.20681,5,1D3U,1.0,True,3.809,1,False,left,0.0,1.6415,1.8498,0.2083,0.241,0.742,0.501,V,0.0046499999999999875,qs
110,0.49635,0.1,1,0.42189,0.22336,0.72797,110,2.20047,-0.34,-0.17372,0.3309,5,1D2U,2.0,True,1.417,4,True,right,0.0,0.4234,0.7576,0.3342,1.4901,1.9914,0.5013,A,0.0049499999999999544,qs
111,0.49635,0.1,2,0.20681,0.25645,0.69488,111,1.70412,-0.9,-0.44671,0.04963,5,lapse_rate,1.0,True,0.598,0,False,left,0.0,1.4053,1.4543,0.0491,0.2053,0.705,0.4997,A,0.003349999999999964,qs
112,0.49635,1.2,2,0.39708,0.40535,0.80243,112,3.05254,0.9,0.44671,0.95133,5,lapse_rate,2.0,True,0.45,0,False,right,0.0,1.7117,2.6697,0.958,0.4034,0.9037,0.5003,V,0.0039499999999999535,qs
113,0.49635,1.2,2,0.31435,0.23163,0.75279,113,2.40728,0.22,0.10754,0.61216,5,3D1U,1.0,False,0.832,3,True,left,0.0,1.5724,2.1891,0.6167,0.3134,0.8141,0.5007,A,0.0043500000000000205,qs
114,0.49635,0.1,1,0.34744,0.3888,0.6287,114,2.48999,0.26,0.13236,0.6287,5,2D1U,1.0,True,8.307,5,True,left,0.0,0.3502,0.9841,0.634,1.6167,2.1165,0.4999,V,0.0035499999999999976,qs
115,0.49635,1.2,1,0.21508,0.25645,0.59561,115,1.91093,-0.3,-0.1489,0.34744,5,1D2U,2.0,True,0.524,4,False,right,0.0,0.217,0.5674,0.3504,1.1669,1.6676,0.5007,V,0.0043500000000000205,qs
116,0.49635,0.1,2,0.41362,0.26472,0.50462,116,1.88612,-0.58,-0.28954,0.20681,5,1D3U,1.0,True,0.877,1,False,left,0.0,1.422,1.6308,0.2088,0.413,0.9132,0.5002,A,0.0038499999999999646,qs
117,0.49635,1.2,1,0.43017,0.19854,0.43844,117,2.1922,0.26,0.13236,0.6287,5,2D1U,2.0,False,1.908,5,True,right,0.0,0.4317,1.0656,0.6338,1.5073,2.0076,0.5003,V,0.0039499999999999535,qs
118,0.49635,0.1,2,0.19854,0.28954,0.66179,118,2.27492,0.26,0.13236,0.6287,5,3D1U,2.0,True,0.851,4,True,right,0.0,1.3664,1.9998,0.6334,0.2003,0.7002,0.4999,V,0.0035499999999999976,qs
119,0.49635,0.1,1,0.34744,0.43844,0.82724,119,2.1591,-0.9,-0.44671,0.04963,5,lapse_rate,2.0,True,0.11,0,False,right,0.0,0.3467,0.3967,0.0501,1.2302,1.7301,0.5,A,0.0036499999999999866,qs
120,0.49635,1.2,1,0.28954,0.3309,0.40535,120,1.86958,-0.3,-0.1489,0.34744,5,1D2U,1.0,False,2.718,4,False,left,0.0,0.2929,0.6428,0.3498,1.0508,1.5509,0.5001,A,0.0037499999999999756,qs
121,0.49635,0.1,1,0.39708,0.28954,0.76106,121,2.15084,-0.58,-0.28954,0.20681,5,1D3U,2.0,True,0.183,1,False,right,0.0,0.3966,0.6045,0.2079,1.3712,1.8709,0.4997,A,0.003349999999999964,qs
122,0.49635,1.2,1,0.24817,0.42189,0.85206,122,2.64717,0.26,0.13236,0.6287,5,3D1U,2.0,False,1.866,4,True,right,0.0,0.2489,0.882,0.6332,1.7403,2.2409,0.5006,A,0.0042500000000000315,qs
123,0.49635,0.1,2,0.34744,0.32262,0.82724,123,2.24182,-0.5,-0.24817,0.24817,5,1D3U,1.0,True,2.226,1,False,left,0.0,1.6849,1.9348,0.2498,0.3526,0.8516,0.499,A,0.0026499999999999857,qs
124,0.49635,1.2,2,0.37226,0.3888,0.43017,124,2.3411,0.3,0.1489,0.65352,5,2D1U,2.0,True,0.375,6,True,right,0.0,1.3051,1.9636,0.6585,0.3717,0.8713,0.4996,A,0.003249999999999975,qs
125,0.49635,0.1,1,0.42189,0.2399,0.6287,125,2.11774,-0.34,-0.17372,0.3309,5,1D2U,2.0,True,0.617,5,True,right,0.0,0.4244,0.758,0.3336,1.3905,1.8907,0.5002,A,0.0038499999999999646,qs
126,0.49635,0.1,2,0.22336,0.21508,0.52116,126,2.40728,0.9,0.44671,0.95133,5,lapse_rate,2.0,True,0.233,0,False,right,0.0,1.2507,2.2091,0.9584,0.2253,0.726,0.5007,V,0.0043500000000000205,qs
127,0.49635,1.2,1,0.37226,0.23163,0.86033,127,2.61409,0.3,0.1489,0.65352,5,2D1U,1.0,True,6.208,6,True,left,0.0,0.3716,1.0295,0.658,1.8961,2.3962,0.5001,V,0.0037499999999999756,qs
128,0.49635,0.1,2,0.28126,0.36399,0.63698,128,1.82821,-0.9,-0.44671,0.04963,5,lapse_rate,1.0,True,0.626,0,False,left,0.0,1.4207,1.4711,0.0504,0.2791,0.78,0.5009,A,0.0045499999999999985,qs
129,0.49635,0.1,1,0.2399,0.22336,0.77761,129,2.39074,0.3,0.1489,0.65352,5,3D1U,1.0,True,0.758,4,False,left,0.0,0.2376,0.8963,0.6588,1.6792,2.1792,0.5,A,0.0036499999999999866,qs
130,0.49635,1.2,1,0.28126,0.21508,0.88515,130,2.20874,-0.34,-0.17372,0.3309,5,1D2U,2.0,True,0.334,5,True,right,0.0,0.2786,0.6123,0.3337,1.504,2.0036,0.4996,A,0.003249999999999975,qs
131,0.49635,0.1,2,0.35571,0.34744,0.82724,131,2.27491,-0.5,-0.24817,0.24817,5,1D3U,1.0,True,0.409,1,False,left,0.0,1.6945,1.944,0.2494,0.3608,0.8621,0.5012,A,0.0048499999999999654,qs
132,0.49635,1.2,1,0.37226,0.43844,0.76934,132,2.72991,0.3,0.1489,0.65352,5,3D1U,2.0,False,1.717,4,False,right,0.0,0.371,1.0296,0.6586,1.8042,2.3046,0.5003,A,0.0039499999999999535,qs
133,0.49635,0.1,1,0.21508,0.24817,0.6287,133,1.93574,-0.3,-0.1489,0.34744,5,1D2U,2.0,True,3.326,6,True,right,0.0,0.2176,0.5677,0.3501,1.2011,1.701,0.4999,V,0.0035499999999999976,qs
134,0.49635,1.2,2,0.26472,0.28126,0.78588,134,2.07638,-0.5,-0.24817,0.24817,5,1D3U,1.0,True,0.716,1,False,left,0.0,1.557,1.8075,0.2505,0.2649,0.7656,0.5007,V,0.0043500000000000205,qs
135,0.49635,1.2,2,0.38053,0.41362,0.78588,135,3.02771,0.9,0.44671,0.95133,5,lapse_rate,2.0,True,0.114,0,False,right,0.0,1.677,2.6346,0.9576,0.3854,0.8847,0.4993,V,0.002950000000000008,qs
136,0.49635,0.1,1,0.32262,0.29781,0.82724,136,2.57272,0.26,0.13236,0.6287,5,2D1U,2.0,False,2.675,7,True,right,0.0,0.3219,0.9556,0.6337,1.7888,2.2885,0.4997,A,0.003349999999999964,qs
137,0.49635,1.2,1,0.36399,0.29781,0.75279,137,2.20048,-0.42,-0.20681,0.28954,5,1D3U,2.0,True,0.909,1,False,right,0.0,0.3617,0.6536,0.2919,1.4121,1.9121,0.5,V,0.0036499999999999866,qs
138,0.49635,0.1,1,0.35571,0.43844,0.57907,138,2.52309,0.3,0.1489,0.65352,5,2D1U,2.0,False,2.44,8,True,right,0.0,0.3613,1.0193,0.658,1.6026,2.103,0.5003,A,0.0039499999999999535,qs
139,0.49635,1.2,1,0.27299,0.3888,0.58734,139,2.69681,0.9,0.44671,0.95133,5,lapse_rate,2.0,False,1.35,0,False,right,0.0,0.2771,1.2353,0.9582,1.8264,2.327,0.5006,A,0.0042500000000000315,qs
140,0.49635,1.2,2,0.23163,0.42189,0.7197,140,2.21701,-0.3,-0.1489,0.34744,5,1D2U,1.0,True,3.25,6,True,left,0.0,1.4557,1.8056,0.3499,0.2311,0.7307,0.4995,A,0.003149999999999986,qs
141,0.49635,0.1,2,0.3309,0.42189,0.72797,141,2.64718,0.34,0.17372,0.67007,5,3D1U,1.0,False,3.818,4,False,left,0.0,1.5664,2.2412,0.6748,0.3332,0.8327,0.4995,A,0.003149999999999986,qs
142,0.49635,1.2,2,0.32262,0.20681,0.43844,142,2.13429,0.34,0.17372,0.67007,5,2D1U,2.0,True,0.726,8,False,right,0.0,1.2691,1.944,0.6749,0.3274,0.8271,0.4997,V,0.003349999999999964,qs
143,0.49635,0.1,1,0.34744,0.25645,0.66179,143,2.4321,0.34,0.17372,0.67007,5,2D1U,1.0,True,0.593,8,False,left,0.0,0.3519,1.0264,0.6745,1.6924,2.1933,0.5009,A,0.0045499999999999985,qs
144,0.49635,1.2,2,0.3888,0.43844,0.59561,144,2.20874,-0.42,-0.20681,0.28954,5,1D3U,2.0,False,2.041,1,False,right,0.0,1.4929,1.7855,0.2926,0.3929,0.8929,0.5,A,0.0036499999999999866,qs
145,0.49635,0.1,2,0.39708,0.25645,0.74452,145,2.58101,0.38,0.19027,0.68661,5,3D1U,2.0,True,0.326,4,False,right,0.0,1.6528,2.3449,0.692,0.4032,0.9031,0.4999,A,0.0035499999999999976,qs
146,0.49635,1.2,1,0.41362,0.22336,0.70316,146,2.20875,-0.26,-0.13236,0.37226,5,1D2U,2.0,True,0.501,6,False,right,0.0,0.4118,0.7869,0.3751,1.4942,1.995,0.5008,A,0.0044500000000000095,qs
147,0.49635,0.1,1,0.43844,0.42189,0.49635,147,2.12602,-0.46,-0.23163,0.27299,5,1D3U,2.0,True,0.542,2,True,right,0.0,0.4426,0.7171,0.2745,1.218,1.7173,0.4992,A,0.0028499999999999637,qs
148,0.49635,1.2,1,0.28126,0.27299,0.65352,148,1.97711,-0.46,-0.23163,0.27299,5,1D3U,2.0,True,0.674,2,True,right,0.0,0.2829,0.5574,0.2746,1.2162,1.7158,0.4997,A,0.003349999999999964,qs
149,0.49635,0.1,1,0.20681,0.20681,0.76106,149,2.35764,0.38,0.19027,0.68661,5,3D1U,1.0,True,0.733,4,False,left,0.0,0.2079,0.9006,0.6927,1.6668,2.1662,0.4993,V,0.002950000000000008,qs
150,0.49635,1.2,2,0.39708,0.36399,0.49635,150,2.12603,-0.26,-0.13236,0.37226,5,1D2U,2.0,False,0.426,6,False,right,0.0,1.4,1.7747,0.3748,0.3998,0.9,0.5002,A,0.0038499999999999646,qs
151,0.49635,0.1,2,0.43017,0.35571,0.50462,151,2.44037,0.3,0.1489,0.65352,5,2D1U,2.0,True,2.293,9,True,right,0.0,1.4396,2.098,0.6584,0.4309,0.9313,0.5003,A,0.0039499999999999535,qs
152,0.49635,1.2,1,0.35571,0.40535,0.81897,152,2.7299,0.3,0.1489,0.65352,5,2D1U,1.0,True,0.459,9,True,left,0.0,0.3612,1.0191,0.6579,1.8444,2.3446,0.5002,V,0.0038499999999999646,qs
153,0.49635,0.1,1,0.35571,0.32262,0.63698,153,2.08465,-0.46,-0.23163,0.27299,5,1D3U,2.0,True,0.274,2,True,right,0.0,0.3565,0.6313,0.2748,1.2729,1.7733,0.5004,V,0.0040499999999999425,qs
154,0.49635,1.2,2,0.21508,0.44671,0.80243,154,2.25011,-0.42,-0.20681,0.28954,5,1D3U,1.0,True,0.433,3,True,left,0.0,1.5223,1.8141,0.2918,0.2139,0.7133,0.4994,V,0.003049999999999997,qs
155,0.49635,0.1,1,0.36399,0.2399,0.84379,155,2.29147,-0.3,-0.1489,0.34744,5,1D2U,2.0,True,0.75,7,True,right,0.0,0.3658,0.7151,0.3493,1.5656,2.0655,0.5,V,0.0036499999999999866,qs
156,0.49635,1.2,1,0.35571,0.28954,0.72797,156,2.55618,0.38,0.19027,0.68661,5,3D1U,1.0,True,0.567,4,False,left,0.0,0.3542,1.0463,0.6921,1.779,2.2794,0.5005,A,0.0041499999999999315,qs
157,0.49635,0.1,2,0.30608,0.37226,0.77761,157,2.24184,-0.42,-0.20681,0.28954,5,1D3U,1.0,True,0.624,3,True,left,0.0,1.5886,1.8803,0.2917,0.3053,0.8054,0.5,A,0.0036499999999999866,qs
158,0.49635,1.2,1,0.22336,0.39708,0.72797,158,2.51483,0.34,0.17372,0.67007,5,3D1U,1.0,True,0.826,5,True,left,0.0,0.2254,0.9001,0.6747,1.6338,2.1327,0.4988,A,0.0024500000000000077,qs
159,0.49635,0.1,1,0.37226,0.29781,0.85206,159,2.64718,0.26,0.13236,0.6287,5,2D1U,1.0,True,0.332,9,False,left,0.0,0.3715,1.0043,0.6328,1.8627,2.3628,0.5001,V,0.0037499999999999756,qs
160,0.49635,1.2,1,0.23163,0.20681,0.59561,160,1.87784,-0.3,-0.1489,0.34744,5,1D2U,2.0,True,1.409,7,True,right,0.0,0.2323,0.5819,0.3497,1.1825,1.6819,0.4994,V,0.003049999999999997,qs
161,0.49635,0.1,2,0.28954,0.24817,0.79415,161,2.11775,-0.42,-0.20681,0.28954,5,1D3U,1.0,True,2.126,3,True,left,0.0,1.5926,1.8843,0.2918,0.2922,0.7927,0.5005,V,0.0041499999999999315,qs
162,0.49635,1.2,2,0.20681,0.31435,0.53771,162,1.92748,-0.26,-0.13236,0.37226,5,1D2U,2.0,False,1.8,8,True,right,0.0,1.2471,1.6222,0.3751,0.205,0.7058,0.5008,A,0.0044500000000000095,qs
163,0.49635,0.1,2,0.27299,0.22336,0.72797,163,2.34937,0.26,0.13236,0.6287,5,2D1U,2.0,True,2.233,9,False,right,0.0,1.5098,2.1435,0.6337,0.2769,0.7771,0.5001,A,0.0037499999999999756,qs
164,0.49635,1.2,1,0.30608,0.31435,0.42189,164,2.20874,0.34,0.17372,0.67007,5,3D1U,2.0,False,2.192,5,True,right,0.0,0.3046,0.9796,0.675,1.4043,1.9047,0.5004,A,0.0040499999999999425,qs
165,0.49635,0.1,1,0.24817,0.30608,0.84379,165,2.20047,-0.38,-0.19027,0.30608,5,1D3U,2.0,True,0.175,3,False,right,0.0,0.2497,0.5585,0.3088,1.4086,1.9086,0.5,V,0.0036499999999999866,qs
166,0.49635,1.2,2,0.25645,0.20681,0.7197,166,2.02675,-0.3,-0.1489,0.34744,5,1D2U,2.0,False,1.925,9,True,right,0.0,1.4797,1.8302,0.3505,0.2545,0.7547,0.5002,V,0.0038499999999999646,qs
167,0.49635,0.1,2,0.39708,0.28126,0.4798,167,1.96057,-0.38,-0.19027,0.30608,5,1D3U,1.0,True,0.834,3,False,left,0.0,1.386,1.6945,0.3085,0.4031,0.9041,0.501,V,0.0046499999999999875,qs
168,0.49635,1.2,2,0.35571,0.24817,0.45498,168,1.86129,-0.38,-0.19027,0.30608,5,1D3U,1.0,True,0.899,3,False,left,0.0,1.3174,1.6254,0.308,0.3586,0.8595,0.5008,V,0.0044500000000000095,qs
169,0.49635,0.1,1,0.25645,0.30608,0.60389,169,1.99367,-0.34,-0.17372,0.3309,5,1D2U,1.0,False,0.491,9,False,left,0.0,0.2578,0.5913,0.3335,1.1996,1.6991,0.4995,V,0.003149999999999986,qs
170,0.49635,1.2,2,0.3309,0.34744,0.88515,170,2.74645,0.38,0.19027,0.68661,5,3D1U,2.0,True,0.25,6,True,right,0.0,1.724,2.4143,0.6904,0.3319,0.8318,0.4999,A,0.0035499999999999976,qs
171,0.49635,0.1,2,0.35571,0.3888,0.52116,171,2.37418,0.22,0.10754,0.61216,5,2D1U,2.0,True,0.356,9,False,right,0.0,1.3747,1.9888,0.6141,0.3547,0.8543,0.4996,V,0.003249999999999975,qs
172,0.49635,1.2,2,0.40535,0.20681,0.53771,172,1.9523,-0.38,-0.19027,0.30608,5,1D2U,1.0,True,0.976,9,False,left,0.0,1.449,1.7578,0.3088,0.4074,0.9077,0.5003,A,0.0039499999999999535,qs
173,0.49635,0.1,1,0.22336,0.20681,0.42189,173,1.67931,-0.34,-0.17372,0.3309,5,1D3U,1.0,False,0.85,3,False,left,0.0,0.225,0.5588,0.3338,0.984,1.4837,0.4997,A,0.003349999999999964,qs
174,0.49635,1.2,2,0.28954,0.2399,0.55425,174,2.26665,0.38,0.19027,0.68661,5,3D1U,2.0,True,0.367,6,True,right,0.0,1.3483,2.0399,0.6916,0.2906,0.7897,0.499,V,0.0026499999999999857,qs
175,0.49635,0.1,1,0.27299,0.2399,0.72797,175,2.34937,0.22,0.10754,0.61216,5,2D1U,1.0,True,2.533,9,False,left,0.0,0.2785,0.8945,0.6159,1.6285,2.1276,0.4992,A,0.0028499999999999637,qs
176,0.49635,1.2,2,0.38053,0.31435,0.83552,176,2.61409,0.18,0.091,0.58734,5,2D1U,2.0,True,0.492,9,False,right,0.0,1.7203,2.3123,0.592,0.3795,0.8795,0.5,V,0.0036499999999999866,qs
177,0.49635,0.1,1,0.39708,0.28954,0.47153,177,2.34111,0.38,0.19027,0.68661,5,3D1U,1.0,True,2.117,6,True,left,0.0,0.3993,1.091,0.6916,1.5659,2.0661,0.5002,V,0.0038499999999999646,qs
178,0.49635,1.2,2,0.41362,0.32262,0.78588,178,2.32455,-0.38,-0.19027,0.30608,5,1D2U,1.0,True,0.434,9,False,left,0.0,1.7034,2.0121,0.3087,0.4119,0.9122,0.5003,A,0.0039499999999999535,qs
179,0.49635,0.1,2,0.43844,0.21508,0.62043,179,2.07638,-0.38,-0.19027,0.30608,5,1D3U,1.0,True,0.909,4,True,left,0.0,1.5653,1.8735,0.3082,0.4402,0.9402,0.5,V,0.0036499999999999866,qs
180,0.49635,1.2,1,0.22336,0.40535,0.62043,180,2.33283,0.18,0.091,0.58734,5,2D1U,2.0,False,1.817,9,False,right,0.0,0.2264,0.8175,0.5911,1.4426,1.9428,0.5002,A,0.0038499999999999646,qs
181,0.49635,0.1,2,0.40535,0.35571,0.43844,181,2.30801,0.22,0.10754,0.61216,5,2D1U,2.0,True,2.383,10,True,right,0.0,1.3508,1.9669,0.6161,0.4089,0.9093,0.5004,A,0.0040499999999999425,qs
182,0.49635,1.2,1,0.44671,0.41362,0.8107,182,2.49828,-0.34,-0.17372,0.3309,5,1D2U,2.0,True,1.542,10,True,right,0.0,0.4499,0.7837,0.3337,1.6004,2.1004,0.5001,A,0.0037499999999999756,qs
183,0.49635,0.1,2,0.28954,0.22336,0.76106,183,2.38247,0.22,0.10754,0.61216,5,2D1U,2.0,True,1.65,10,True,right,0.0,1.557,2.1741,0.617,0.2909,0.7907,0.4998,V,0.0034500000000000086,qs
184,0.49635,1.2,1,0.44671,0.44671,0.63698,184,2.33283,-0.38,-0.19027,0.30608,5,1D3U,2.0,True,0.309,4,True,right,0.0,0.4503,0.758,0.3077,1.3999,1.9,0.5001,V,0.0037499999999999756,qs
185,0.49635,0.1,2,0.19854,0.25645,0.67834,185,2.29975,0.34,0.17372,0.67007,5,3D1U,2.0,True,0.45,7,True,right,0.0,1.3861,2.0609,0.6748,0.2022,0.7028,0.5006,V,0.0042500000000000315,qs
186,0.49635,1.2,1,0.38053,0.35571,0.60389,186,2.16738,-0.34,-0.17372,0.3309,5,1D2U,2.0,True,0.467,10,True,right,0.0,0.379,0.7125,0.3335,1.3208,1.8208,0.5,V,0.0036499999999999866,qs
187,0.49635,0.1,1,0.28954,0.30608,0.71143,187,2.10948,-0.38,-0.19027,0.30608,5,1D3U,1.0,False,0.866,4,True,left,0.0,0.2941,0.6023,0.3082,1.3197,1.8198,0.5001,V,0.0037499999999999756,qs
188,0.49635,1.2,1,0.3309,0.29781,0.68661,188,2.10121,-0.42,-0.20681,0.28954,5,1D3U,2.0,True,0.809,4,False,right,0.0,0.3285,0.6209,0.2924,1.3122,1.8121,0.4999,V,0.0035499999999999976,qs
189,0.49635,0.1,1,0.31435,0.27299,0.75279,189,2.18392,-0.3,-0.1489,0.34744,5,1D2U,2.0,True,0.742,10,False,right,0.0,0.3145,0.6652,0.3507,1.4232,1.9234,0.5001,A,0.0037499999999999756,qs
190,0.49635,1.2,1,0.28954,0.29781,0.73625,190,2.40729,0.18,0.091,0.58734,5,2D1U,2.0,False,0.491,11,True,right,0.0,0.2937,0.886,0.5923,1.6276,2.1273,0.4997,V,0.003349999999999964,qs
191,0.49635,0.1,1,0.42189,0.38053,0.67834,191,2.64718,0.34,0.17372,0.67007,5,3D1U,2.0,False,0.367,7,True,right,0.0,0.4286,1.1033,0.6746,1.7868,2.2865,0.4997,A,0.003349999999999964,qs
192,0.49635,1.2,1,0.32262,0.22336,0.58734,192,1.91921,-0.42,-0.20681,0.28954,5,1D3U,2.0,True,0.734,4,False,right,0.0,0.3227,0.6147,0.292,1.206,1.7058,0.4997,V,0.003349999999999964,qs
193,0.49635,0.1,1,0.19854,0.36399,0.86033,193,2.60582,0.38,0.19027,0.68661,5,3D1U,1.0,True,0.551,8,True,left,0.0,0.1998,0.8916,0.6918,1.7586,2.2581,0.4995,V,0.003149999999999986,qs
194,0.49635,1.2,1,0.43844,0.41362,0.82724,194,2.78781,0.22,0.10754,0.61216,5,2D1U,2.0,False,0.358,12,True,right,0.0,0.4416,1.0575,0.6158,1.8911,2.3916,0.5005,A,0.0041499999999999315,qs
195,0.49635,0.1,2,0.39708,0.31435,0.7197,195,2.27492,-0.3,-0.1489,0.34744,5,1D2U,1.0,True,0.334,10,False,left,0.0,1.6259,1.9758,0.3499,0.4006,0.9005,0.5,A,0.0036499999999999866,qs
196,0.49635,1.2,1,0.41362,0.20681,0.43844,196,1.92748,-0.26,-0.13236,0.37226,5,1D2U,2.0,True,3.425,10,False,right,0.0,0.4143,0.7895,0.3752,1.2308,1.7313,0.5004,A,0.0040499999999999425,qs
197,0.49635,0.1,1,0.39708,0.43017,0.8107,197,2.763,0.26,0.13236,0.6287,5,2D1U,1.0,True,0.626,12,False,left,0.0,0.3977,1.0321,0.6344,1.8489,2.3487,0.4999,V,0.0035499999999999976,qs
198,0.49635,1.2,1,0.32262,0.22336,0.86861,198,2.59755,0.38,0.19027,0.68661,5,3D1U,1.0,True,0.584,8,True,left,0.0,0.3247,1.0161,0.6914,1.8921,2.3916,0.4994,V,0.003049999999999997,qs
199,0.49635,0.1,2,0.35571,0.28126,0.68661,199,2.19219,-0.26,-0.13236,0.37226,5,1D2U,1.0,True,0.309,10,False,left,0.0,1.5459,1.9213,0.3754,0.355,0.8542,0.4992,V,0.0028499999999999637,qs
200,0.49635,1.2,2,0.32262,0.26472,0.5708,200,1.94403,-0.42,-0.20681,0.28954,5,1D3U,1.0,True,0.434,4,False,left,0.0,1.401,1.6927,0.2917,0.3261,0.8257,0.4996,V,0.003249999999999975,qs
201,0.49635,0.1,2,0.43844,0.33917,0.51289,201,2.09293,-0.38,-0.19027,0.30608,5,1D3U,1.0,True,0.27,5,True,left,0.0,1.4544,1.763,0.3086,0.4369,0.9378,0.5009,V,0.0045499999999999985,qs
202,0.49635,1.2,1,0.41362,0.42189,0.78588,202,2.74644,0.26,0.13236,0.6287,5,2D1U,1.0,True,0.325,12,False,left,0.0,0.4191,1.0519,0.6327,1.8438,2.3433,0.4995,A,0.003149999999999986,qs
203,0.49635,0.1,2,0.44671,0.37226,0.54598,203,2.2501,-0.22,-0.10754,0.3888,5,1D2U,1.0,True,0.368,10,False,left,0.0,1.4979,1.8893,0.3914,0.4485,0.9481,0.4996,V,0.003249999999999975,qs
204,0.49635,1.2,2,0.33917,0.23163,0.75279,204,2.20874,-0.22,-0.10754,0.3888,5,1D2U,1.0,True,0.384,10,False,left,0.0,1.6015,1.9925,0.391,0.3433,0.8434,0.5001,V,0.0037499999999999756,qs
205,0.49635,0.1,1,0.37226,0.36399,0.61216,205,2.53137,0.38,0.19027,0.68661,5,3D1U,1.0,True,0.19,8,True,left,0.0,0.3732,1.0642,0.691,1.6811,2.1813,0.5001,V,0.0037499999999999756,qs
206,0.49635,1.2,1,0.28954,0.28954,0.83552,206,2.21703,-0.38,-0.19027,0.30608,5,1D3U,2.0,True,0.285,5,True,right,0.0,0.2927,0.6015,0.3088,1.4428,1.9433,0.5005,A,0.0041499999999999315,qs
207,0.49635,0.1,2,0.42189,0.28126,0.50462,207,2.31628,0.22,0.10754,0.61216,5,2D1U,2.0,True,0.397,13,True,right,0.0,1.4285,2.0451,0.6167,0.4203,0.9204,0.5001,V,0.0037499999999999756,qs
208,0.49635,1.2,1,0.28954,0.34744,0.87688,208,2.68028,0.34,0.17372,0.67007,5,3D1U,2.0,False,0.634,9,True,right,0.0,0.2931,0.968,0.6749,1.8515,2.3513,0.4997,A,0.003349999999999964,qs
209,0.49635,0.1,2,0.2399,0.21508,0.67834,209,1.93575,-0.38,-0.19027,0.30608,5,1D3U,1.0,True,0.425,5,True,left,0.0,1.4255,1.7339,0.3084,0.243,0.7437,0.5007,V,0.0043500000000000205,qs
210,0.49635,1.2,1,0.36399,0.42189,0.43844,210,2.05157,-0.34,-0.17372,0.3309,5,1D3U,2.0,True,0.63,5,False,right,0.0,0.3625,0.6957,0.3331,1.1371,1.6382,0.5011,V,0.0047499999999999765,qs
211,0.49635,0.1,1,0.19854,0.35571,0.42189,211,1.88611,-0.18,-0.091,0.41362,5,1D2U,2.0,True,0.274,10,False,right,0.0,0.2015,0.619,0.4175,1.0448,1.5432,0.4984,V,0.0020499999999999963,qs
212,0.49635,1.2,2,0.21508,0.28126,0.86033,212,2.53963,0.38,0.19027,0.68661,5,3D1U,2.0,True,0.375,10,True,right,0.0,1.5873,2.2793,0.692,0.2198,0.7207,0.5009,A,0.0045499999999999985,qs
213,0.49635,0.1,2,0.31435,0.3309,0.57907,213,2.13429,-0.18,-0.091,0.41362,5,1D2U,1.0,True,0.367,10,False,left,0.0,1.396,1.8123,0.4162,0.3126,0.812,0.4994,V,0.003049999999999997,qs
214,0.49635,1.2,1,0.3309,0.28126,0.42189,214,1.8613,-0.34,-0.17372,0.3309,5,1D3U,2.0,True,0.284,5,False,right,0.0,0.3365,0.6697,0.3332,1.095,1.5954,0.5003,A,0.0039499999999999535,qs
215,0.49635,0.1,2,0.23163,0.30608,0.62043,215,1.98539,-0.34,-0.17372,0.3309,5,1D3U,1.0,True,0.25,5,False,left,0.0,1.3604,1.694,0.3336,0.2359,0.7363,0.5004,A,0.0040499999999999425,qs
216,0.49635,1.2,2,0.31435,0.43017,0.77761,216,2.63064,0.22,0.10754,0.61216,5,2D1U,2.0,True,0.243,13,True,right,0.0,1.5995,2.2162,0.6168,0.3162,0.8158,0.4996,V,0.003249999999999975,qs
217,0.49635,0.1,2,0.34744,0.23163,0.74452,217,2.25011,-0.14,-0.06618,0.43017,5,1D2U,2.0,False,0.575,10,False,right,0.0,1.6021,2.0355,0.4334,0.3519,0.8516,0.4997,V,0.003349999999999964,qs
218,0.49635,1.2,2,0.26472,0.33917,0.47153,218,1.98539,-0.18,-0.091,0.41362,5,1D2U,2.0,False,1.976,11,True,right,0.0,1.2381,1.655,0.4169,0.2643,0.764,0.4997,V,0.003349999999999964,qs
219,0.49635,0.1,1,0.22336,0.37226,0.4798,219,1.91921,-0.3,-0.1489,0.34744,5,1D3U,2.0,True,0.33,5,False,right,0.0,0.2212,0.5711,0.3499,1.0545,1.5543,0.4999,A,0.0035499999999999976,qs
220,0.49635,1.2,2,0.31435,0.3309,0.43017,220,2.15911,0.18,0.091,0.58734,5,2D1U,2.0,True,0.425,13,False,right,0.0,1.249,1.8407,0.5917,0.3157,0.8159,0.5003,V,0.0039499999999999535,qs
221,0.49635,0.1,1,0.36399,0.28126,0.71143,221,2.53964,0.38,0.19027,0.68661,5,3D1U,1.0,True,0.324,10,True,left,0.0,0.3677,1.0599,0.6922,1.7765,2.2759,0.4994,A,0.003049999999999997,qs
222,0.49635,1.2,1,0.41362,0.39708,0.75279,222,2.40728,-0.3,-0.1489,0.34744,5,1D3U,2.0,True,0.3,5,False,right,0.0,0.42,0.7691,0.3491,1.5287,2.0281,0.4995,V,0.003149999999999986,qs
223,0.49635,0.1,2,0.24817,0.39708,0.87688,223,2.70509,0.38,0.19027,0.68661,5,3D1U,1.0,False,0.275,10,True,left,0.0,1.634,2.326,0.692,0.251,0.7508,0.4998,V,0.0034500000000000086,qs
224,0.49635,1.2,1,0.27299,0.43017,0.45498,224,2.04329,-0.22,-0.10754,0.3888,5,1D2U,2.0,True,0.551,11,False,right,0.0,0.2745,0.6666,0.3921,1.1257,1.6257,0.4999,V,0.0035499999999999976,qs
225,0.49635,0.1,1,0.28954,0.3309,0.89342,225,2.39901,-0.22,-0.10754,0.3888,5,1D2U,2.0,True,0.111,11,False,right,0.0,0.2907,0.6826,0.3919,1.5817,2.082,0.5003,A,0.0039499999999999535,qs
226,0.49635,1.2,1,0.44671,0.43844,0.85206,226,2.8209,0.18,0.091,0.58734,5,2D1U,2.0,False,1.924,13,False,right,0.0,0.4483,1.0399,0.5917,1.8976,2.3974,0.4998,V,0.0034500000000000086,qs
227,0.49635,0.1,2,0.35571,0.20681,0.87688,227,2.28319,-0.3,-0.1489,0.34744,5,1D3U,1.0,True,0.309,5,False,left,0.0,1.7436,2.0933,0.3497,0.3597,0.8597,0.5,A,0.0036499999999999866,qs
228,0.49635,1.2,2,0.3309,0.40535,0.67834,228,2.62237,0.42,0.20681,0.71143,5,3D1U,2.0,True,0.383,10,False,right,0.0,1.5154,2.2321,0.7167,0.3323,0.8323,0.5,A,0.0036499999999999866,qs
229,0.49635,0.1,1,0.38053,0.21508,0.65352,229,2.1591,-0.18,-0.091,0.41362,5,1D2U,1.0,False,0.458,12,True,left,0.0,0.3824,0.7988,0.4164,1.4572,1.9574,0.5002,A,0.0038499999999999646,qs
230,0.49635,1.2,1,0.26472,0.43844,0.47153,230,2.2832,0.22,0.10754,0.61216,5,2D1U,2.0,False,0.275,14,True,right,0.0,0.2645,0.8814,0.6168,1.3568,1.8565,0.4997,V,0.003349999999999964,qs
231,0.49635,0.1,2,0.26472,0.28954,0.58734,231,2.01021,-0.26,-0.13236,0.37226,5,1D3U,1.0,True,0.376,5,False,left,0.0,1.3535,1.7283,0.3748,0.2618,0.7617,0.4999,A,0.0035499999999999976,qs
232,0.49635,1.2,1,0.42189,0.43017,0.52944,232,2.58928,0.42,0.20681,0.71143,5,3D1U,1.0,True,0.509,10,False,left,0.0,0.4223,1.1388,0.7165,1.6719,2.1719,0.5,V,0.0036499999999999866,qs
233,0.49635,0.1,2,0.33917,0.36399,0.41362,233,2.32456,0.42,0.20681,0.71143,5,3D1U,2.0,True,0.251,10,False,right,0.0,1.2564,1.9725,0.7161,0.3394,0.8397,0.5003,A,0.0039499999999999535,qs
234,0.49635,1.2,2,0.24817,0.22336,0.78588,234,2.12602,-0.26,-0.13236,0.37226,5,1D3U,1.0,True,0.475,5,False,left,0.0,1.5397,1.9152,0.3755,0.2484,0.7487,0.5003,A,0.0039499999999999535,qs
235,0.49635,0.1,2,0.37226,0.26472,0.51289,235,2.27492,0.26,0.13236,0.6287,5,2D1U,2.0,True,2.4,14,False,right,0.0,1.3907,2.0243,0.6336,0.3744,0.8741,0.4997,V,0.003349999999999964,qs
236,0.49635,1.2,1,0.28126,0.35571,0.62043,236,2.14255,-0.22,-0.10754,0.3888,5,1D2U,2.0,True,0.767,13,True,right,0.0,0.2801,0.6718,0.3917,1.2967,1.7969,0.5002,A,0.0038499999999999646,qs
237,0.49635,0.1,1,0.30608,0.44671,0.87688,237,2.49828,-0.26,-0.13236,0.37226,5,1D3U,1.0,False,1.817,5,False,left,0.0,0.3062,0.681,0.3748,1.5647,2.0653,0.5006,V,0.0042500000000000315,qs
238,0.49635,1.2,2,0.2399,0.3309,0.83552,238,2.53137,0.26,0.13236,0.6287,5,2D1U,2.0,True,0.593,14,False,right,0.0,1.5831,2.2162,0.6331,0.2418,0.7413,0.4995,V,0.003149999999999986,qs
239,0.49635,0.1,1,0.19854,0.29781,0.7197,239,2.39901,0.38,0.19027,0.68661,5,3D1U,1.0,True,0.192,11,True,left,0.0,0.2017,0.893,0.6913,1.6186,2.1184,0.4998,A,0.0034500000000000086,qs
240,0.49635,1.2,1,0.34744,0.43844,0.43017,240,2.1012,-0.22,-0.10754,0.3888,5,1D2U,2.0,True,0.4,13,True,right,0.0,0.3484,0.7403,0.3919,1.1737,1.6733,0.4996,V,0.003249999999999975,qs
241,0.49635,0.1,2,0.38053,0.34744,0.86033,241,2.49827,-0.18,-0.091,0.41362,5,1D2U,1.0,True,0.391,14,True,left,0.0,1.7521,2.169,0.4169,0.3856,0.8854,0.4998,V,0.0034500000000000086,qs
242,0.49635,1.2,1,0.35571,0.28954,0.63698,242,2.46519,0.38,0.19027,0.68661,5,3D1U,2.0,False,0.793,11,True,right,0.0,0.3546,1.046,0.6914,1.6879,2.1887,0.5008,V,0.0044500000000000095,qs
243,0.49635,0.1,2,0.43017,0.29781,0.81897,243,2.39074,-0.3,-0.1489,0.34744,5,1D3U,1.0,True,0.468,6,True,left,0.0,1.7575,2.1073,0.3498,0.4319,0.9324,0.5006,V,0.0042500000000000315,qs
244,0.49635,1.2,1,0.19854,0.43017,0.80243,244,2.53965,0.22,0.10754,0.61216,5,2D1U,1.0,True,0.25,15,True,left,0.0,0.1998,0.8162,0.6165,1.6246,2.1243,0.4997,V,0.003349999999999964,qs
245,0.49635,0.1,1,0.36399,0.36399,0.86033,245,2.69682,0.22,0.10754,0.61216,5,2D1U,1.0,True,0.192,15,True,left,0.0,0.3687,0.9853,0.6166,1.8522,2.3526,0.5003,A,0.0039499999999999535,qs
246,0.49635,1.2,2,0.28954,0.20681,0.54598,246,1.9523,-0.18,-0.091,0.41362,5,1D2U,1.0,True,0.643,14,True,left,0.0,1.34,1.7574,0.4175,0.2909,0.7897,0.4988,A,0.0024500000000000077,qs
247,0.49635,0.1,1,0.25645,0.37226,0.8107,247,2.36593,-0.14,-0.06618,0.43017,5,1D2U,1.0,False,0.758,14,False,left,0.0,0.2563,0.6891,0.4329,1.5067,2.0064,0.4998,A,0.0034500000000000086,qs
248,0.49635,1.2,2,0.40535,0.26472,0.61216,248,2.36592,0.18,0.091,0.58734,5,2D1U,1.0,False,0.434,15,False,left,0.0,1.5244,2.1164,0.5919,0.4087,0.9084,0.4997,V,0.003349999999999964,qs
249,0.49635,0.1,1,0.29781,0.22336,0.7197,249,2.08466,-0.3,-0.1489,0.34744,5,1D3U,2.0,True,0.188,6,True,right,0.0,0.2975,0.6467,0.3491,1.372,1.8732,0.5011,V,0.0047499999999999765,qs
250,0.49635,1.2,1,0.41362,0.32262,0.47153,250,2.41555,0.42,0.20681,0.71143,5,3D1U,1.0,True,0.376,12,True,left,0.0,0.4204,1.1371,0.7167,1.6126,2.1115,0.4988,V,0.0024500000000000077,qs
251,0.49635,0.1,1,0.38053,0.41362,0.74452,251,2.44864,-0.18,-0.091,0.41362,5,1D2U,2.0,True,0.392,15,True,right,0.0,0.3845,0.801,0.4165,1.5514,2.0516,0.5001,A,0.0037499999999999756,qs
252,0.49635,1.2,2,0.27299,0.26472,0.50462,252,1.88612,-0.3,-0.1489,0.34744,5,1D3U,1.0,True,1.967,6,True,left,0.0,1.2806,1.6313,0.3507,0.2718,0.7724,0.5007,V,0.0043500000000000205,qs
253,0.49635,0.1,1,0.28954,0.31435,0.52944,253,2.00194,-0.26,-0.13236,0.37226,5,1D3U,2.0,True,0.18,7,True,right,0.0,0.2889,0.6651,0.3761,1.1977,1.6983,0.5006,A,0.0042500000000000315,qs
254,0.49635,1.2,2,0.34744,0.42189,0.4798,254,2.45691,0.42,0.20681,0.71143,5,3D1U,2.0,True,0.425,12,True,right,0.0,1.3321,2.048,0.7158,0.3487,0.8479,0.4992,V,0.0028499999999999637,qs
255,0.49635,0.1,2,0.21508,0.39708,0.75279,255,2.27492,-0.18,-0.091,0.41362,5,1D2U,1.0,True,0.725,15,True,left,0.0,1.4735,1.8902,0.4166,0.2159,0.7153,0.4994,A,0.003049999999999997,qs
256,0.49635,1.2,1,0.39708,0.28126,0.73625,256,2.5231,0.22,0.10754,0.61216,5,2D1U,2.0,False,0.891,16,True,right,0.0,0.4012,1.0172,0.6161,1.7594,2.2591,0.4997,V,0.003349999999999964,qs
257,0.49635,0.1,2,0.37226,0.31435,0.63698,257,2.53137,0.42,0.20681,0.71143,5,3D1U,2.0,True,0.308,12,True,right,0.0,1.519,2.2357,0.7167,0.3777,0.877,0.4992,A,0.0028499999999999637,qs
258,0.49635,1.2,2,0.28126,0.28126,0.76934,258,2.25838,-0.14,-0.06618,0.43017,5,1D2U,1.0,True,0.9,16,True,left,0.0,1.5541,1.9875,0.4334,0.279,0.7793,0.5003,A,0.0039499999999999535,qs
259,0.49635,0.1,2,0.25645,0.28126,0.82724,259,2.23356,-0.26,-0.13236,0.37226,5,1D3U,1.0,True,0.417,7,True,left,0.0,1.5886,1.9632,0.3746,0.2552,0.7552,0.5,A,0.0036499999999999866,qs
260,0.49635,1.2,2,0.2399,0.28954,0.46326,260,2.11775,0.26,0.13236,0.6287,5,2D1U,2.0,True,0.908,16,False,right,0.0,1.2085,1.8416,0.6331,0.2417,0.7421,0.5004,V,0.0040499999999999425,qs
261,0.49635,0.1,1,0.42189,0.25645,0.70316,261,2.50655,0.26,0.13236,0.6287,5,2D1U,1.0,True,0.575,16,False,left,0.0,0.4207,1.0541,0.6334,1.7621,2.2626,0.5005,V,0.0041499999999999315,qs
262,0.49635,1.2,2,0.35571,0.36399,0.84379,262,2.74645,0.38,0.19027,0.68661,5,3D1U,1.0,False,0.476,13,True,left,0.0,1.7097,2.4016,0.692,0.3595,0.8605,0.501,V,0.0046499999999999875,qs
263,0.49635,0.1,2,0.29781,0.41362,0.90169,263,2.53964,-0.14,-0.06618,0.43017,5,1D2U,1.0,True,0.233,16,True,left,0.0,1.7071,2.1401,0.433,0.2981,0.7984,0.5003,V,0.0039499999999999535,qs
264,0.49635,1.2,1,0.37226,0.3888,0.76934,264,2.63891,0.22,0.10754,0.61216,5,2D1U,2.0,False,0.112,17,True,right,0.0,0.3747,0.9911,0.6164,1.7662,2.2659,0.4997,V,0.003349999999999964,qs
265,0.49635,0.1,2,0.43017,0.35571,0.86861,265,2.5231,-0.26,-0.13236,0.37226,5,1D3U,1.0,True,0.142,7,True,left,0.0,1.8067,2.1808,0.3741,0.4312,0.9313,0.5002,A,0.0038499999999999646,qs
266,0.49635,1.2,1,0.29781,0.21508,0.56253,266,2.2832,0.42,0.20681,0.71143,5,3D1U,1.0,True,0.351,14,True,left,0.0,0.3,1.017,0.717,1.5835,2.0833,0.4999,V,0.0035499999999999976,qs
267,0.49635,0.1,1,0.41362,0.2399,0.62043,267,2.1591,-0.22,-0.10754,0.3888,5,1D3U,2.0,True,0.9,7,False,right,0.0,0.4124,0.8048,0.3925,1.4295,1.9297,0.5001,A,0.0037499999999999756,qs
268,0.49635,1.2,1,0.27299,0.36399,0.77761,268,2.53964,0.26,0.13236,0.6287,5,2D1U,1.0,True,0.199,18,True,left,0.0,0.274,0.9081,0.6341,1.6906,2.1905,0.4999,V,0.0035499999999999976,qs
269,0.49635,0.1,1,0.36399,0.29781,0.76106,269,2.36592,-0.1,-0.04963,0.44671,5,1D2U,1.0,False,0.527,16,False,left,0.0,0.3692,0.8185,0.4493,1.5849,2.0855,0.5005,V,0.0041499999999999315,qs
270,0.49635,1.2,1,0.43017,0.29781,0.42189,270,2.35765,0.42,0.20681,0.71143,5,3D1U,2.0,False,0.341,14,True,right,0.0,0.435,1.1513,0.7163,1.5769,2.077,0.5001,A,0.0037499999999999756,qs
271,0.49635,0.1,1,0.29781,0.3309,0.64525,271,2.15911,-0.22,-0.10754,0.3888,5,1D3U,1.0,False,0.434,7,False,left,0.0,0.2995,0.6916,0.3922,1.3412,1.8416,0.5004,V,0.0040499999999999425,qs
272,0.49635,1.2,2,0.31435,0.41362,0.49635,272,2.44864,0.46,0.23163,0.72797,5,3D1U,2.0,True,0.107,14,False,right,0.0,1.3165,2.0498,0.7333,0.3161,0.8167,0.5006,V,0.0042500000000000315,qs
273,0.49635,0.1,2,0.34744,0.28954,0.86861,273,2.63064,0.26,0.13236,0.6287,5,2D1U,1.0,False,0.567,18,True,left,0.0,1.7213,2.3552,0.6339,0.3464,0.8463,0.4999,A,0.0035499999999999976,qs
274,0.49635,1.2,1,0.3888,0.32262,0.76934,274,2.40728,-0.14,-0.06618,0.43017,5,1D2U,2.0,True,0.292,17,True,right,0.0,0.3891,0.8238,0.4346,1.5981,2.098,0.4999,V,0.0035499999999999976,qs
275,0.49635,0.1,1,0.41362,0.20681,0.76934,275,2.25838,-0.26,-0.13236,0.37226,5,1D3U,2.0,True,0.433,8,True,right,0.0,0.4198,0.7952,0.3753,1.5695,2.07,0.5005,A,0.0041499999999999315,qs
276,0.49635,1.2,1,0.28954,0.32262,0.74452,276,2.581,0.46,0.23163,0.72797,5,3D1U,1.0,True,0.25,14,False,left,0.0,0.295,1.0282,0.7331,1.7779,2.2784,0.5004,V,0.0040499999999999425,qs
277,0.49635,0.1,1,0.3309,0.43844,0.46326,277,2.38247,0.3,0.1489,0.65352,5,2D1U,2.0,False,1.001,18,False,right,0.0,0.3323,0.9914,0.6591,1.4571,1.9577,0.5006,V,0.0042500000000000315,qs
278,0.49635,1.2,1,0.41362,0.40535,0.87688,278,2.92017,0.46,0.23163,0.72797,5,3D1U,1.0,True,0.11,14,False,left,0.0,0.4165,1.149,0.7325,2.0333,2.5327,0.4994,A,0.003049999999999997,qs
279,0.49635,0.1,2,0.44671,0.36399,0.51289,279,2.53137,0.42,0.20681,0.71143,5,3D1U,2.0,True,0.167,15,True,right,0.0,1.4683,2.1853,0.717,0.4512,0.9509,0.4997,V,0.003349999999999964,qs
280,0.49635,1.2,1,0.21508,0.40535,0.74452,280,2.23356,-0.26,-0.13236,0.37226,5,1D3U,2.0,True,0.55,8,True,right,0.0,0.2152,0.5894,0.3741,1.3403,1.8399,0.4995,V,0.003149999999999986,qs
281,0.49635,0.1,2,0.27299,0.36399,0.55425,281,2.11775,-0.14,-0.06618,0.43017,5,1D2U,1.0,True,1.409,17,True,left,0.0,1.3323,1.7656,0.4333,0.2739,0.774,0.5,V,0.0036499999999999866,qs
282,0.49635,1.2,1,0.3309,0.23163,0.49635,282,2.26666,0.42,0.20681,0.71143,5,3D1U,1.0,True,0.491,15,True,left,0.0,0.3354,1.0529,0.7175,1.5539,2.053,0.4991,V,0.0027499999999999747,qs
283,0.49635,0.1,2,0.21508,0.43017,0.53771,283,2.05157,-0.26,-0.13236,0.37226,5,1D3U,1.0,True,0.2,8,True,left,0.0,1.2553,1.6302,0.3749,0.213,0.7134,0.5004,V,0.0040499999999999425,qs
284,0.49635,1.2,1,0.31435,0.43017,0.83552,284,2.74646,0.34,0.17372,0.67007,5,2D1U,1.0,True,0.116,18,False,left,0.0,0.3163,0.9911,0.6747,1.8327,2.3332,0.5004,A,0.0040499999999999425,qs
285,0.49635,0.1,1,0.35571,0.31435,0.49635,285,2.33283,0.34,0.17372,0.67007,5,2D1U,1.0,True,0.325,18,False,left,0.0,0.3582,1.0333,0.6751,1.534,2.0332,0.4992,V,0.0028499999999999637,qs
286,0.49635,1.2,1,0.43017,0.24817,0.62043,286,2.24183,-0.1,-0.04963,0.44671,5,1D2U,2.0,True,0.46,18,True,right,0.0,0.43,0.8803,0.4502,1.5049,2.0045,0.4996,V,0.003249999999999975,qs
287,0.49635,0.1,1,0.26472,0.24817,0.88515,287,2.28319,-0.22,-0.10754,0.3888,5,1D3U,1.0,False,0.859,9,True,left,0.0,0.263,0.6552,0.3922,1.5468,2.0469,0.5001,A,0.0037499999999999756,qs
288,0.49635,1.2,1,0.2399,0.21508,0.47153,288,2.13429,0.42,0.20681,0.71143,5,3D1U,1.0,True,0.409,15,True,left,0.0,0.2419,0.9583,0.7165,1.4328,1.9338,0.501,V,0.0046499999999999875,qs
289,0.49635,0.1,1,0.43017,0.44671,0.51289,289,2.57273,0.38,0.19027,0.68661,5,3D1U,1.0,True,0.367,15,False,left,0.0,0.4364,1.1287,0.6923,1.6453,2.1448,0.4995,A,0.003149999999999986,qs
290,0.49635,1.2,1,0.29781,0.22336,0.77761,290,2.24184,-0.1,-0.04963,0.44671,5,1D2U,1.0,False,0.475,18,True,left,0.0,0.3033,0.7531,0.4497,1.5365,2.0365,0.5001,A,0.0037499999999999756,qs
291,0.49635,0.1,1,0.30608,0.43017,0.61216,291,2.49828,0.3,0.1489,0.65352,5,2D1U,1.0,True,0.108,19,True,left,0.0,0.3063,0.9645,0.6582,1.5806,2.0811,0.5005,A,0.0041499999999999315,qs
292,0.49635,1.2,2,0.32262,0.40535,0.88515,292,2.79608,0.38,0.19027,0.68661,5,3D1U,1.0,False,1.101,15,False,left,0.0,1.716,2.4077,0.6917,0.3239,0.8241,0.5002,V,0.0038499999999999646,qs
293,0.49635,0.1,1,0.3888,0.43844,0.43844,293,2.1922,-0.14,-0.06618,0.43017,5,1D2U,2.0,True,0.926,19,True,right,0.0,0.3912,0.8245,0.4333,1.267,1.7668,0.4998,A,0.0034500000000000086,qs
294,0.49635,1.2,2,0.30608,0.44671,0.79415,294,2.69681,0.3,0.1489,0.65352,5,2D1U,2.0,True,0.358,19,True,right,0.0,1.6038,2.2617,0.6579,0.3027,0.8035,0.5008,V,0.0044500000000000095,qs
295,0.49635,0.1,1,0.25645,0.26472,0.61216,295,2.25838,0.26,0.13236,0.6287,5,2D1U,2.0,False,2.258,19,False,right,0.0,0.2592,0.8914,0.6322,1.5091,2.0093,0.5003,A,0.0039499999999999535,qs
296,0.49635,1.2,1,0.36399,0.31435,0.80243,296,2.68855,0.42,0.20681,0.71143,5,3D1U,1.0,True,0.3,16,True,left,0.0,0.3658,1.0832,0.7175,1.8911,2.3909,0.4999,V,0.0035499999999999976,qs
297,0.49635,0.1,1,0.2399,0.28126,0.59561,297,2.32455,0.42,0.20681,0.71143,5,3D1U,1.0,True,0.367,16,True,left,0.0,0.2396,0.9561,0.7164,1.5561,2.056,0.4999,V,0.0035499999999999976,qs
298,0.49635,1.2,2,0.28126,0.20681,0.65352,298,2.34937,0.42,0.20681,0.71143,5,3D1U,2.0,True,0.125,16,True,right,0.0,1.4416,2.158,0.7164,0.2837,0.7833,0.4996,A,0.003249999999999975,qs
299,0.49635,0.1,1,0.33917,0.29781,0.49635,299,2.05985,-0.14,-0.06618,0.43017,5,1D2U,2.0,True,0.659,19,True,right,0.0,0.3438,0.7774,0.4335,1.2772,1.7774,0.5002,A,0.0038499999999999646,qs
300,0.49635,1.2,2,0.28126,0.43017,0.89342,300,2.75472,0.3,0.1489,0.65352,5,2D1U,2.0,True,0.834,20,True,right,0.0,1.6801,2.3385,0.6584,0.2794,0.7797,0.5003,A,0.0039499999999999535,qs
301,0.49635,0.1,1,0.20681,0.27299,0.90169,301,2.56445,0.38,0.19027,0.68661,5,3D1U,1.0,True,0.558,17,True,left,0.0,0.2118,0.9035,0.6918,1.8127,2.3124,0.4997,V,0.003349999999999964,qs
302,0.49635,1.2,2,0.22336,0.43844,0.51289,302,2.11775,-0.1,-0.04963,0.44671,5,1D2U,2.0,False,0.208,20,True,right,0.0,1.2438,1.6937,0.4499,0.227,0.7265,0.4995,V,0.003149999999999986,qs
303,0.49635,0.1,1,0.43844,0.20681,0.83552,303,2.63064,0.3,0.1489,0.65352,5,2D1U,1.0,True,0.373,20,True,left,0.0,0.4413,1.0992,0.6579,1.9402,2.4412,0.501,V,0.0046499999999999875,qs
304,0.49635,1.2,2,0.2399,0.31435,0.44671,304,2.12601,0.26,0.13236,0.6287,5,2D1U,2.0,True,0.809,21,True,right,0.0,1.1941,1.8275,0.6334,0.2443,0.7437,0.4994,V,0.003049999999999997,qs
305,0.49635,0.1,1,0.39708,0.43844,0.75279,305,2.77127,0.38,0.19027,0.68661,5,3D1U,1.0,True,0.283,17,True,left,0.0,0.399,1.091,0.692,1.8492,2.3488,0.4997,A,0.003349999999999964,qs
306,0.49635,1.2,2,0.35571,0.26472,0.8107,306,2.35765,-0.14,-0.06618,0.43017,5,1D2U,2.0,False,0.525,21,True,right,0.0,1.6745,2.1085,0.4339,0.3584,0.8586,0.5002,V,0.0038499999999999646,qs
307,0.49635,0.1,1,0.27299,0.23163,0.71143,307,2.3411,0.26,0.13236,0.6287,5,2D1U,1.0,True,2.408,21,True,left,0.0,0.2715,0.9045,0.633,1.6212,2.1214,0.5002,A,0.0038499999999999646,qs
0,0.49644,1.2,1,0.39716,0.27304,0.81086,0,2.02714,-0.9,-0.4468,0.04964,5,3D1U,1.0,False,1.219,0,False,left,0.0,0.4002,0.4501,0.0499,1.267,1.7663,0.4993,V,0.002860000000000029,as
1,0.49644,0.1,2,0.24822,0.20685,0.53781,1,1.53896,-0.9,-0.4468,0.04964,5,1D3U,1.0,True,1.484,0,False,left,0.0,1.2946,1.3445,0.05,0.2532,0.7529,0.4997,V,0.003259999999999985,as
2,0.49644,1.2,1,0.36406,0.2234,0.7033,2,1.83684,-0.9,-0.4468,0.04964,5,1D3U,1.0,False,1.475,0,False,left,0.0,0.3663,0.4161,0.0498,1.1242,1.6249,0.5007,A,0.0042600000000000415,as
3,0.49644,0.1,2,0.34751,0.4137,0.75294,3,2.96211,0.9,0.4468,0.95152,5,lapse_rate,2.0,True,6.592,0,False,right,0.0,1.6072,2.5656,0.9584,0.3495,0.8492,0.4997,V,0.003259999999999985,as
4,0.49644,0.1,1,0.27304,0.23167,0.53781,4,1.5886,-0.9,-0.4468,0.04964,5,3D1U,2.0,True,3.609,0,False,right,0.0,0.2765,0.3267,0.0502,0.868,1.3676,0.4996,V,0.003159999999999996,as
5,0.49644,1.2,1,0.31441,0.37233,0.47162,5,1.70444,-0.9,-0.4468,0.04964,5,1D2U,2.0,True,0.641,0,False,right,0.0,0.316,0.3657,0.0497,0.8411,1.3412,0.5002,A,0.0037599999999999856,as
6,0.49644,0.1,2,0.2234,0.40543,0.61228,6,1.78719,-0.9,-0.4468,0.04964,5,2D1U,1.0,True,1.209,0,False,left,0.0,1.3381,1.3881,0.0499,0.2215,0.7209,0.4994,A,0.002960000000000018,as
7,0.49644,1.2,1,0.30614,0.35579,0.75294,7,1.96095,-0.9,-0.4468,0.04964,5,1D3U,1.0,False,1.841,0,False,left,0.0,0.3095,0.3597,0.0502,1.1184,1.6182,0.4998,A,0.0033600000000000296,as
8,0.49644,0.1,1,0.26477,0.43853,0.87705,8,2.12643,-0.9,-0.4468,0.04964,5,1D2U,2.0,True,0.968,0,False,right,0.0,0.2641,0.3144,0.0503,1.1975,1.6978,0.5003,V,0.0038599999999999746,as
9,0.49644,1.2,2,0.2565,0.24822,0.69502,9,1.82857,-0.74,-0.37233,0.13239,5,3D1U,2.0,False,2.016,0,False,right,0.0,1.4543,1.5875,0.1333,0.2539,0.7541,0.5003,V,0.0038599999999999746,as
10,0.49644,0.1,2,0.4468,0.38888,0.76949,10,2.234,-0.74,-0.37233,0.13239,5,2D1U,1.0,True,0.575,0,False,left,0.0,1.7255,1.8582,0.1327,0.4497,0.9499,0.5003,V,0.0038599999999999746,as
11,0.49644,0.1,2,0.36406,0.33096,0.60401,11,2.74699,0.9,0.4468,0.95152,5,lapse_rate,2.0,True,0.459,0,False,right,0.0,1.4744,2.4317,0.9573,0.3654,0.8648,0.4994,A,0.002960000000000018,as
12,0.49644,1.2,2,0.31441,0.38888,0.86878,12,2.2009,-0.74,-0.37233,0.13239,5,3D1U,1.0,True,0.516,0,False,left,0.0,1.6931,1.8262,0.1331,0.3177,0.8179,0.5002,V,0.0037599999999999856,as
13,0.49644,0.1,2,0.35579,0.33096,0.67847,13,1.99405,-0.74,-0.37233,0.13239,5,1D2U,1.0,True,0.508,0,False,left,0.0,1.5441,1.6781,0.134,0.3608,0.8612,0.5004,V,0.0039599999999999635,as
14,0.49644,1.2,2,0.29787,0.28132,0.7033,14,1.98578,-0.58,-0.28959,0.20685,5,2D1U,1.0,True,1.325,0,False,left,0.0,1.5069,1.715,0.2081,0.2985,0.7982,0.4997,A,0.003259999999999985,as
15,0.49644,1.2,1,0.42198,0.33924,0.40543,15,2.61461,0.9,0.4468,0.95152,5,lapse_rate,1.0,True,2.059,0,False,left,0.0,0.4243,1.3828,0.9585,1.791,2.291,0.5001,A,0.0036599999999999966,as
16,0.49644,0.1,1,0.24822,0.2234,0.82741,16,1.84511,-0.9,-0.4468,0.04964,5,1D3U,2.0,True,0.426,0,False,right,0.0,0.2508,0.3008,0.05,1.1341,1.6339,0.4998,A,0.0033600000000000296,as
17,0.49644,1.2,2,0.28959,0.4137,0.62883,17,1.8782,-0.9,-0.4468,0.04964,5,1D3U,2.0,False,2.275,0,False,right,0.0,1.4282,1.4783,0.0502,0.2946,0.7951,0.5004,A,0.0039599999999999635,as
18,0.49644,0.1,1,0.37233,0.33924,0.80258,18,2.30018,-0.42,-0.20685,0.28959,5,2D1U,2.0,True,0.601,0,False,right,0.0,0.3752,0.6668,0.2916,1.4746,1.9748,0.5001,V,0.0036599999999999966,as
19,0.49644,0.1,1,0.38061,0.31441,0.48817,19,2.63115,0.9,0.4468,0.95152,5,lapse_rate,2.0,False,0.759,0,False,right,0.0,0.3844,1.343,0.9586,1.8347,2.3346,0.4999,A,0.0034600000000000186,as
20,0.49644,1.2,1,0.42198,0.23167,0.83568,20,2.11816,-0.74,-0.37233,0.13239,5,1D2U,2.0,True,0.791,0,False,right,0.0,0.4263,0.5597,0.1334,1.4014,1.9015,0.5001,A,0.0036599999999999966,as
21,0.49644,0.1,1,0.24822,0.37233,0.57918,21,1.90302,-0.58,-0.28959,0.20685,5,3D1U,2.0,True,0.483,0,False,right,0.0,0.253,0.4612,0.2082,1.044,1.5445,0.5005,V,0.0040599999999999525,as
22,0.49644,1.2,2,0.34751,0.26477,0.42198,22,1.90303,-0.26,-0.13239,0.37233,5,2D1U,2.0,False,2.367,0,False,right,0.0,1.275,1.6499,0.3749,0.3499,0.8496,0.4997,A,0.003259999999999985,as
23,0.49644,0.1,2,0.40543,0.38061,0.71984,23,2.20917,-0.58,-0.28959,0.20685,5,1D2U,1.0,True,0.375,0,False,left,0.0,1.63,1.8385,0.2084,0.405,0.9047,0.4997,V,0.003259999999999985,as
24,0.49644,0.1,2,0.43025,0.2234,0.78604,24,2.88765,0.9,0.4468,0.95152,5,lapse_rate,2.0,True,0.441,0,False,right,0.0,1.7278,2.6858,0.958,0.4363,0.9361,0.4998,V,0.0033600000000000296,as
25,0.49644,1.2,1,0.34751,0.26477,0.55436,25,1.71272,-0.9,-0.4468,0.04964,5,1D3U,2.0,True,2.627,0,False,right,0.0,0.3487,0.3988,0.05,0.957,1.4572,0.5002,A,0.0037599999999999856,as
26,0.49644,0.1,1,0.38888,0.33096,0.53781,26,2.04368,-0.42,-0.20685,0.28959,5,3D1U,2.0,True,0.501,0,False,right,0.0,0.3925,0.6847,0.2922,1.2267,1.7259,0.4992,A,0.0027599999999999847,as
27,0.49644,0.1,1,0.42198,0.4137,0.51299,27,1.89475,-0.9,-0.4468,0.04964,5,lapse_rate,2.0,True,0.423,0,False,right,0.0,0.4248,0.4748,0.0499,0.9914,1.4911,0.4996,A,0.003159999999999996,as
28,0.49644,1.2,2,0.36406,0.2234,0.74467,28,2.03542,-0.58,-0.28959,0.20685,5,1D2U,1.0,True,0.909,0,False,left,0.0,1.6156,1.8239,0.2083,0.3657,0.8651,0.4994,V,0.002960000000000018,as
29,0.49644,0.1,1,0.39716,0.40543,0.55436,29,1.90303,-0.9,-0.4468,0.04964,5,1D3U,2.0,True,0.426,0,False,right,0.0,0.4006,0.4507,0.0501,1.0091,1.5094,0.5003,V,0.0038599999999999746,as
30,0.49644,1.2,1,0.39716,0.4137,0.79431,30,2.47394,-0.26,-0.13239,0.37233,5,3D1U,1.0,False,1.383,0,False,left,0.0,0.3964,0.7725,0.3761,1.5726,2.0716,0.4989,A,0.0024600000000000177,as
31,0.49644,0.1,2,0.33924,0.42198,0.88533,31,2.51532,-0.26,-0.13239,0.37233,5,2D1U,1.0,True,1.648,0,False,left,0.0,1.7325,2.1076,0.3751,0.3409,0.8409,0.5,V,0.0035600000000000076,as
32,0.49644,1.2,2,0.42198,0.4468,0.7033,32,2.35811,-0.42,-0.20685,0.28959,5,1D2U,1.0,True,2.209,0,False,left,0.0,1.6366,1.9282,0.2916,0.4279,0.9277,0.4999,V,0.0034600000000000186,as
33,0.49644,0.1,2,0.40543,0.2565,0.8936,33,2.4243,-0.26,-0.13239,0.37233,5,3D1U,1.0,True,1.376,0,False,left,0.0,1.8044,2.1793,0.3749,0.4036,0.9042,0.5006,V,0.0041600000000000525,as
34,0.49644,1.2,2,0.40543,0.28959,0.59573,34,2.23399,-0.1,-0.04964,0.4468,5,2D1U,2.0,False,2.916,0,False,right,0.0,1.5081,1.9574,0.4493,0.408,0.9079,0.4999,V,0.0034600000000000186,as
35,0.49644,1.2,2,0.33924,0.38061,0.81913,35,2.98694,0.9,0.4468,0.95152,5,lapse_rate,1.0,False,2.066,0,False,left,0.0,1.6704,2.6285,0.9581,0.3451,0.8453,0.5001,V,0.0036599999999999966,as
36,0.49644,0.1,1,0.39716,0.26477,0.54609,36,1.7541,-0.9,-0.4468,0.04964,5,1D3U,2.0,True,1.441,0,False,right,0.0,0.4031,0.4536,0.0504,1.0037,1.5034,0.4997,A,0.003259999999999985,as
37,0.49644,1.2,2,0.34751,0.35579,0.80258,37,2.95384,0.9,0.4468,0.95152,5,lapse_rate,2.0,True,0.717,0,False,right,0.0,1.6603,2.6186,0.9583,0.3518,0.8518,0.5,V,0.0035600000000000076,as
38,0.49644,1.2,2,0.32269,0.33096,0.76949,38,2.36638,-0.1,-0.04964,0.4468,5,3D1U,2.0,False,0.825,0,False,right,0.0,1.5982,2.0482,0.4499,0.3235,0.823,0.4995,V,0.003060000000000007,as
39,0.49644,0.1,2,0.23995,0.38061,0.79431,39,2.35811,-0.1,-0.04964,0.4468,5,2D1U,2.0,False,0.617,0,False,right,0.0,1.5373,1.9866,0.4493,0.2377,0.7374,0.4997,V,0.003259999999999985,as
40,0.49644,1.2,2,0.33924,0.36406,0.4137,40,1.90303,-0.42,-0.20685,0.28959,5,1D2U,2.0,False,1.659,0,False,right,0.0,1.2604,1.5525,0.2921,0.3437,0.8433,0.4996,A,0.003159999999999996,as
41,0.49644,0.1,2,0.4468,0.2565,0.69502,41,1.98577,-0.82,-0.4137,0.09101,5,1D3U,1.0,True,0.567,1,True,left,0.0,1.6499,1.7413,0.0915,0.4494,0.9491,0.4996,V,0.003159999999999996,as
42,0.49644,1.2,2,0.23167,0.24822,0.61228,42,2.00231,-0.18,-0.09101,0.4137,5,2D1U,1.0,True,2.9,1,True,left,0.0,1.3499,1.7659,0.4161,0.2328,0.7325,0.4997,V,0.003259999999999985,as
43,0.49644,0.1,2,0.31441,0.20685,0.47162,43,1.93612,-0.1,-0.04964,0.4468,5,3D1U,1.0,True,1.316,0,False,left,0.0,1.2887,1.7393,0.4506,0.314,0.8141,0.5001,V,0.0036599999999999966,as
44,0.49644,1.2,1,0.27304,0.26477,0.62883,44,1.9113,-0.5,-0.24822,0.24822,5,1D2U,2.0,True,2.492,1,True,right,0.0,0.2761,0.5263,0.2502,1.1597,1.6595,0.4998,V,0.0033600000000000296,as
45,0.49644,0.1,1,0.34751,0.38061,0.45507,45,2.63115,0.9,0.4468,0.95152,5,lapse_rate,1.0,True,0.408,0,False,left,0.0,0.3514,1.3101,0.9588,1.7683,2.2685,0.5002,A,0.0037599999999999856,as
46,0.49644,0.1,1,0.2565,0.43025,0.42198,46,1.69618,-0.82,-0.4137,0.09101,5,1D3U,2.0,True,0.358,1,True,right,0.0,0.2557,0.3476,0.0918,0.7719,1.2724,0.5006,A,0.0041600000000000525,as
47,0.49644,1.2,1,0.35579,0.35579,0.90187,47,2.63943,0.06,0.0331,0.52954,5,3D1U,1.0,True,0.949,0,False,left,0.0,0.3595,0.8935,0.5341,1.8018,2.3012,0.4994,V,0.002960000000000018,as
48,0.49644,1.2,2,0.27304,0.43025,0.61228,48,1.86165,-0.9,-0.4468,0.04964,5,lapse_rate,1.0,True,1.004,0,False,left,0.0,1.3896,1.4397,0.0501,0.273,0.7726,0.4995,V,0.003060000000000007,as
49,0.49644,0.1,1,0.36406,0.43853,0.86878,49,2.41603,-0.5,-0.24822,0.24822,5,1D2U,2.0,True,0.391,1,True,right,0.0,0.3671,0.6171,0.25,1.4917,1.9919,0.5002,V,0.0037599999999999856,as
50,0.49644,1.2,1,0.31441,0.40543,0.75294,50,2.39947,-0.14,-0.06619,0.43025,5,2D1U,1.0,False,0.742,2,True,left,0.0,0.3197,0.7529,0.4333,1.5116,2.0123,0.5007,V,0.0042600000000000415,as
51,0.49644,0.1,1,0.2565,0.23995,0.69502,51,1.77892,-0.82,-0.4137,0.09101,5,1D3U,2.0,True,0.4,1,True,right,0.0,0.2611,0.3527,0.0916,1.0531,1.5528,0.4997,A,0.003259999999999985,as
52,0.49644,1.2,1,0.2565,0.23995,0.54609,52,2.06852,0.06,0.0331,0.52954,5,3D1U,2.0,False,1.399,0,False,right,0.0,0.2613,0.7945,0.5332,1.3447,1.8446,0.4999,A,0.0034600000000000186,as
53,0.49644,1.2,1,0.19858,0.33924,0.76949,53,1.85339,-0.9,-0.4468,0.04964,5,lapse_rate,2.0,True,0.924,0,False,right,0.0,0.199,0.2494,0.0504,1.0245,1.5242,0.4996,V,0.003159999999999996,as
54,0.49644,0.1,2,0.28132,0.29787,0.85223,54,2.06025,-0.74,-0.37233,0.13239,5,1D3U,1.0,True,0.926,1,False,left,0.0,1.6376,1.771,0.1334,0.2792,0.779,0.4999,A,0.0034600000000000186,as
55,0.49644,1.2,1,0.26477,0.28959,0.60401,55,2.08506,-0.14,-0.06619,0.43025,5,2D1U,1.0,False,1.171,2,True,left,0.0,0.2632,0.6965,0.4333,1.3048,1.8043,0.4994,V,0.002960000000000018,as
56,0.49644,0.1,2,0.27304,0.36406,0.58746,56,1.99404,-0.46,-0.23167,0.27304,5,1D2U,1.0,True,0.508,2,True,left,0.0,1.3692,1.6443,0.2751,0.2777,0.777,0.4994,A,0.002960000000000018,as
57,0.49644,0.1,2,0.32269,0.2234,0.4137,57,1.50587,-0.9,-0.4468,0.04964,5,lapse_rate,1.0,True,0.669,0,False,left,0.0,1.2371,1.2872,0.0501,0.3205,0.8203,0.4998,A,0.0033600000000000296,as
58,0.49644,1.2,1,0.33924,0.34751,0.68675,58,2.00233,-0.74,-0.37233,0.13239,5,1D3U,1.0,False,1.692,1,False,left,0.0,0.3381,0.4714,0.1333,1.1628,1.6632,0.5004,V,0.0039599999999999635,as
59,0.49644,0.1,2,0.29787,0.26477,0.71984,59,2.05196,-0.46,-0.23167,0.27304,5,1D2U,1.0,True,0.492,2,True,left,0.0,1.5211,1.7972,0.2761,0.2964,0.7968,0.5003,A,0.0038599999999999746,as
60,0.49644,1.2,2,0.42198,0.43025,0.47162,60,2.43257,0.22,0.10756,0.61228,5,3D1U,2.0,True,0.476,0,False,right,0.0,1.3968,2.0135,0.6167,0.4216,0.9215,0.4999,V,0.0034600000000000186,as
61,0.49644,0.1,2,0.4137,0.2565,0.88533,61,2.46567,-0.18,-0.09101,0.4137,5,2D1U,1.0,True,1.292,3,True,left,0.0,1.811,2.2277,0.4167,0.4188,0.9191,0.5003,V,0.0038599999999999746,as
62,0.49644,1.2,2,0.39716,0.2565,0.58746,62,2.68908,0.9,0.4468,0.95152,5,lapse_rate,2.0,True,0.509,0,False,right,0.0,1.4928,2.4512,0.9584,0.4011,0.9008,0.4997,A,0.003259999999999985,as
63,0.49644,1.2,2,0.26477,0.28959,0.46335,63,2.12643,0.22,0.10756,0.61228,5,3D1U,1.0,False,0.467,0,False,left,0.0,1.2359,1.853,0.6171,0.2694,0.7701,0.5007,A,0.0042600000000000415,as
64,0.49644,0.1,2,0.29787,0.26477,0.66193,64,2.0106,-0.42,-0.20685,0.28959,5,1D2U,1.0,True,0.425,2,False,left,0.0,1.4704,1.7624,0.292,0.3039,0.8042,0.5002,V,0.0037599999999999856,as
65,0.49644,1.2,2,0.39716,0.33924,0.4468,65,2.10989,-0.14,-0.06619,0.43025,5,2D1U,1.0,True,0.491,4,True,left,0.0,1.3484,1.7817,0.4333,0.3984,0.8981,0.4997,V,0.003259999999999985,as
66,0.49644,0.1,1,0.23995,0.36406,0.65365,66,1.86166,-0.78,-0.38888,0.10756,5,1D3U,2.0,True,0.392,2,True,right,0.0,0.2389,0.3475,0.1087,1.0059,1.5055,0.4996,A,0.003159999999999996,as
67,0.49644,1.2,2,0.27304,0.23167,0.8605,67,2.30845,-0.1,-0.04964,0.4468,5,2D1U,2.0,False,0.783,4,False,right,0.0,1.643,2.093,0.4501,0.2764,0.7764,0.5,V,0.0035600000000000076,as
68,0.49644,0.1,1,0.38061,0.33096,0.71984,68,2.03541,-0.78,-0.38888,0.10756,5,1D3U,2.0,True,0.436,2,True,right,0.0,0.3791,0.4873,0.1083,1.2129,1.713,0.5,V,0.0035600000000000076,as
69,0.49644,1.2,1,0.20685,0.24822,0.80258,69,2.04368,-0.42,-0.20685,0.28959,5,1D2U,2.0,True,0.483,2,False,right,0.0,0.2112,0.5032,0.292,1.3109,1.8115,0.5006,V,0.0041600000000000525,as
70,0.49644,0.1,1,0.31441,0.4468,0.4799,70,1.78719,-0.9,-0.4468,0.04964,5,lapse_rate,2.0,True,0.476,0,False,right,0.0,0.3179,0.3681,0.0502,0.851,1.3514,0.5004,V,0.0039599999999999635,as
71,0.49644,0.1,2,0.4468,0.34751,0.47162,71,2.44912,0.38,0.1903,0.68675,5,3D1U,1.0,False,1.734,0,False,left,0.0,1.4294,2.1191,0.6897,0.452,0.9531,0.5011,V,0.0046599999999999975,as
72,0.49644,1.2,2,0.35579,0.2234,0.43025,72,1.55552,-0.9,-0.4468,0.04964,5,lapse_rate,1.0,True,4.595,0,False,left,0.0,1.2891,1.3384,0.0492,0.3551,0.855,0.4999,V,0.0034600000000000186,as
73,0.49644,1.2,2,0.38888,0.28959,0.40543,73,1.88648,-0.38,-0.1903,0.30614,5,1D2U,1.0,True,0.991,2,False,left,0.0,1.3015,1.6095,0.308,0.3931,0.8922,0.4991,A,0.0026599999999999957,as
74,0.49644,0.1,1,0.26477,0.23995,0.60401,74,2.37466,0.54,0.27304,0.76949,5,3D1U,1.0,True,0.342,0,False,left,0.0,0.2701,1.045,0.7748,1.6532,2.153,0.4998,V,0.0033600000000000296,as
75,0.49644,1.2,1,0.4468,0.39716,0.86878,75,2.65598,-0.1,-0.04964,0.4468,5,2D1U,2.0,True,0.592,4,False,right,0.0,0.4491,0.8992,0.4501,1.7739,2.2736,0.4997,V,0.003259999999999985,as
76,0.49644,0.1,2,0.23167,0.28959,0.6702,76,1.79546,-0.78,-0.38888,0.10756,5,1D3U,1.0,True,0.512,2,True,left,0.0,1.4063,1.5144,0.1081,0.2311,0.7316,0.5005,V,0.0040599999999999525,as
77,0.49644,1.2,1,0.33924,0.2234,0.4799,77,2.30847,0.54,0.27304,0.76949,5,3D1U,1.0,True,0.734,0,False,left,0.0,0.3385,1.1139,0.7753,1.5974,2.0971,0.4996,A,0.003159999999999996,as
78,0.49644,0.1,2,0.23995,0.20685,0.82741,78,2.24227,-0.06,-0.0331,0.47162,5,2D1U,2.0,False,0.825,4,False,right,0.0,1.5717,2.0462,0.4745,0.238,0.7382,0.5002,V,0.0037599999999999856,as
79,0.49644,1.2,2,0.29787,0.33096,0.81913,79,2.07679,-0.74,-0.37233,0.13239,5,1D3U,2.0,False,1.909,3,True,right,0.0,1.6206,1.7538,0.1332,0.2954,0.7955,0.5001,V,0.0036599999999999966,as
80,0.49644,0.1,1,0.38061,0.43025,0.8605,80,2.47394,-0.38,-0.1903,0.30614,5,1D2U,2.0,True,1.282,2,False,right,0.0,0.3797,0.6881,0.3084,1.555,2.0545,0.4995,A,0.003060000000000007,as
81,0.49644,1.2,1,0.36406,0.4137,0.7033,81,2.02714,-0.9,-0.4468,0.04964,5,lapse_rate,2.0,True,2.675,0,False,right,0.0,0.3635,0.4139,0.0504,1.1217,1.6219,0.5001,V,0.0036599999999999966,as
82,0.49644,1.2,2,0.43853,0.23995,0.82741,82,2.77182,0.54,0.27304,0.76949,5,3D1U,2.0,True,0.85,0,False,right,0.0,1.7774,2.5516,0.7742,0.4436,0.9442,0.5006,A,0.0041600000000000525,as
83,0.49644,0.1,1,0.42198,0.36406,0.43025,83,1.82029,-0.78,-0.38888,0.10756,5,1D3U,2.0,True,0.11,4,True,right,0.0,0.4205,0.529,0.1085,0.9622,1.4624,0.5002,A,0.0037599999999999856,as
84,0.49644,1.2,1,0.33096,0.2565,0.69502,84,2.10988,-0.34,-0.17376,0.33096,5,1D2U,2.0,True,1.524,2,False,right,0.0,0.3329,0.6659,0.3329,1.3658,1.8662,0.5004,V,0.0039599999999999635,as
85,0.49644,0.1,2,0.23995,0.27304,0.64538,85,2.12643,-0.06,-0.0331,0.47162,5,2D1U,2.0,False,2.031,4,False,right,0.0,1.3891,1.8639,0.4748,0.2394,0.739,0.4995,A,0.003060000000000007,as
86,0.49644,0.1,1,0.21513,0.28132,0.83568,86,1.87821,-0.9,-0.4468,0.04964,5,lapse_rate,2.0,True,0.383,0,False,right,0.0,0.2189,0.2691,0.0503,1.1108,1.6107,0.4999,A,0.0034600000000000186,as
87,0.49644,1.2,2,0.27304,0.39716,0.52127,87,2.41603,0.46,0.23167,0.72812,5,3D1U,1.0,False,0.534,1,True,left,0.0,1.3008,2.0337,0.7329,0.2757,0.7759,0.5002,V,0.0037599999999999856,as
88,0.49644,1.2,1,0.4468,0.42198,0.57091,88,2.88765,0.9,0.4468,0.95152,5,lapse_rate,1.0,True,0.692,0,False,left,0.0,0.4509,1.4094,0.9585,1.9844,2.484,0.4996,V,0.003159999999999996,as
89,0.49644,0.1,2,0.23995,0.23995,0.80258,89,2.22572,-0.1,-0.04964,0.4468,5,2D1U,1.0,True,0.9,5,True,left,0.0,1.5525,2.0023,0.4499,0.2436,0.7438,0.5001,V,0.0036599999999999966,as
90,0.49644,1.2,1,0.38888,0.40543,0.88533,90,2.28364,-0.78,-0.38888,0.10756,5,1D3U,1.0,False,0.459,4,True,left,0.0,0.3908,0.4985,0.1077,1.3908,1.8908,0.5,V,0.0035600000000000076,as
91,0.49644,0.1,2,0.33924,0.4137,0.4799,91,2.06024,-0.34,-0.17376,0.33096,5,1D2U,1.0,True,0.543,2,False,left,0.0,1.3265,1.6595,0.333,0.343,0.8429,0.4999,A,0.0034600000000000186,as
92,0.49644,0.1,1,0.28132,0.33924,0.7033,92,2.77182,0.9,0.4468,0.95152,5,lapse_rate,1.0,True,0.35,0,False,left,0.0,0.286,1.244,0.9581,1.9527,2.4533,0.5006,V,0.0041600000000000525,as
93,0.49644,1.2,2,0.43025,0.38061,0.6371,93,2.29191,-0.3,-0.14893,0.34751,5,1D2U,1.0,True,1.009,2,False,left,0.0,1.5753,1.9254,0.3501,0.4337,0.9338,0.5002,V,0.0037599999999999856,as
94,0.49644,0.1,2,0.38888,0.23167,0.87705,94,2.74698,0.5,0.24822,0.75294,5,3D1U,2.0,True,0.799,2,True,right,0.0,1.7781,2.5367,0.7586,0.3948,0.8947,0.4999,A,0.0034600000000000186,as
95,0.49644,1.2,1,0.38888,0.42198,0.6371,95,2.03541,-0.82,-0.4137,0.09101,5,1D3U,1.0,False,0.659,4,False,left,0.0,0.3908,0.483,0.0922,1.1245,1.6239,0.4994,V,0.002960000000000018,as
96,0.49644,0.1,1,0.2234,0.28959,0.61228,96,2.09333,-0.06,-0.0331,0.47162,5,2D1U,1.0,False,0.817,6,True,left,0.0,0.2218,0.6965,0.4747,1.3134,1.8134,0.5,V,0.0035600000000000076,as
97,0.49644,1.2,1,0.21513,0.37233,0.76121,97,2.59805,0.5,0.24822,0.75294,5,3D1U,1.0,True,0.742,2,True,left,0.0,0.2175,0.9759,0.7583,1.7422,2.2422,0.5,V,0.0035600000000000076,as
98,0.49644,0.1,2,0.34751,0.4468,0.86878,98,2.63115,-0.06,-0.0331,0.47162,5,2D1U,2.0,False,1.773,6,True,right,0.0,1.7215,2.1963,0.4748,0.3461,0.8457,0.4996,V,0.003159999999999996,as
99,0.49644,0.1,2,0.31441,0.38888,0.48817,99,2.63942,0.9,0.4468,0.95152,5,lapse_rate,2.0,True,0.342,0,False,right,0.0,1.3115,2.2704,0.9588,0.3201,0.8201,0.5,V,0.0035600000000000076,as
100,0.49644,1.2,2,0.39716,0.27304,0.87705,100,2.3912,-0.3,-0.14893,0.34751,5,1D2U,1.0,True,1.026,2,False,left,0.0,1.7794,2.1293,0.3499,0.396,0.896,0.5,A,0.0035600000000000076,as
101,0.49644,0.1,1,0.27304,0.29787,0.8605,101,1.99404,-0.86,-0.43025,0.06619,5,1D3U,2.0,True,0.409,4,False,right,0.0,0.2784,0.345,0.0666,1.2115,1.7116,0.5,A,0.0035600000000000076,as
102,0.49644,1.2,2,0.42198,0.20685,0.83568,102,2.02714,-0.86,-0.43025,0.06619,5,1D3U,1.0,True,0.925,4,False,left,0.0,1.7689,1.8361,0.0673,0.4273,0.9278,0.5005,A,0.0040599999999999525,as
103,0.49644,0.1,1,0.19858,0.24822,0.56264,103,1.87821,-0.26,-0.13239,0.37233,5,1D2U,1.0,False,2.158,2,False,left,0.0,0.1961,0.5718,0.3757,1.1383,1.6375,0.4992,V,0.0027599999999999847,as
104,0.49644,1.2,2,0.21513,0.32269,0.77776,104,2.56496,0.5,0.24822,0.75294,5,3D1U,2.0,True,3.758,2,True,right,0.0,1.501,2.2594,0.7584,0.218,0.7175,0.4994,A,0.002960000000000018,as
105,0.49644,0.1,2,0.28959,0.24822,0.86878,105,2.34983,-0.1,-0.04964,0.4468,5,2D1U,2.0,False,1.483,7,True,right,0.0,1.6626,2.1123,0.4497,0.2874,0.7873,0.4999,V,0.0034600000000000186,as
106,0.49644,1.2,2,0.26477,0.39716,0.85223,106,2.96212,0.9,0.4468,0.95152,5,lapse_rate,2.0,True,0.501,0,False,right,0.0,1.6212,2.5791,0.9579,0.2626,0.7628,0.5002,V,0.0037599999999999856,as
107,0.49644,1.2,1,0.36406,0.43853,0.69502,107,2.34156,-0.3,-0.14893,0.34751,5,1D2U,1.0,False,0.45,3,True,left,0.0,0.3674,0.7179,0.3505,1.4178,1.918,0.5002,A,0.0037599999999999856,as
108,0.49644,0.1,1,0.40543,0.38061,0.71984,108,2.05196,-0.9,-0.4468,0.04964,5,lapse_rate,2.0,True,0.39,0,False,right,0.0,0.4084,0.4585,0.0501,1.1836,1.6834,0.4998,V,0.0033600000000000296,as
109,0.49644,0.1,1,0.34751,0.20685,0.64538,109,2.4243,0.46,0.23167,0.72812,5,3D1U,1.0,True,0.392,3,True,left,0.0,0.3526,1.086,0.7334,1.7359,2.2359,0.5,A,0.0035600000000000076,as
110,0.49644,1.2,1,0.38888,0.24822,0.67847,110,1.8782,-0.86,-0.43025,0.06619,5,1D3U,1.0,False,1.576,4,False,left,0.0,0.3935,0.4598,0.0663,1.1434,1.6432,0.4998,V,0.0033600000000000296,as
111,0.49644,0.1,1,0.43853,0.43853,0.45507,111,2.27537,-0.1,-0.04964,0.4468,5,2D1U,1.0,False,0.258,7,True,left,0.0,0.443,0.8931,0.4501,1.3511,1.8513,0.5002,A,0.0037599999999999856,as
112,0.49644,1.2,2,0.43025,0.28959,0.67847,112,2.22571,-0.34,-0.17376,0.33096,5,1D2U,1.0,True,0.809,3,False,left,0.0,1.6175,1.9511,0.3336,0.4338,0.9342,0.5004,A,0.0039599999999999635,as
113,0.49644,0.1,2,0.28132,0.24822,0.50472,113,2.25882,0.46,0.23167,0.72812,5,3D1U,2.0,True,0.55,3,True,right,0.0,1.2924,2.0259,0.7335,0.2841,0.7844,0.5003,V,0.0038599999999999746,as
114,0.49644,1.2,2,0.27304,0.40543,0.73639,114,1.96094,-0.9,-0.4468,0.04964,5,1D3U,1.0,True,0.765,4,False,left,0.0,1.5161,1.566,0.0499,0.2739,0.7742,0.5004,A,0.0039599999999999635,as
115,0.49644,1.2,2,0.31441,0.39716,0.60401,115,1.86166,-0.9,-0.4468,0.04964,5,lapse_rate,1.0,True,0.801,0,False,left,0.0,1.4239,1.4741,0.0501,0.3157,0.8158,0.5001,A,0.0036599999999999966,as
116,0.49644,0.1,1,0.28959,0.43025,0.69502,116,2.34155,-0.14,-0.06619,0.43025,5,2D1U,2.0,True,0.792,7,False,right,0.0,0.2921,0.7259,0.4338,1.4258,1.9257,0.4999,V,0.0034600000000000186,as
117,0.49644,1.2,1,0.39716,0.19858,0.6702,117,2.09334,-0.34,-0.17376,0.33096,5,1D2U,2.0,True,1.475,3,False,right,0.0,0.4001,0.7336,0.3335,1.4084,1.9085,0.5002,V,0.0037599999999999856,as
118,0.49644,0.1,2,0.33096,0.34751,0.46335,118,2.36638,0.46,0.23167,0.72812,5,3D1U,2.0,True,0.25,3,True,right,0.0,1.2993,2.0326,0.7333,0.3323,0.8323,0.5,A,0.0035600000000000076,as
119,0.49644,1.2,1,0.4137,0.38888,0.67847,119,2.02713,-0.9,-0.4468,0.04964,5,1D3U,2.0,True,0.826,4,False,right,0.0,0.414,0.4633,0.0494,1.1475,1.6472,0.4996,A,0.003159999999999996,as
120,0.49644,0.1,1,0.43853,0.28132,0.79431,120,2.4574,-0.1,-0.04964,0.4468,5,2D1U,2.0,True,1.192,8,True,right,0.0,0.4446,0.8945,0.4499,1.6948,2.1947,0.4999,V,0.0034600000000000186,as
121,0.49644,0.1,1,0.39716,0.40543,0.40543,121,1.7541,-0.9,-0.4468,0.04964,5,lapse_rate,1.0,False,4.032,0,False,left,0.0,0.3984,0.4483,0.05,0.8567,1.3565,0.4998,A,0.0033600000000000296,as
122,0.49644,1.2,2,0.23167,0.23167,0.68675,122,2.11815,-0.06,-0.0331,0.47162,5,2D1U,2.0,False,1.666,8,False,right,0.0,1.4252,1.9002,0.475,0.2335,0.7338,0.5003,A,0.0038599999999999746,as
123,0.49644,0.1,2,0.26477,0.28132,0.76121,123,2.15125,-0.3,-0.14893,0.34751,5,1D2U,1.0,True,0.425,4,True,left,0.0,1.5282,1.8783,0.3501,0.262,0.7621,0.5001,V,0.0036599999999999966,as
124,0.49644,1.2,2,0.30614,0.38061,0.62056,124,1.85339,-0.9,-0.4468,0.04964,5,lapse_rate,1.0,True,1.516,0,False,left,0.0,1.4323,1.4829,0.0506,0.3073,0.8075,0.5001,A,0.0036599999999999966,as
125,0.49644,1.2,1,0.28132,0.23167,0.46335,125,1.52242,-0.9,-0.4468,0.04964,5,1D3U,2.0,True,1.217,4,False,right,0.0,0.2818,0.3318,0.0499,0.7984,1.2985,0.5001,V,0.0036599999999999966,as
126,0.49644,0.1,1,0.32269,0.34751,0.86878,126,2.74699,0.42,0.20685,0.71157,5,3D1U,1.0,True,0.317,3,False,left,0.0,0.3236,1.0406,0.717,1.9156,2.4155,0.4999,A,0.0034600000000000186,as
127,0.49644,1.2,1,0.23167,0.21513,0.55436,127,1.84511,-0.3,-0.14893,0.34751,5,1D2U,1.0,False,1.353,4,True,left,0.0,0.2308,0.5802,0.3493,1.1385,1.6387,0.5002,V,0.0037599999999999856,as
128,0.49644,0.1,2,0.38888,0.37233,0.82741,128,2.1347,-0.9,-0.4468,0.04964,5,lapse_rate,1.0,True,0.515,0,False,left,0.0,1.7203,1.7703,0.0501,0.3867,0.8871,0.5004,A,0.0039599999999999635,as
129,0.49644,0.1,1,0.20685,0.39716,0.77776,129,2.34983,-0.06,-0.0331,0.47162,5,2D1U,2.0,True,0.975,8,False,right,0.0,0.2072,0.6827,0.4755,1.4658,1.9659,0.5001,V,0.0036599999999999966,as
130,0.49644,1.2,2,0.23167,0.39716,0.40543,130,1.59689,-0.86,-0.43025,0.06619,5,1D3U,2.0,False,3.867,5,True,right,0.0,1.1448,1.2119,0.0671,0.2361,0.7364,0.5004,V,0.0039599999999999635,as
131,0.49644,0.1,1,0.43025,0.24822,0.53781,131,2.42429,0.42,0.20685,0.71157,5,3D1U,1.0,True,0.366,3,False,left,0.0,0.4345,1.1515,0.717,1.6927,2.1932,0.5004,A,0.0039599999999999635,as
132,0.49644,1.2,2,0.27304,0.43853,0.67847,132,1.93612,-0.9,-0.4468,0.04964,5,lapse_rate,1.0,True,0.975,0,False,left,0.0,1.4587,1.5089,0.0502,0.2753,0.7753,0.4999,V,0.0034600000000000186,as
133,0.49644,1.2,2,0.23167,0.26477,0.86878,133,2.57323,0.42,0.20685,0.71157,5,3D1U,1.0,False,0.759,3,False,left,0.0,1.6071,2.3238,0.7167,0.2324,0.7321,0.4998,A,0.0033600000000000296,as
134,0.49644,0.1,2,0.43025,0.2234,0.61228,134,2.09333,-0.34,-0.17376,0.33096,5,1D2U,1.0,True,0.5,5,True,left,0.0,1.5485,1.8817,0.3333,0.4315,0.9316,0.5001,A,0.0036599999999999966,as
135,0.49644,1.2,1,0.28132,0.19858,0.74467,135,1.77065,-0.9,-0.4468,0.04964,5,1D3U,1.0,False,0.85,6,True,left,0.0,0.2826,0.3326,0.05,1.083,1.582,0.499,V,0.0025600000000000067,as
136,0.49644,0.1,2,0.43853,0.28959,0.74467,136,2.4574,-0.02,-0.00827,0.48817,5,2D1U,1.0,True,1.5,8,False,left,0.0,1.6949,2.1866,0.4917,0.4451,0.945,0.4998,V,0.0033600000000000296,as
137,0.49644,1.2,1,0.24822,0.43853,0.85223,137,2.98694,0.9,0.4468,0.95152,5,lapse_rate,2.0,False,0.809,0,False,right,0.0,0.2508,1.2095,0.9586,2.0675,2.5677,0.5002,V,0.0037599999999999856,as
138,0.49644,1.2,2,0.32269,0.42198,0.65365,138,2.40775,0.02,0.00827,0.51299,5,2D1U,2.0,True,0.535,8,False,right,0.0,1.4849,2.0016,0.5167,0.3265,0.8268,0.5003,V,0.0038599999999999746,as
139,0.49644,0.1,2,0.21513,0.43025,0.43025,139,1.90303,-0.34,-0.17376,0.33096,5,1D2U,1.0,True,0.356,5,True,left,0.0,1.148,1.4814,0.3334,0.2144,0.7148,0.5003,V,0.0038599999999999746,as
140,0.49644,1.2,2,0.23167,0.35579,0.68675,140,2.49877,0.46,0.23167,0.72812,5,3D1U,2.0,True,2.892,4,True,right,0.0,1.4235,2.1569,0.7334,0.2317,0.7319,0.5001,V,0.0036599999999999966,as
141,0.49644,0.1,2,0.40543,0.20685,0.83568,141,1.99404,-0.9,-0.4468,0.04964,5,1D3U,1.0,True,0.637,6,False,left,0.0,1.7461,1.7959,0.0498,0.4042,0.904,0.4999,V,0.0034600000000000186,as
142,0.49644,1.2,2,0.31441,0.35579,0.79431,142,2.47394,0.02,0.00827,0.51299,5,2D1U,1.0,False,0.84,8,False,left,0.0,1.6186,2.1355,0.517,0.3185,0.8188,0.5002,A,0.0037599999999999856,as
143,0.49644,0.1,2,0.38061,0.42198,0.52127,143,1.86994,-0.9,-0.4468,0.04964,5,1D3U,1.0,True,0.36,6,False,left,0.0,1.4076,1.4573,0.0497,0.382,0.8822,0.5002,V,0.0037599999999999856,as
144,0.49644,1.2,1,0.28132,0.42198,0.54609,144,2.47395,0.46,0.23167,0.72812,5,3D1U,2.0,False,1.483,4,True,right,0.0,0.2844,1.018,0.7335,1.5681,2.0686,0.5005,A,0.0040599999999999525,as
145,0.49644,0.1,2,0.33924,0.43025,0.72812,145,2.74699,0.5,0.24822,0.75294,5,3D1U,2.0,True,0.324,4,False,right,0.0,1.5783,2.3366,0.7583,0.3449,0.8446,0.4997,V,0.003259999999999985,as
146,0.49644,1.2,1,0.43853,0.33924,0.81913,146,2.44085,-0.3,-0.14893,0.34751,5,1D2U,2.0,True,0.875,6,True,right,0.0,0.4375,0.7876,0.3501,1.6125,2.1124,0.4999,A,0.0034600000000000186,as
147,0.49644,0.1,2,0.40543,0.4468,0.53781,147,2.23399,-0.3,-0.14893,0.34751,5,1D2U,1.0,True,0.533,6,True,left,0.0,1.4506,1.8006,0.3501,0.4087,0.9091,0.5004,V,0.0039599999999999635,as
148,0.49644,1.2,1,0.36406,0.23167,0.6702,148,1.81201,-0.9,-0.4468,0.04964,5,1D3U,2.0,True,2.059,6,False,right,0.0,0.3685,0.419,0.0506,1.0935,1.5937,0.5002,V,0.0037599999999999856,as
149,0.49644,0.1,1,0.29787,0.36406,0.81913,149,2.50704,0.06,0.0331,0.52954,5,2D1U,2.0,False,2.683,8,False,right,0.0,0.2996,0.8333,0.5337,1.6585,2.1582,0.4997,V,0.003259999999999985,as
150,0.49644,1.2,2,0.38061,0.31441,0.62056,150,2.56496,0.5,0.24822,0.75294,5,3D1U,1.0,False,0.817,4,False,left,0.0,1.5095,2.268,0.7585,0.3849,0.8843,0.4994,V,0.002960000000000018,as
151,0.49644,0.1,2,0.38061,0.33096,0.78604,151,2.36638,-0.26,-0.13239,0.37233,5,1D2U,1.0,True,0.35,6,False,left,0.0,1.6718,2.0471,0.3752,0.3803,0.8804,0.5001,V,0.0036599999999999966,as
152,0.49644,1.2,1,0.31441,0.38061,0.8936,152,2.85455,0.54,0.27304,0.76949,5,3D1U,1.0,True,0.349,4,False,left,0.0,0.3178,1.0932,0.7754,1.9929,2.4929,0.5,V,0.0035600000000000076,as
153,0.49644,0.1,1,0.2234,0.30614,0.7033,153,2.49877,0.54,0.27304,0.76949,5,3D1U,1.0,True,0.434,4,False,left,0.0,0.2249,0.9999,0.7751,1.7083,2.2086,0.5003,A,0.0038599999999999746,as
154,0.49644,1.2,1,0.31441,0.29787,0.52127,154,2.00232,-0.26,-0.13239,0.37233,5,1D2U,1.0,False,1.842,6,False,left,0.0,0.317,0.6919,0.3749,1.217,1.7166,0.4995,A,0.003060000000000007,as
155,0.49644,0.1,1,0.28959,0.36406,0.80258,155,2.49876,0.1,0.04964,0.54609,5,2D1U,2.0,False,0.401,8,False,right,0.0,0.2879,0.8379,0.55,1.6464,2.1467,0.5003,V,0.0038599999999999746,as
156,0.49644,1.2,1,0.42198,0.20685,0.61228,156,1.80374,-0.86,-0.43025,0.06619,5,1D3U,1.0,False,1.832,7,True,left,0.0,0.4231,0.4901,0.067,1.1065,1.6067,0.5001,A,0.0036599999999999966,as
157,0.49644,0.1,2,0.39716,0.38888,0.43025,157,2.06024,-0.3,-0.14893,0.34751,5,1D2U,1.0,True,0.71,7,True,left,0.0,1.3324,1.6826,0.3502,0.3991,0.8993,0.5002,A,0.0037599999999999856,as
158,0.49644,1.2,1,0.33096,0.20685,0.59573,158,2.20089,0.14,0.06619,0.57091,5,2D1U,1.0,True,0.949,8,False,left,0.0,0.3286,0.9037,0.5751,1.5039,2.0034,0.4995,V,0.003060000000000007,as
159,0.49644,0.1,2,0.33096,0.24822,0.78604,159,2.63115,0.54,0.27304,0.76949,5,3D1U,2.0,True,0.275,4,False,right,0.0,1.6244,2.4,0.7755,0.333,0.833,0.4999,A,0.0034600000000000186,as
160,0.49644,1.2,2,0.43853,0.43025,0.78604,160,2.9042,0.5,0.24822,0.75294,5,3D1U,1.0,False,1.976,5,True,left,0.0,1.7318,2.4903,0.7584,0.4408,0.9398,0.4991,V,0.0026599999999999957,as
161,0.49644,0.1,1,0.21513,0.31441,0.57918,161,1.6548,-0.9,-0.4468,0.04964,5,1D3U,2.0,True,0.382,8,True,right,0.0,0.2132,0.2633,0.0502,0.8461,1.3465,0.5004,V,0.0039599999999999635,as
162,0.49644,1.2,1,0.4468,0.42198,0.62883,162,2.56496,0.14,0.06619,0.57091,5,2D1U,2.0,False,0.834,8,False,right,0.0,0.4529,1.027,0.5741,1.6608,2.161,0.5001,A,0.0036599999999999966,as
163,0.49644,0.1,1,0.4468,0.32269,0.85223,163,2.88765,0.54,0.27304,0.76949,5,3D1U,1.0,True,0.751,6,True,left,0.0,0.4472,1.2221,0.7749,2.0804,2.5801,0.4996,A,0.003159999999999996,as
164,0.49644,1.2,2,0.43025,0.2565,0.4799,164,2.43258,0.54,0.27304,0.76949,5,3D1U,1.0,False,1.016,6,True,left,0.0,1.419,2.194,0.775,0.4361,0.9362,0.5001,A,0.0036599999999999966,as
165,0.49644,0.1,1,0.26477,0.20685,0.79431,165,2.10988,-0.3,-0.14893,0.34751,5,1D2U,2.0,True,0.401,7,True,right,0.0,0.2649,0.615,0.3501,1.4154,1.9148,0.4994,V,0.002960000000000018,as
166,0.49644,1.2,1,0.23167,0.38061,0.79431,166,1.95267,-0.9,-0.4468,0.04964,5,1D3U,1.0,False,0.701,8,True,left,0.0,0.2354,0.2859,0.0504,1.0858,1.5855,0.4998,V,0.0033600000000000296,as
167,0.49644,0.1,2,0.30614,0.32269,0.60401,167,2.31674,0.18,0.09101,0.58746,5,2D1U,1.0,False,2.366,8,False,left,0.0,1.4202,2.0119,0.5917,0.3119,0.8119,0.5,A,0.0035600000000000076,as
168,0.49644,1.2,2,0.28132,0.33096,0.51299,168,1.99404,-0.26,-0.13239,0.37233,5,1D2U,2.0,False,2.283,8,True,right,0.0,1.2971,1.6722,0.3751,0.2804,0.7804,0.5,A,0.0035600000000000076,as
169,0.49644,0.1,1,0.28132,0.23995,0.57091,169,1.93613,-0.3,-0.14893,0.34751,5,1D2U,2.0,True,0.342,9,True,right,0.0,0.2853,0.6352,0.35,1.2103,1.7103,0.5,V,0.0035600000000000076,as
170,0.49644,1.2,2,0.23995,0.30614,0.45507,170,1.54724,-0.9,-0.4468,0.04964,5,1D3U,2.0,False,0.884,8,False,right,0.0,1.2024,1.2524,0.05,0.2441,0.7434,0.4993,V,0.002860000000000029,as
171,0.49644,0.1,2,0.23167,0.33924,0.57918,171,2.43257,0.58,0.28959,0.78604,5,3D1U,2.0,True,0.676,6,False,right,0.0,1.3162,2.1083,0.7921,0.2328,0.7332,0.5004,A,0.0039599999999999635,as
172,0.49644,1.2,2,0.4468,0.26477,0.82741,172,2.6477,0.22,0.10756,0.61228,5,2D1U,2.0,True,0.6,8,False,right,0.0,1.7808,2.3972,0.6165,0.4474,0.9472,0.4999,V,0.0034600000000000186,as
173,0.49644,0.1,2,0.21513,0.31441,0.57091,173,1.64653,-0.9,-0.4468,0.04964,5,1D3U,1.0,True,0.43,8,False,left,0.0,1.2915,1.342,0.0506,0.2169,0.7169,0.5,A,0.0035600000000000076,as
174,0.49644,1.2,1,0.38061,0.43025,0.71984,174,2.07678,-0.9,-0.4468,0.04964,5,1D3U,2.0,True,0.85,8,False,right,0.0,0.3829,0.4325,0.0496,1.1576,1.657,0.4994,V,0.002960000000000018,as
175,0.49644,0.1,2,0.35579,0.33096,0.56264,175,2.53187,0.58,0.28959,0.78604,5,3D1U,2.0,True,2.11,6,False,right,0.0,1.422,2.214,0.792,0.355,0.855,0.5,V,0.0035600000000000076,as
176,0.49644,1.2,1,0.23167,0.38061,0.66193,176,2.11816,-0.3,-0.14893,0.34751,5,1D2U,2.0,True,0.833,9,True,right,0.0,0.231,0.5812,0.3503,1.2474,1.7478,0.5004,V,0.0039599999999999635,as
177,0.49644,0.1,1,0.4137,0.2565,0.40543,177,1.62171,-0.9,-0.4468,0.04964,5,1D3U,2.0,True,0.658,8,False,right,0.0,0.4167,0.4666,0.0499,0.8749,1.375,0.5001,V,0.0036599999999999966,as
178,0.49644,1.2,2,0.20685,0.26477,0.50472,178,2.08506,0.22,0.10756,0.61228,5,2D1U,2.0,True,0.49,8,False,right,0.0,1.2127,1.8296,0.6169,0.2044,0.7044,0.5,V,0.0035600000000000076,as
179,0.49644,0.1,1,0.28959,0.2234,0.57091,179,2.36638,0.58,0.28959,0.78604,5,3D1U,1.0,True,0.185,6,False,left,0.0,0.291,1.0826,0.7916,1.6577,2.1578,0.5001,A,0.0036599999999999966,as
180,0.49644,1.2,1,0.19858,0.32269,0.64538,180,2.43258,0.54,0.27304,0.76949,5,3D1U,1.0,True,1.875,7,True,left,0.0,0.2027,0.9785,0.7758,1.6283,2.1281,0.4998,V,0.0033600000000000296,as
181,0.49644,0.1,2,0.31441,0.2565,0.51299,181,1.95267,-0.26,-0.13239,0.37233,5,1D2U,1.0,True,0.533,10,True,left,0.0,1.3293,1.7038,0.3745,0.313,0.8125,0.4995,A,0.003060000000000007,as
182,0.49644,1.2,2,0.19858,0.4468,0.48817,182,2.21745,0.18,0.09101,0.58746,5,2D1U,2.0,True,0.758,9,True,right,0.0,1.1885,1.7803,0.5917,0.1964,0.6969,0.5005,V,0.0040599999999999525,as
183,0.49644,0.1,2,0.24822,0.39716,0.62883,183,2.14298,-0.26,-0.13239,0.37233,5,1D2U,1.0,True,1.583,10,True,left,0.0,1.3795,1.7541,0.3746,0.2457,0.7461,0.5003,V,0.0038599999999999746,as
184,0.49644,1.2,1,0.20685,0.2565,0.52954,184,1.55552,-0.86,-0.43025,0.06619,5,1D3U,1.0,False,0.647,9,True,left,0.0,0.2076,0.2742,0.0667,0.8075,1.3077,0.5002,A,0.0037599999999999856,as
185,0.49644,0.1,2,0.26477,0.38061,0.43853,185,2.34984,0.54,0.27304,0.76949,5,3D1U,2.0,True,0.266,7,True,right,0.0,1.2056,1.9806,0.775,0.2634,0.7636,0.5002,V,0.0037599999999999856,as
186,0.49644,1.2,1,0.39716,0.26477,0.79431,186,2.54014,0.18,0.09101,0.58746,5,2D1U,1.0,True,0.858,9,True,left,0.0,0.4034,0.9952,0.5917,1.7949,2.2951,0.5003,A,0.0038599999999999746,as
187,0.49644,0.1,1,0.21513,0.28959,0.83568,187,2.40775,0.14,0.06619,0.57091,5,2D1U,1.0,True,1.109,9,False,left,0.0,0.2131,0.7879,0.5748,1.6296,2.1291,0.4995,A,0.003060000000000007,as
188,0.49644,1.2,2,0.2234,0.35579,0.81913,188,2.28364,-0.22,-0.10756,0.38888,5,1D2U,1.0,True,0.566,10,False,left,0.0,1.5466,1.9388,0.3922,0.2218,0.7218,0.5,V,0.0035600000000000076,as
189,0.49644,0.1,1,0.2234,0.37233,0.67847,189,1.82028,-0.9,-0.4468,0.04964,5,1D3U,2.0,True,0.772,10,True,right,0.0,0.2226,0.2726,0.05,0.9562,1.4555,0.4993,A,0.002860000000000029,as
190,0.49644,1.2,2,0.35579,0.35579,0.40543,190,2.38294,0.54,0.27304,0.76949,5,3D1U,2.0,True,0.557,7,True,right,0.0,1.264,2.0381,0.7741,0.3555,0.8549,0.4995,A,0.003060000000000007,as
191,0.49644,0.1,2,0.30614,0.35579,0.67847,191,2.40775,0.14,0.06619,0.57091,5,2D1U,2.0,True,0.76,9,False,right,0.0,1.492,2.0679,0.5759,0.3091,0.8094,0.5003,V,0.0038599999999999746,as
192,0.49644,1.2,1,0.36406,0.43853,0.74467,192,2.58979,0.1,0.04964,0.54609,5,2D1U,2.0,False,0.651,9,False,right,0.0,0.3681,0.9186,0.5504,1.6687,2.1684,0.4997,V,0.003259999999999985,as
193,0.49644,0.1,1,0.31441,0.24822,0.61228,193,2.24226,0.14,0.06619,0.57091,5,2D1U,2.0,False,1.083,10,True,right,0.0,0.3155,0.8902,0.5747,1.5072,2.0069,0.4997,V,0.003259999999999985,as
194,0.49644,1.2,1,0.31441,0.43025,0.77776,194,2.0685,-0.9,-0.4468,0.04964,5,1D3U,2.0,True,23.275,10,True,right,0.0,0.3166,0.3667,0.0501,1.1502,1.6496,0.4994,V,0.002960000000000018,as
195,0.49644,0.1,1,0.36406,0.23167,0.57918,195,2.42429,0.5,0.24822,0.75294,5,3D1U,1.0,True,0.393,7,False,left,0.0,0.3675,1.1261,0.7586,1.7092,2.2092,0.5,V,0.0035600000000000076,as
196,0.49644,1.2,2,0.28959,0.38888,0.55436,196,2.11815,-0.22,-0.10756,0.38888,5,1D2U,1.0,True,0.526,10,False,left,0.0,1.3475,1.7391,0.3916,0.2886,0.7893,0.5007,A,0.0042600000000000415,as
197,0.49644,0.1,1,0.36406,0.28132,0.69502,197,2.25054,-0.18,-0.09101,0.4137,5,1D2U,2.0,True,0.467,10,False,right,0.0,0.3645,0.7806,0.416,1.4812,1.9812,0.5001,V,0.0036599999999999966,as
198,0.49644,1.2,2,0.4137,0.23167,0.46335,198,1.6548,-0.9,-0.4468,0.04964,5,1D3U,1.0,True,0.606,10,True,left,0.0,1.3818,1.432,0.0502,0.4151,0.9151,0.5,A,0.0035600000000000076,as
199,0.49644,0.1,2,0.43853,0.29787,0.54609,199,1.84512,-0.86,-0.43025,0.06619,5,1D3U,1.0,True,0.384,11,True,left,0.0,1.4879,1.5553,0.0673,0.4386,0.9387,0.5,V,0.0035600000000000076,as
200,0.49644,1.2,1,0.2565,0.28132,0.71157,200,2.33329,0.18,0.09101,0.58746,5,2D1U,1.0,True,0.275,10,False,left,0.0,0.2566,0.8479,0.5913,1.5651,2.0656,0.5005,V,0.0040599999999999525,as
201,0.49644,0.1,2,0.21513,0.37233,0.48817,201,2.32501,0.5,0.24822,0.75294,5,3D1U,2.0,True,1.476,7,False,right,0.0,1.21,1.9687,0.7588,0.2183,0.7188,0.5005,V,0.0040599999999999525,as
202,0.49644,1.2,2,0.42198,0.32269,0.76121,202,2.06851,-0.86,-0.43025,0.06619,5,1D3U,2.0,False,1.209,11,True,right,0.0,1.6894,1.7559,0.0665,0.4229,0.9227,0.4998,V,0.0033600000000000296,as
203,0.49644,0.1,2,0.4137,0.20685,0.8605,203,2.39119,-0.18,-0.09101,0.4137,5,1D2U,1.0,True,0.5,10,False,left,0.0,1.7827,2.1992,0.4165,0.416,0.9158,0.4998,A,0.0033600000000000296,as
204,0.49644,1.2,2,0.23995,0.26477,0.6371,204,2.22572,0.18,0.09101,0.58746,5,2D1U,2.0,True,1.667,10,False,right,0.0,1.3813,1.9727,0.5914,0.2397,0.7401,0.5004,A,0.0039599999999999635,as
205,0.49644,0.1,1,0.42198,0.33924,0.72812,205,2.55669,0.14,0.06619,0.57091,5,2D1U,1.0,True,0.499,11,True,left,0.0,0.4257,1.0011,0.5754,1.7335,2.234,0.5005,V,0.0040599999999999525,as
206,0.49644,1.2,1,0.28959,0.28959,0.57091,206,2.39947,0.5,0.24822,0.75294,5,3D1U,1.0,True,0.525,7,False,left,0.0,0.2904,1.0489,0.7585,1.6237,2.1239,0.5002,A,0.0037599999999999856,as
207,0.49644,0.1,1,0.42198,0.21513,0.67847,207,2.54014,0.46,0.23167,0.72812,5,3D1U,1.0,True,0.359,7,False,left,0.0,0.4225,1.1561,0.7336,1.8394,2.3393,0.4999,A,0.0034600000000000186,as
208,0.49644,1.2,2,0.42198,0.35579,0.52954,208,2.234,-0.14,-0.06619,0.43025,5,1D2U,1.0,True,0.451,10,False,left,0.0,1.4613,1.8944,0.4331,0.4272,0.9279,0.5007,A,0.0042600000000000415,as
209,0.49644,0.1,2,0.33096,0.26477,0.53781,209,2.20089,0.14,0.06619,0.57091,5,2D1U,2.0,True,0.576,11,True,right,0.0,1.3754,1.9503,0.5749,0.3333,0.8338,0.5005,A,0.0040599999999999525,as
210,0.49644,1.2,1,0.43025,0.37233,0.77776,210,2.62287,0.1,0.04964,0.54609,5,2D1U,1.0,True,0.742,11,False,left,0.0,0.4353,0.9847,0.5494,1.7684,2.269,0.5006,V,0.0041600000000000525,as
211,0.49644,0.1,2,0.42198,0.28959,0.84396,211,2.10161,-0.9,-0.4468,0.04964,5,1D3U,1.0,True,0.433,12,True,left,0.0,1.7723,1.8223,0.0499,0.422,0.9225,0.5004,A,0.0039599999999999635,as
212,0.49644,1.2,1,0.26477,0.19858,0.53781,212,1.54724,-0.9,-0.4468,0.04964,5,1D3U,1.0,False,0.751,12,True,left,0.0,0.2692,0.3187,0.0496,0.86,1.3604,0.5003,V,0.0038599999999999746,as
213,0.49644,0.1,1,0.43853,0.23995,0.49644,213,2.39948,0.46,0.23167,0.72812,5,3D1U,1.0,True,0.342,7,False,left,0.0,0.443,1.1765,0.7335,1.6766,2.1766,0.5,A,0.0035600000000000076,as
214,0.49644,1.2,1,0.34751,0.43025,0.49644,214,2.20089,-0.14,-0.06619,0.43025,5,1D2U,1.0,False,0.292,10,False,left,0.0,0.3487,0.7816,0.433,1.2822,1.7821,0.4999,V,0.0034600000000000186,as
215,0.49644,0.1,2,0.27304,0.39716,0.75294,215,2.46567,0.1,0.04964,0.54609,5,2D1U,2.0,True,0.425,11,False,right,0.0,1.531,2.0802,0.5492,0.2732,0.7728,0.4996,V,0.003159999999999996,as
216,0.49644,1.2,2,0.2234,0.39716,0.88533,216,2.05197,-0.9,-0.4468,0.04964,5,1D3U,1.0,True,1.542,12,False,left,0.0,1.6143,1.6646,0.0503,0.2234,0.7231,0.4997,V,0.003259999999999985,as
217,0.49644,0.1,2,0.24822,0.28132,0.57918,217,1.6548,-0.9,-0.4468,0.04964,5,1D3U,1.0,True,0.451,12,False,left,0.0,1.3334,1.3827,0.0493,0.2494,0.7494,0.5,A,0.0035600000000000076,as
218,0.49644,1.2,1,0.23167,0.35579,0.64538,218,2.25882,0.06,0.0331,0.52954,5,2D1U,1.0,True,0.425,11,False,left,0.0,0.2354,0.7683,0.5329,1.4183,1.9182,0.4999,V,0.0034600000000000186,as
219,0.49644,0.1,1,0.35579,0.23167,0.52127,219,2.01887,-0.18,-0.09101,0.4137,5,1D2U,2.0,True,0.3,11,True,right,0.0,0.3548,0.7719,0.417,1.2969,1.7967,0.4998,A,0.0033600000000000296,as
220,0.49644,1.2,2,0.28132,0.23167,0.69502,220,2.43257,0.46,0.23167,0.72812,5,3D1U,2.0,True,0.558,7,False,right,0.0,1.4861,2.219,0.733,0.286,0.786,0.5,V,0.0035600000000000076,as
221,0.49644,0.1,1,0.36406,0.4468,0.54609,221,1.90303,-0.9,-0.4468,0.04964,5,1D3U,2.0,True,0.299,12,False,right,0.0,0.3677,0.418,0.0503,0.969,1.4673,0.4982,A,0.0017599999999999838,as
222,0.49644,1.2,1,0.37233,0.29787,0.79431,222,2.49049,0.06,0.0331,0.52954,5,2D1U,1.0,True,0.717,11,False,left,0.0,0.3776,0.9114,0.5338,1.7108,2.2114,0.5007,A,0.0042600000000000415,as
223,0.49644,0.1,1,0.4137,0.35579,0.55436,223,1.88648,-0.86,-0.43025,0.06619,5,1D3U,2.0,True,0.111,13,True,right,0.0,0.4178,0.4846,0.0668,1.0431,1.5431,0.5,A,0.0035600000000000076,as
224,0.49644,1.2,2,0.32269,0.40543,0.7033,224,1.99405,-0.86,-0.43025,0.06619,5,1D3U,1.0,True,1.5,13,True,left,0.0,1.5338,1.6006,0.0668,0.3254,0.8247,0.4993,A,0.002860000000000029,as
225,0.49644,0.1,2,0.33096,0.21513,0.6371,225,2.09333,-0.18,-0.09101,0.4137,5,1D2U,2.0,False,0.426,11,True,right,0.0,1.4762,1.8931,0.4169,0.3345,0.834,0.4994,V,0.002960000000000018,as
226,0.49644,1.2,1,0.43853,0.19858,0.88533,226,2.73045,0.42,0.20685,0.71157,5,3D1U,1.0,True,0.768,7,False,left,0.0,0.439,1.1552,0.7162,2.0473,2.5473,0.5,A,0.0035600000000000076,as
227,0.49644,0.1,1,0.36406,0.2234,0.53781,227,2.01059,-0.22,-0.10756,0.38888,5,1D2U,2.0,True,0.518,11,False,right,0.0,0.3687,0.7599,0.3912,1.302,1.802,0.4999,A,0.0034600000000000186,as
228,0.49644,1.2,1,0.23995,0.4468,0.64538,228,2.21745,-0.22,-0.10756,0.38888,5,1D2U,1.0,False,0.317,11,False,left,0.0,0.2407,0.6327,0.392,1.2821,1.7825,0.5003,A,0.0038599999999999746,as
229,0.49644,0.1,1,0.39716,0.33924,0.49644,229,1.79547,-0.86,-0.43025,0.06619,5,1D3U,2.0,True,0.375,13,True,right,0.0,0.4026,0.4693,0.0666,0.9691,1.4693,0.5002,V,0.0037599999999999856,as
230,0.49644,1.2,2,0.32269,0.42198,0.57091,230,2.32501,0.02,0.00827,0.51299,5,2D1U,2.0,True,0.366,11,False,right,0.0,1.401,1.9178,0.5169,0.3262,0.8252,0.499,A,0.0025600000000000067,as
231,0.49644,0.1,2,0.30614,0.23995,0.69502,231,2.44912,0.42,0.20685,0.71157,5,3D1U,2.0,True,0.533,7,False,right,0.0,1.5069,2.2239,0.7171,0.307,0.8068,0.4998,A,0.0033600000000000296,as
232,0.49644,1.2,2,0.33924,0.20685,0.42198,232,1.83684,-0.26,-0.13239,0.37233,5,1D2U,1.0,True,0.742,11,False,left,0.0,1.2677,1.6432,0.3755,0.3434,0.8427,0.4993,A,0.002860000000000029,as
233,0.49644,0.1,1,0.39716,0.21513,0.47162,233,1.67136,-0.82,-0.4137,0.09101,5,1D3U,2.0,True,0.392,13,False,right,0.0,0.3969,0.4883,0.0914,0.9636,1.4629,0.4993,V,0.002860000000000029,as
234,0.49644,1.2,2,0.37233,0.4468,0.43025,234,2.25881,0.02,0.00827,0.51299,5,2D1U,2.0,True,0.551,11,False,right,0.0,1.3068,1.8237,0.5169,0.3734,0.8734,0.4999,A,0.0034600000000000186,as
235,0.49644,0.1,1,0.28959,0.32269,0.43025,235,2.25054,0.42,0.20685,0.71157,5,3D1U,1.0,True,0.292,7,False,left,0.0,0.293,1.0099,0.7169,1.4431,1.943,0.4999,V,0.0034600000000000186,as
236,0.49644,1.2,1,0.28132,0.2565,0.8605,236,2.26709,-0.26,-0.13239,0.37233,5,1D2U,2.0,True,0.518,11,False,right,0.0,0.2867,0.6624,0.3757,1.5286,2.0283,0.4997,A,0.003259999999999985,as
237,0.49644,0.1,1,0.39716,0.38888,0.85223,237,2.22572,-0.82,-0.4137,0.09101,5,1D3U,2.0,True,0.241,13,False,right,0.0,0.4028,0.4951,0.0922,1.3535,1.8532,0.4997,V,0.003259999999999985,as
