Unnamed: 0,standardDur,audNoise,order,preDur,postDur,isiDur,trial_num,total_audio_dur,delta_dur_percents,deltaDurS,testDurS,intensities,current_stair,responses,is_correct,response_rts,stair_num_reversal,stair_is_reversal,response_keys,participantID
0,0.5,99,2,0.3833,0.2667,0.7333,0,1.9333,-0.9,-0.45,0.05,5,2D1U,1,True,0.676,0,False,left,P01
1,0.5,99,2,0.2167,0.2833,0.6833,1,1.7333,-0.9,-0.45,0.05,5,3D1U,1,True,0.8,0,False,left,P01
2,0.5,99,2,0.3333,0.4333,0.5667,2,1.9666,-0.74,-0.3667,0.1333,5,2D1U,2,False,0.875,0,False,right,P01
3,0.5,99,1,0.25,0.3833,0.6833,3,2.7166,0.8,0.4,0.9,5,lapse_rate,1,True,1.067,0,False,left,P01
4,0.5,99,2,0.4333,0.2333,0.4667,4,1.7666,-0.74,-0.3667,0.1333,5,3D1U,1,True,1.375,0,False,left,P01
5,0.5,99,1,0.3333,0.2167,0.85,5,1.95,-0.9,-0.45,0.05,5,1D3U,1,False,1.016,0,False,left,P01
6,0.5,99,1,0.2333,0.2167,0.9,6,1.9,-0.9,-0.45,0.05,5,1D2U,2,True,0.434,0,False,right,P01
7,0.5,99,2,0.3833,0.25,0.5833,7,1.7666,-0.9,-0.45,0.05,5,1D2U,1,True,0.883,0,False,left,P01
8,0.5,99,1,0.4333,0.35,0.6333,8,2.8166,0.8,0.4,0.9,5,lapse_rate,1,True,0.417,0,False,left,P01
9,0.5,99,1,0.2667,0.3667,0.8167,9,2.0001,-0.9,-0.45,0.05,5,1D3U,2,True,0.425,0,False,right,P01
10,0.5,99,1,0.3,0.25,0.4167,10,1.6834,-0.58,-0.2833,0.2167,5,3D1U,1,False,0.741,0,False,left,P01
11,0.5,99,2,0.2,0.3333,0.4333,11,1.5999,-0.74,-0.3667,0.1333,5,2D1U,1,True,0.6,0,False,left,P01
12,0.5,99,2,0.3167,0.2,0.6,12,1.75,-0.74,-0.3667,0.1333,5,1D2U,1,True,0.717,0,False,left,P01
13,0.5,99,1,0.45,0.3167,0.65,13,2.0167,-0.8,-0.4,0.1,5,lapse_rate,2,True,0.458,0,False,right,P01
14,0.5,99,1,0.4167,0.45,0.8167,14,2.4001,-0.58,-0.2833,0.2167,5,3D1U,2,True,0.65,0,False,right,P01
15,0.5,99,2,0.4,0.2,0.8333,15,2.15,-0.58,-0.2833,0.2167,5,2D1U,1,True,0.691,0,False,left,P01
16,0.5,99,2,0.4167,0.3833,0.7333,16,2.0833,-0.9,-0.45,0.05,5,1D3U,1,True,0.624,0,False,left,P01
17,0.5,99,2,0.3833,0.45,0.9,17,3.1333,0.8,0.4,0.9,5,lapse_rate,2,True,0.467,0,False,right,P01
18,0.5,99,1,0.25,0.2,0.65,18,1.65,-0.9,-0.45,0.05,5,1D3U,2,True,0.499,0,False,right,P01
19,0.5,99,2,0.3833,0.4167,0.6833,19,2.1166,-0.74,-0.3667,0.1333,5,1D2U,1,True,0.407,0,False,left,P01
20,0.5,99,1,0.3333,0.2667,0.6167,20,2.0,-0.42,-0.2167,0.2833,5,3D1U,2,True,0.458,0,False,right,P01
21,0.5,99,2,0.3167,0.4167,0.7,21,2.2167,-0.42,-0.2167,0.2833,5,2D1U,2,False,0.708,0,False,right,P01
22,0.5,99,1,0.3667,0.4,0.7333,22,2.3667,-0.26,-0.1333,0.3667,5,3D1U,2,True,0.716,0,False,right,P01
23,0.5,99,1,0.3,0.3167,0.7667,23,1.9667,-0.82,-0.4167,0.0833,5,1D3U,2,True,0.618,1,True,right,P01
24,0.5,99,2,0.2667,0.45,0.7333,24,2.05,-0.8,-0.4,0.1,5,lapse_rate,2,False,0.65,0,False,right,P01
25,0.5,99,1,0.2667,0.2333,0.7333,25,1.95,-0.58,-0.2833,0.2167,5,1D2U,2,True,1.708,0,False,right,P01
26,0.5,99,1,0.3167,0.3,0.6833,26,2.0833,-0.42,-0.2167,0.2833,5,2D1U,2,True,1.691,0,False,right,P01
27,0.5,99,1,0.4167,0.4167,0.7667,27,2.1834,-0.82,-0.4167,0.0833,5,1D3U,2,True,0.492,1,True,right,P01
28,0.5,99,1,0.3167,0.2333,0.5,28,2.0,-0.1,-0.05,0.45,5,3D1U,1,False,1.083,0,False,left,P01
29,0.5,99,1,0.3333,0.45,0.4167,29,1.9167,-0.58,-0.2833,0.2167,5,1D2U,2,True,1.159,0,False,right,P01
30,0.5,99,2,0.4333,0.2333,0.7,30,1.9666,-0.8,-0.4,0.1,5,lapse_rate,1,True,0.508,0,False,left,P01
31,0.5,99,2,0.35,0.2833,0.8667,31,2.3667,-0.26,-0.1333,0.3667,5,2D1U,2,False,0.367,0,False,right,P01
32,0.5,99,2,0.3167,0.4333,0.5167,32,1.8667,-0.8,-0.4,0.1,5,lapse_rate,1,True,0.391,0,False,left,P01
33,0.5,99,1,0.25,0.2667,0.6667,33,2.0501,-0.26,-0.1333,0.3667,5,2D1U,2,True,1.608,0,False,right,P01
34,0.5,99,1,0.2667,0.2833,0.85,34,2.1833,-0.42,-0.2167,0.2833,5,1D2U,1,False,1.509,0,False,left,P01
35,0.5,99,2,0.2167,0.4,0.8833,35,2.45,-0.1,-0.05,0.45,5,3D1U,2,False,2.425,0,False,right,P01
36,0.5,99,2,0.4333,0.2333,0.55,36,1.7999,-0.82,-0.4167,0.0833,5,1D3U,1,True,0.626,1,True,left,P01
37,0.5,99,2,0.3667,0.45,0.6667,37,2.4334,-0.1,-0.05,0.45,5,2D1U,1,True,0.492,0,False,left,P01
38,0.5,99,2,0.3833,0.2333,0.55,38,1.9166,-0.5,-0.25,0.25,5,1D2U,1,True,0.708,1,True,left,P01
39,0.5,99,1,0.3667,0.35,0.55,39,1.8667,-0.8,-0.4,0.1,5,lapse_rate,2,True,0.467,0,False,right,P01
40,0.5,99,2,0.3,0.3167,0.7,40,2.2667,-0.1,-0.05,0.45,5,3D1U,1,True,0.858,0,False,left,P01
41,0.5,99,2,0.2667,0.2167,0.4333,41,1.55,-0.74,-0.3667,0.1333,5,1D3U,1,True,0.758,1,False,left,P01
42,0.5,99,2,0.3,0.3667,0.8333,42,2.25,-0.5,-0.25,0.25,5,1D2U,1,True,2.083,1,True,left,P01
43,0.5,99,2,0.3667,0.25,0.4167,43,1.6667,-0.74,-0.3667,0.1333,5,1D3U,1,True,0.625,1,False,left,P01
44,0.5,99,2,0.45,0.2667,0.6167,44,2.3667,0.06,0.0333,0.5333,5,2D1U,2,True,0.783,0,False,right,P01
45,0.5,99,1,0.25,0.4,0.7,45,2.3833,0.06,0.0333,0.5333,5,3D1U,2,False,0.7,0,False,right,P01
46,0.5,99,2,0.3167,0.3667,0.5167,46,2.6001,0.8,0.4,0.9,5,lapse_rate,2,True,0.483,0,False,right,P01
47,0.5,99,1,0.4,0.2833,0.45,47,2.1666,0.06,0.0333,0.5333,5,2D1U,1,True,0.525,0,False,left,P01
48,0.5,99,2,0.2333,0.4333,0.8667,48,2.65,0.22,0.1167,0.6167,5,3D1U,2,True,0.783,0,False,right,P01
49,0.5,99,2,0.3167,0.3667,0.5,49,2.5834,0.8,0.4,0.9,5,lapse_rate,2,True,0.45,0,False,right,P01
50,0.5,99,2,0.2167,0.2667,0.45,50,1.5667,-0.74,-0.3667,0.1333,5,1D3U,1,True,0.616,1,False,left,P01
51,0.5,99,1,0.3667,0.2833,0.85,51,2.2667,-0.46,-0.2333,0.2667,5,1D2U,2,True,0.607,2,True,right,P01
52,0.5,99,1,0.2333,0.2167,0.8667,52,1.9167,-0.8,-0.4,0.1,5,lapse_rate,2,True,0.449,0,False,right,P01
53,0.5,99,2,0.4333,0.2333,0.6667,53,2.3166,-0.02,-0.0167,0.4833,5,2D1U,2,False,0.559,1,True,right,P01
54,0.5,99,2,0.35,0.3,0.5,54,1.9167,-0.46,-0.2333,0.2667,5,1D2U,2,False,0.792,2,True,right,P01
55,0.5,99,2,0.25,0.3667,0.65,55,2.3834,0.22,0.1167,0.6167,5,3D1U,2,True,0.617,0,False,right,P01
56,0.5,99,2,0.3333,0.25,0.65,56,1.9,-0.66,-0.3333,0.1667,5,1D3U,1,True,0.574,1,False,left,P01
57,0.5,99,2,0.4167,0.35,0.4,57,1.8334,-0.66,-0.3333,0.1667,5,1D3U,1,True,0.467,1,False,left,P01
58,0.5,99,1,0.3833,0.2833,0.8667,58,2.65,0.22,0.1167,0.6167,5,3D1U,1,True,0.85,0,False,left,P01
59,0.5,99,1,0.2333,0.3833,0.7333,59,2.0999,-0.5,-0.25,0.25,5,1D2U,2,True,0.392,3,True,right,P01
60,0.5,99,2,0.2833,0.3,0.5167,60,2.0833,-0.02,-0.0167,0.4833,5,2D1U,2,False,0.659,1,True,right,P01
61,0.5,99,2,0.2167,0.35,0.9,61,2.8667,0.8,0.4,0.9,5,lapse_rate,2,True,0.534,0,False,right,P01
62,0.5,99,2,0.4167,0.25,0.8167,62,2.4334,-0.1,-0.05,0.45,5,2D1U,2,False,0.916,1,False,right,P01
63,0.5,99,2,0.4167,0.4,0.6833,63,2.25,-0.5,-0.25,0.25,5,1D2U,1,True,0.392,3,True,left,P01
64,0.5,99,1,0.3667,0.3167,0.9,64,2.9834,0.8,0.4,0.9,5,lapse_rate,1,True,0.792,0,False,left,P01
65,0.5,99,1,0.4,0.3667,0.5833,65,2.4167,0.14,0.0667,0.5667,5,3D1U,1,True,0.525,1,True,left,P01
66,0.5,99,1,0.2333,0.2,0.6667,66,1.7667,-0.66,-0.3333,0.1667,5,1D3U,2,True,0.367,1,False,right,P01
67,0.5,99,1,0.4,0.2667,0.8667,67,2.3001,-0.46,-0.2333,0.2667,5,1D2U,2,True,0.392,4,True,right,P01
68,0.5,99,1,0.35,0.2833,0.5,68,2.2,0.14,0.0667,0.5667,5,3D1U,2,False,0.609,1,True,right,P01
69,0.5,99,2,0.3167,0.45,0.6,69,2.0834,-0.58,-0.2833,0.2167,5,1D3U,1,True,0.583,1,False,left,P01
70,0.5,99,2,0.2,0.3167,0.85,70,2.3167,-0.1,-0.05,0.45,5,2D1U,1,True,1.633,1,False,left,P01
71,0.5,99,2,0.25,0.35,0.6833,71,1.8833,-0.8,-0.4,0.1,5,lapse_rate,1,True,0.684,0,False,left,P01
72,0.5,99,1,0.2167,0.3833,0.7167,72,2.2834,-0.06,-0.0333,0.4667,5,2D1U,1,False,0.458,2,True,left,P01
73,0.5,99,1,0.45,0.3167,0.8167,73,2.3501,-0.46,-0.2333,0.2667,5,1D2U,1,False,0.576,4,True,left,P01
74,0.5,99,2,0.2167,0.4333,0.8667,74,2.2667,-0.5,-0.25,0.25,5,1D2U,1,True,0.683,5,True,left,P01
75,0.5,99,2,0.3667,0.2333,0.4667,75,1.7834,-0.58,-0.2833,0.2167,5,1D3U,1,True,0.708,1,False,left,P01
76,0.5,99,1,0.45,0.2167,0.45,76,2.2,0.18,0.0833,0.5833,5,3D1U,2,False,0.525,2,True,right,P01
77,0.5,99,1,0.2667,0.2833,0.5833,77,2.1,-0.06,-0.0333,0.4667,5,2D1U,2,True,1.258,2,True,right,P01
78,0.5,99,2,0.3167,0.35,0.8833,78,2.6667,0.22,0.1167,0.6167,5,3D1U,2,True,0.483,2,False,right,P01
79,0.5,99,2,0.35,0.4167,0.55,79,2.0334,-0.58,-0.2833,0.2167,5,1D3U,1,True,0.425,1,False,left,P01
80,0.5,99,2,0.3667,0.2167,0.8667,80,2.2001,-0.5,-0.25,0.25,5,1D3U,2,False,0.549,1,False,right,P01
81,0.5,99,2,0.4333,0.3,0.85,81,2.3333,-0.5,-0.25,0.25,5,1D2U,2,False,1.176,5,True,right,P01
82,0.5,99,1,0.2667,0.2833,0.8,82,2.0833,-0.54,-0.2667,0.2333,5,1D2U,2,True,0.675,5,False,right,P01
83,0.5,99,2,0.35,0.3667,0.7333,83,2.1833,-0.54,-0.2667,0.2333,5,1D2U,2,False,0.55,5,False,right,P01
84,0.5,99,1,0.4333,0.3,0.4167,84,2.2667,0.22,0.1167,0.6167,5,3D1U,1,True,0.617,2,False,left,P01
85,0.5,99,1,0.2167,0.3,0.5167,85,1.7667,-0.54,-0.2667,0.2333,5,1D3U,2,True,0.833,2,True,right,P01
86,0.5,99,2,0.35,0.4333,0.65,86,2.4166,-0.02,-0.0167,0.4833,5,2D1U,2,False,0.65,2,False,right,P01
87,0.5,99,1,0.2833,0.4167,0.6333,87,2.05,-0.58,-0.2833,0.2167,5,1D2U,2,True,0.8,5,False,right,P01
88,0.5,99,1,0.2833,0.2667,0.8833,88,2.55,0.22,0.1167,0.6167,5,3D1U,2,False,0.517,2,False,right,P01
89,0.5,99,2,0.3,0.4,0.75,89,2.4333,-0.02,-0.0167,0.4833,5,2D1U,2,False,0.649,2,False,right,P01
90,0.5,99,1,0.3333,0.4,0.8333,90,2.5333,-0.06,-0.0333,0.4667,5,2D1U,1,False,0.933,3,True,left,P01
91,0.5,99,2,0.2833,0.4167,0.8333,91,2.2666,-0.54,-0.2667,0.2333,5,1D3U,1,True,0.425,2,True,left,P01
92,0.5,99,2,0.4333,0.2333,0.5333,92,2.1666,-0.06,-0.0333,0.4667,5,2D1U,1,True,0.491,3,True,left,P01
93,0.5,99,1,0.3833,0.3833,0.5833,93,2.3332,-0.02,-0.0167,0.4833,5,2D1U,1,False,0.626,4,True,left,P01
94,0.5,99,1,0.2833,0.2333,0.5167,94,1.75,-0.58,-0.2833,0.2167,5,1D2U,2,True,0.417,5,False,right,P01
95,0.5,99,2,0.2167,0.2833,0.8667,95,2.1,-0.54,-0.2667,0.2333,5,1D3U,1,True,0.584,2,True,left,P01
96,0.5,99,1,0.3167,0.3167,0.8833,96,2.65,0.26,0.1333,0.6333,5,3D1U,1,True,0.234,2,False,left,P01
97,0.5,99,1,0.2833,0.4333,0.6,97,2.0666,-0.5,-0.25,0.25,5,1D3U,2,True,0.3,3,True,right,P01
98,0.5,99,1,0.3,0.2833,0.6667,98,2.3833,0.26,0.1333,0.6333,5,3D1U,1,True,0.434,2,False,left,P01
99,0.5,99,1,0.3333,0.2667,0.7667,99,2.1,-0.54,-0.2667,0.2333,5,1D2U,1,False,0.716,6,True,left,P01
100,0.5,99,2,0.3667,0.4,0.7,100,2.45,-0.02,-0.0167,0.4833,5,2D1U,2,False,0.425,4,True,right,P01
101,0.5,99,1,0.2333,0.2,0.8167,101,2.2167,-0.06,-0.0333,0.4667,5,2D1U,2,True,0.517,5,True,right,P01
102,0.5,99,2,0.2167,0.3167,0.85,102,2.1334,-0.5,-0.25,0.25,5,1D3U,1,True,0.634,3,True,left,P01
103,0.5,99,1,0.4333,0.45,0.4833,103,2.0833,-0.58,-0.2833,0.2167,5,1D2U,2,True,0.534,7,True,right,P01
104,0.5,99,2,0.25,0.2,0.4167,104,1.85,-0.02,-0.0167,0.4833,5,2D1U,1,True,0.858,6,True,left,P01
105,0.5,99,2,0.3833,0.2833,0.4333,105,2.1166,0.02,0.0167,0.5167,5,2D1U,1,False,1.1,6,False,left,P01
106,0.5,99,1,0.2667,0.3833,0.7167,106,2.5,0.26,0.1333,0.6333,5,3D1U,1,True,0.65,2,False,left,P01
107,0.5,99,1,0.3667,0.3333,0.75,107,2.4833,0.06,0.0333,0.5333,5,2D1U,2,False,0.759,6,False,right,P01
108,0.5,99,1,0.3333,0.4333,0.8833,108,2.3999,-0.5,-0.25,0.25,5,1D3U,1,False,1.466,3,True,left,P01
109,0.5,99,1,0.35,0.2167,0.75,109,2.05,-0.54,-0.2667,0.2333,5,1D3U,1,False,1.051,4,True,left,P01
110,0.5,99,1,0.3,0.25,0.4667,110,2.1334,0.22,0.1167,0.6167,5,3D1U,1,True,0.417,3,True,left,P01
111,0.5,99,1,0.4167,0.45,0.5667,111,2.1501,-0.58,-0.2833,0.2167,5,1D2U,1,False,0.616,7,True,left,P01
112,0.5,99,1,0.2,0.3,0.8667,112,2.4834,0.22,0.1167,0.6167,5,3D1U,1,True,0.418,3,True,left,P01
113,0.5,99,2,0.3333,0.35,0.8667,113,2.2333,-0.62,-0.3167,0.1833,5,1D2U,1,True,0.642,7,False,left,P01
114,0.5,99,1,0.3833,0.2,0.6833,114,1.9833,-0.58,-0.2833,0.2167,5,1D3U,1,False,0.784,4,False,left,P01
115,0.5,99,1,0.2,0.3333,0.6833,115,2.2666,0.1,0.05,0.55,5,2D1U,1,True,0.492,6,False,left,P01
116,0.5,99,1,0.2667,0.3,0.8,116,2.4834,0.22,0.1167,0.6167,5,3D1U,1,True,0.758,3,True,left,P01
117,0.5,99,2,0.2833,0.4,0.8833,117,2.2499,-0.62,-0.3167,0.1833,5,1D2U,1,True,0.566,7,False,left,P01
118,0.5,99,1,0.3,0.3,0.8333,118,2.1166,-0.62,-0.3167,0.1833,5,1D3U,1,False,1.016,4,False,left,P01
119,0.5,99,1,0.45,0.4167,0.4167,119,2.3334,0.1,0.05,0.55,5,2D1U,2,False,1.832,6,False,right,P01
120,0.5,99,2,0.3,0.4,0.6667,120,2.45,0.18,0.0833,0.5833,5,3D1U,1,False,1.125,3,False,left,P01
121,0.5,99,1,0.4167,0.3,0.4333,121,1.8667,-0.58,-0.2833,0.2167,5,1D2U,2,True,0.666,8,True,right,P01
122,0.5,99,1,0.3167,0.3667,0.5667,122,2.3668,0.22,0.1167,0.6167,5,3D1U,2,False,1.532,4,True,right,P01
123,0.5,99,2,0.3667,0.3833,0.7333,123,2.15,-0.66,-0.3333,0.1667,5,1D3U,1,True,0.766,4,False,left,P01
124,0.5,99,2,0.35,0.4167,0.5667,124,2.4001,0.14,0.0667,0.5667,5,2D1U,2,True,0.525,6,False,right,P01
125,0.5,99,2,0.4167,0.3667,0.8833,125,2.3834,-0.58,-0.2833,0.2167,5,1D2U,1,True,0.517,8,True,left,P01
126,0.5,99,2,0.3167,0.4167,0.7333,126,2.6,0.26,0.1333,0.6333,5,3D1U,1,False,0.917,4,False,left,P01
127,0.5,99,1,0.2333,0.45,0.6,127,2.0166,-0.54,-0.2667,0.2333,5,1D2U,2,True,0.958,8,False,right,P01
128,0.5,99,2,0.3167,0.3167,0.7333,128,2.0334,-0.66,-0.3333,0.1667,5,1D3U,1,True,0.583,4,False,left,P01
129,0.5,99,2,0.2667,0.3667,0.5,129,2.2834,0.3,0.15,0.65,5,3D1U,1,False,0.841,4,False,left,P01
130,0.5,99,2,0.4167,0.2333,0.7667,130,2.4834,0.14,0.0667,0.5667,5,2D1U,2,True,0.568,6,False,right,P01
131,0.5,99,2,0.3667,0.3833,0.6833,131,2.4833,0.1,0.05,0.55,5,2D1U,2,True,2.391,7,True,right,P01
132,0.5,99,2,0.3167,0.2167,0.7833,132,2.4834,0.34,0.1667,0.6667,5,3D1U,2,True,0.559,4,False,right,P01
133,0.5,99,1,0.4,0.2833,0.6,133,2.3333,0.1,0.05,0.55,5,2D1U,1,True,0.741,7,True,left,P01
134,0.5,99,2,0.2333,0.3833,0.8667,134,2.15,-0.66,-0.3333,0.1667,5,1D3U,1,True,0.658,4,False,left,P01
135,0.5,99,2,0.35,0.3333,0.85,135,2.2166,-0.62,-0.3167,0.1833,5,1D3U,1,True,0.733,5,True,left,P01
136,0.5,99,1,0.3833,0.3833,0.6333,136,2.1332,-0.54,-0.2667,0.2333,5,1D2U,1,False,0.717,8,False,left,P01
137,0.5,99,1,0.3833,0.3,0.6667,137,2.3833,0.06,0.0333,0.5333,5,2D1U,2,False,0.576,7,False,right,P01
138,0.5,99,2,0.4333,0.4333,0.5333,138,2.5666,0.34,0.1667,0.6667,5,3D1U,1,False,0.824,4,False,left,P01
139,0.5,99,1,0.3,0.3833,0.4667,139,1.8333,-0.62,-0.3167,0.1833,5,1D3U,1,False,1.232,5,True,left,P01
140,0.5,99,1,0.4167,0.3667,0.4833,140,1.9334,-0.66,-0.3333,0.1667,5,1D3U,1,False,0.725,6,True,left,P01
141,0.5,99,1,0.3,0.2833,0.6167,141,1.9167,-0.58,-0.2833,0.2167,5,1D2U,1,False,0.808,9,True,left,P01
142,0.5,99,1,0.3667,0.4167,0.8667,142,2.7001,0.1,0.05,0.55,5,2D1U,2,False,0.658,8,True,right,P01
143,0.5,99,1,0.25,0.2,0.4,143,1.5333,-0.62,-0.3167,0.1833,5,1D2U,1,False,1.242,9,False,left,P01
144,0.5,99,1,0.3167,0.2,0.4833,144,1.6667,-0.66,-0.3333,0.1667,5,1D2U,1,False,1.475,9,False,left,P01
145,0.5,99,1,0.3167,0.25,0.6667,145,1.8834,-0.7,-0.35,0.15,5,1D3U,2,True,0.867,6,False,right,P01
146,0.5,99,2,0.35,0.4333,0.8833,146,2.8499,0.38,0.1833,0.6833,5,3D1U,2,True,0.567,4,False,right,P01
147,0.5,99,1,0.2333,0.3167,0.4333,147,2.1666,0.38,0.1833,0.6833,5,3D1U,2,False,1.158,4,False,right,P01
148,0.5,99,2,0.25,0.3333,0.5333,148,1.7666,-0.7,-0.35,0.15,5,1D3U,1,True,0.583,6,False,left,P01
149,0.5,99,2,0.25,0.2333,0.7,149,1.8333,-0.7,-0.35,0.15,5,1D3U,1,True,1.034,6,False,left,P01
150,0.5,99,2,0.2333,0.4167,0.4333,150,1.7333,-0.7,-0.35,0.15,5,1D2U,1,True,0.559,9,False,left,P01
151,0.5,99,1,0.3333,0.3167,0.5833,151,2.45,0.42,0.2167,0.7167,5,3D1U,2,False,0.491,4,False,right,P01
152,0.5,99,1,0.35,0.3833,0.6,152,2.5666,0.46,0.2333,0.7333,5,3D1U,2,False,1.733,4,False,right,P01
153,0.5,99,2,0.2167,0.2667,0.8833,153,2.0167,-0.7,-0.35,0.15,5,1D2U,1,True,0.758,9,False,left,P01
0,0.5,99,1,0.2833,0.2833,0.9,0,2.0166,-0.9,-0.45,0.05,5,2D1U,2,True,0.333,0,False,right,P02
1,0.5,99,2,0.25,0.4,0.6333,1,1.8333,-0.9,-0.45,0.05,5,1D2U,1,True,0.334,0,False,left,P02
2,0.5,99,2,0.35,0.25,0.7833,2,2.7833,0.8,0.4,0.9,5,lapse_rate,2,True,0.218,0,False,right,P02
3,0.5,99,1,0.3667,0.2667,0.4833,3,1.6667,-0.9,-0.45,0.05,5,1D2U,2,True,0.517,0,False,right,P02
4,0.5,99,2,0.2833,0.2333,0.7833,4,1.9332,-0.74,-0.3667,0.1333,5,2D1U,1,True,0.433,0,False,left,P02
5,0.5,99,1,0.4333,0.3667,0.45,5,1.8,-0.9,-0.45,0.05,5,1D3U,2,True,0.224,0,False,right,P02
6,0.5,99,2,0.2667,0.4333,0.4667,6,1.7167,-0.9,-0.45,0.05,5,3D1U,1,True,0.284,0,False,left,P02
7,0.5,99,2,0.3667,0.3,0.5833,7,1.8833,-0.74,-0.3667,0.1333,5,1D2U,1,True,0.35,0,False,left,P02
8,0.5,99,2,0.2333,0.2667,0.5333,8,1.75,-0.58,-0.2833,0.2167,5,2D1U,1,True,0.409,0,False,left,P02
9,0.5,99,1,0.4167,0.4167,0.55,9,2.0167,-0.74,-0.3667,0.1333,5,3D1U,2,True,0.158,0,False,right,P02
10,0.5,99,2,0.3833,0.25,0.7167,10,1.95,-0.8,-0.4,0.1,5,lapse_rate,1,True,0.3,0,False,left,P02
11,0.5,99,2,0.35,0.3667,0.7333,11,2.0,-0.9,-0.45,0.05,5,1D3U,1,True,0.25,0,False,left,P02
12,0.5,99,2,0.3,0.3,0.6667,12,2.05,-0.42,-0.2167,0.2833,5,2D1U,2,False,0.482,0,False,right,P02
13,0.5,99,1,0.4167,0.4167,0.7833,13,2.3334,-0.58,-0.2833,0.2167,5,3D1U,2,True,0.517,0,False,right,P02
14,0.5,99,1,0.2167,0.2167,0.9,14,1.9667,-0.74,-0.3667,0.1333,5,1D2U,2,True,0.44,0,False,right,P02
15,0.5,99,2,0.3667,0.45,0.4667,15,2.6834,0.8,0.4,0.9,5,lapse_rate,2,True,0.157,0,False,right,P02
16,0.5,99,2,0.4333,0.35,0.7333,16,2.0666,-0.9,-0.45,0.05,5,1D3U,1,True,0.308,0,False,left,P02
17,0.5,99,2,0.4333,0.2667,0.4167,17,1.75,-0.74,-0.3667,0.1333,5,1D3U,1,True,0.375,0,False,left,P02
18,0.5,99,2,0.3,0.2167,0.55,18,2.4667,0.8,0.4,0.9,5,lapse_rate,2,True,0.332,0,False,right,P02
19,0.5,99,2,0.3,0.3833,0.5333,19,1.9333,-0.58,-0.2833,0.2167,5,1D2U,1,True,0.358,0,False,left,P02
20,0.5,99,2,0.25,0.2833,0.55,20,1.8666,-0.42,-0.2167,0.2833,5,2D1U,1,True,0.4,0,False,left,P02
21,0.5,99,2,0.4,0.3,0.7667,21,2.25,-0.42,-0.2167,0.2833,5,3D1U,1,True,0.424,0,False,left,P02
22,0.5,99,2,0.4167,0.3833,0.8333,22,2.5,-0.26,-0.1333,0.3667,5,3D1U,1,True,0.424,0,False,left,P02
23,0.5,99,1,0.3,0.2167,0.75,23,1.9834,-0.58,-0.2833,0.2167,5,1D2U,2,True,0.367,0,False,right,P02
24,0.5,99,1,0.2667,0.4,0.8333,24,2.3667,-0.26,-0.1333,0.3667,5,2D1U,2,True,0.376,0,False,right,P02
25,0.5,99,1,0.4333,0.4333,0.8,25,2.2999,-0.74,-0.3667,0.1333,5,1D3U,2,True,0.266,0,False,right,P02
26,0.5,99,2,0.3333,0.3667,0.4667,26,2.5667,0.8,0.4,0.9,5,lapse_rate,2,True,0.358,0,False,right,P02
27,0.5,99,1,0.3333,0.2167,0.65,27,1.8,-0.8,-0.4,0.1,5,lapse_rate,2,True,0.874,0,False,right,P02
28,0.5,99,2,0.4167,0.3833,0.4,28,2.15,-0.1,-0.05,0.45,5,2D1U,2,False,0.641,0,False,right,P02
29,0.5,99,2,0.3333,0.25,0.8167,29,2.35,-0.1,-0.05,0.45,5,3D1U,2,False,1.116,0,False,right,P02
30,0.5,99,1,0.2333,0.3167,0.5167,30,1.85,-0.42,-0.2167,0.2833,5,1D2U,1,False,1.117,0,False,left,P02
31,0.5,99,1,0.2833,0.3,0.4667,31,1.6833,-0.74,-0.3667,0.1333,5,1D3U,2,True,0.617,0,False,right,P02
32,0.5,99,2,0.4333,0.2167,0.5333,32,1.7833,-0.8,-0.4,0.1,5,lapse_rate,1,True,0.4,0,False,left,P02
33,0.5,99,1,0.2167,0.3667,0.55,33,2.0834,-0.1,-0.05,0.45,5,3D1U,2,True,0.742,0,False,right,P02
34,0.5,99,2,0.4333,0.3333,0.6667,34,2.1833,-0.5,-0.25,0.25,5,1D2U,1,True,0.409,1,True,left,P02
35,0.5,99,1,0.3833,0.3833,0.7167,35,2.4333,-0.1,-0.05,0.45,5,2D1U,1,False,0.425,0,False,left,P02
36,0.5,99,2,0.3667,0.3667,0.5333,36,1.9834,-0.58,-0.2833,0.2167,5,1D3U,1,True,0.482,0,False,left,P02
37,0.5,99,1,0.2667,0.45,0.5167,37,1.9501,-0.58,-0.2833,0.2167,5,1D3U,2,True,0.359,0,False,right,P02
38,0.5,99,2,0.2833,0.2667,0.4833,38,1.95,-0.18,-0.0833,0.4167,5,2D1U,1,True,0.501,1,True,left,P02
39,0.5,99,1,0.3333,0.4333,0.6833,39,2.0499,-0.8,-0.4,0.1,5,lapse_rate,2,True,0.199,0,False,right,P02
40,0.5,99,1,0.4333,0.3167,0.5,40,2.0,-0.5,-0.25,0.25,5,1D2U,2,True,0.308,1,True,right,P02
41,0.5,99,1,0.4,0.45,0.8167,41,2.7,0.06,0.0333,0.5333,5,3D1U,2,False,1.158,0,False,right,P02
42,0.5,99,1,0.35,0.35,0.5833,42,2.0,-0.58,-0.2833,0.2167,5,1D3U,1,False,0.417,0,False,left,P02
43,0.5,99,1,0.4333,0.2333,0.9,43,2.6833,0.22,0.1167,0.6167,5,3D1U,1,True,0.583,0,False,left,P02
44,0.5,99,1,0.3333,0.2,0.55,44,1.85,-0.46,-0.2333,0.2667,5,1D2U,1,False,1.141,2,True,left,P02
45,0.5,99,1,0.4333,0.3,0.6667,45,2.3333,-0.14,-0.0667,0.4333,5,2D1U,2,True,0.5,2,True,right,P02
46,0.5,99,1,0.3,0.2167,0.85,46,2.7667,0.8,0.4,0.9,5,lapse_rate,1,True,0.483,0,False,left,P02
47,0.5,99,1,0.3167,0.45,0.7333,47,2.25,-0.5,-0.25,0.25,5,1D2U,2,True,0.258,3,True,right,P02
48,0.5,99,1,0.3833,0.4167,0.8,48,2.2,-0.8,-0.4,0.1,5,lapse_rate,2,True,0.574,0,False,right,P02
49,0.5,99,2,0.25,0.4167,0.6167,49,2.4001,0.22,0.1167,0.6167,5,3D1U,2,True,0.723,0,False,right,P02
50,0.5,99,2,0.2333,0.25,0.45,50,1.8833,-0.1,-0.05,0.45,5,2D1U,1,True,0.749,2,False,left,P02
51,0.5,99,2,0.4,0.4,0.7833,51,2.25,-0.66,-0.3333,0.1667,5,1D3U,1,True,0.516,1,True,left,P02
52,0.5,99,2,0.3833,0.25,0.7667,52,2.0,-0.8,-0.4,0.1,5,lapse_rate,1,True,0.666,0,False,left,P02
53,0.5,99,2,0.2167,0.3333,0.7333,53,2.4,0.22,0.1167,0.6167,5,3D1U,1,False,0.434,0,False,left,P02
54,0.5,99,2,0.2167,0.25,0.45,54,1.8834,-0.06,-0.0333,0.4667,5,2D1U,1,True,0.666,2,False,left,P02
55,0.5,99,2,0.3833,0.4,0.4167,55,1.95,-0.5,-0.25,0.25,5,1D2U,1,True,0.317,3,True,left,P02
56,0.5,99,1,0.2667,0.2333,0.8,56,1.9667,-0.66,-0.3333,0.1667,5,1D3U,2,True,0.415,1,True,right,P02
57,0.5,99,2,0.3833,0.3667,0.8333,57,2.25,-0.66,-0.3333,0.1667,5,1D3U,1,True,0.517,1,True,left,P02
58,0.5,99,1,0.2,0.25,0.4833,58,1.9166,-0.02,-0.0167,0.4833,5,2D1U,1,False,0.643,2,False,left,P02
59,0.5,99,1,0.2667,0.25,0.75,59,1.8667,-0.8,-0.4,0.1,5,lapse_rate,2,True,0.291,0,False,right,P02
60,0.5,99,1,0.2833,0.35,0.6667,60,2.0667,-0.46,-0.2333,0.2667,5,1D2U,1,False,0.358,4,True,left,P02
61,0.5,99,2,0.3667,0.3,0.6833,61,2.5333,0.38,0.1833,0.6833,5,3D1U,2,True,0.516,0,False,right,P02
62,0.5,99,2,0.3667,0.4,0.6,62,2.35,-0.02,-0.0167,0.4833,5,2D1U,1,True,0.45,2,False,left,P02
63,0.5,99,1,0.3833,0.4333,0.7667,63,2.3333,-0.5,-0.25,0.25,5,1D2U,2,True,0.267,5,True,right,P02
64,0.5,99,1,0.3167,0.3667,0.85,64,2.2167,-0.62,-0.3167,0.1833,5,1D3U,1,False,0.826,2,True,left,P02
65,0.5,99,2,0.2667,0.25,0.8667,65,2.5667,0.38,0.1833,0.6833,5,3D1U,2,True,0.467,0,False,right,P02
66,0.5,99,2,0.3333,0.2667,0.4667,66,2.4667,0.8,0.4,0.9,5,lapse_rate,2,True,0.366,0,False,right,P02
67,0.5,99,2,0.3333,0.3333,0.4167,67,1.8333,-0.5,-0.25,0.25,5,1D2U,1,True,0.309,5,True,left,P02
68,0.5,99,1,0.2667,0.4333,0.75,68,2.85,0.8,0.4,0.9,5,lapse_rate,1,True,0.616,0,False,left,P02
69,0.5,99,2,0.3,0.3,0.8333,69,2.45,0.02,0.0167,0.5167,5,2D1U,1,False,0.416,2,False,left,P02
70,0.5,99,1,0.3833,0.2167,0.75,70,2.5333,0.38,0.1833,0.6833,5,3D1U,1,True,0.408,0,False,left,P02
71,0.5,99,2,0.3333,0.2833,0.5333,71,1.8166,-0.66,-0.3333,0.1667,5,1D3U,1,True,0.474,3,True,left,P02
72,0.5,99,2,0.45,0.25,0.5833,72,2.05,-0.46,-0.2333,0.2667,5,1D2U,1,True,0.417,6,True,left,P02
73,0.5,99,1,0.2333,0.2333,0.8667,73,2.1,-0.46,-0.2333,0.2667,5,1D2U,2,True,0.258,6,True,right,P02
74,0.5,99,1,0.4167,0.2667,0.8667,74,2.7001,0.3,0.15,0.65,5,3D1U,2,False,0.616,1,True,right,P02
75,0.5,99,2,0.2667,0.3667,0.4667,75,2.1334,0.06,0.0333,0.5333,5,2D1U,1,False,0.548,2,False,left,P02
76,0.5,99,1,0.3333,0.2667,0.4167,76,1.6834,-0.66,-0.3333,0.1667,5,1D3U,2,True,0.783,3,True,right,P02
77,0.5,99,1,0.2833,0.3833,0.6,77,2.3166,0.1,0.05,0.55,5,2D1U,1,True,0.474,2,False,left,P02
78,0.5,99,2,0.3167,0.35,0.5333,78,2.3667,0.34,0.1667,0.6667,5,3D1U,1,False,1.033,2,True,left,P02
79,0.5,99,2,0.3667,0.35,0.8333,79,2.2167,-0.66,-0.3333,0.1667,5,1D3U,1,True,0.449,3,True,left,P02
80,0.5,99,1,0.4167,0.3833,0.75,80,2.3333,-0.42,-0.2167,0.2833,5,1D2U,1,False,0.532,6,False,left,P02
81,0.5,99,1,0.4167,0.2667,0.6333,81,2.3667,0.1,0.05,0.55,5,2D1U,1,True,0.825,2,False,left,P02
82,0.5,99,1,0.3,0.3,0.4,82,1.7667,-0.46,-0.2333,0.2667,5,1D2U,2,True,0.475,7,True,right,P02
83,0.5,99,1,0.3333,0.2167,0.7667,83,2.0,-0.62,-0.3167,0.1833,5,1D3U,2,True,0.375,4,True,right,P02
84,0.5,99,1,0.25,0.2667,0.5667,84,2.1167,0.06,0.0333,0.5333,5,2D1U,2,False,1.101,3,True,right,P02
85,0.5,99,2,0.4,0.35,0.45,85,2.3833,0.38,0.1833,0.6833,5,3D1U,2,True,0.308,2,False,right,P02
86,0.5,99,2,0.4,0.3833,0.65,86,2.2,-0.46,-0.2333,0.2667,5,1D2U,1,True,0.366,7,True,left,P02
87,0.5,99,1,0.2,0.2333,0.7333,87,2.3499,0.38,0.1833,0.6833,5,3D1U,1,True,0.658,2,False,left,P02
88,0.5,99,2,0.4,0.3333,0.5667,88,2.0833,-0.42,-0.2167,0.2833,5,1D2U,1,True,0.675,8,True,left,P02
89,0.5,99,2,0.25,0.2333,0.6667,89,2.2,0.1,0.05,0.55,5,2D1U,2,True,0.525,4,True,right,P02
90,0.5,99,2,0.2667,0.3,0.4333,90,1.6833,-0.62,-0.3167,0.1833,5,1D3U,1,True,0.39,4,True,left,P02
91,0.5,99,2,0.45,0.2667,0.6833,91,2.5833,0.38,0.1833,0.6833,5,3D1U,2,True,0.401,2,False,right,P02
92,0.5,99,1,0.4333,0.4333,0.8667,92,2.5166,-0.42,-0.2167,0.2833,5,1D2U,2,True,1.717,8,True,right,P02
93,0.5,99,1,0.4333,0.3833,0.7667,93,2.2666,-0.62,-0.3167,0.1833,5,1D3U,1,False,0.491,4,True,left,P02
94,0.5,99,1,0.3333,0.3167,0.5833,94,2.2833,0.1,0.05,0.55,5,2D1U,2,False,0.64,4,True,right,P02
95,0.5,99,1,0.3833,0.3,0.8,95,2.65,0.34,0.1667,0.6667,5,3D1U,1,True,0.568,3,True,left,P02
96,0.5,99,2,0.3833,0.3167,0.6167,96,2.1334,-0.38,-0.1833,0.3167,5,1D2U,1,True,0.692,8,False,left,P02
97,0.5,99,1,0.3333,0.3833,0.85,97,2.6333,0.14,0.0667,0.5667,5,2D1U,2,False,0.741,4,False,right,P02
98,0.5,99,2,0.25,0.3667,0.55,98,1.8334,-0.66,-0.3333,0.1667,5,1D3U,1,True,0.567,5,True,left,P02
99,0.5,99,1,0.45,0.3167,0.5833,99,2.5167,0.34,0.1667,0.6667,5,3D1U,1,True,0.457,3,True,left,P02
100,0.5,99,1,0.2167,0.3833,0.8333,100,2.25,-0.38,-0.1833,0.3167,5,1D2U,2,True,0.435,8,False,right,P02
101,0.5,99,2,0.45,0.25,0.7,101,2.2333,-0.34,-0.1667,0.3333,5,1D2U,1,True,0.55,8,False,left,P02
102,0.5,99,2,0.2167,0.3,0.4333,102,2.1167,0.34,0.1667,0.6667,5,3D1U,1,False,0.659,3,True,left,P02
103,0.5,99,1,0.3167,0.4,0.4667,103,2.3667,0.38,0.1833,0.6833,5,3D1U,1,True,0.875,4,True,left,P02
104,0.5,99,2,0.2333,0.25,0.5,104,2.0666,0.18,0.0833,0.5833,5,2D1U,2,True,0.743,4,False,right,P02
105,0.5,99,1,0.45,0.3333,0.7333,105,2.1833,-0.66,-0.3333,0.1667,5,1D3U,1,False,0.492,5,True,left,P02
106,0.5,99,1,0.4167,0.4,0.6667,106,2.3167,-0.34,-0.1667,0.3333,5,1D2U,1,False,0.725,8,False,left,P02
107,0.5,99,1,0.3,0.4167,0.4333,107,2.3333,0.38,0.1833,0.6833,5,3D1U,1,True,0.324,4,True,left,P02
108,0.5,99,2,0.2167,0.4,0.85,108,2.1167,-0.7,-0.35,0.15,5,1D3U,1,True,0.35,5,False,left,P02
109,0.5,99,2,0.3167,0.2,0.4167,109,1.5834,-0.7,-0.35,0.15,5,1D3U,1,True,0.534,5,False,left,P02
110,0.5,99,1,0.4167,0.4333,0.4667,110,2.4,0.18,0.0833,0.5833,5,2D1U,1,True,0.7,4,False,left,P02
111,0.5,99,2,0.25,0.3167,0.4333,111,1.8167,-0.38,-0.1833,0.3167,5,1D2U,2,False,0.5,9,True,right,P02
112,0.5,99,2,0.3,0.3333,0.7833,112,2.0666,-0.7,-0.35,0.15,5,1D3U,1,True,0.391,5,False,left,P02
113,0.5,99,2,0.2167,0.45,0.45,113,1.7834,-0.66,-0.3333,0.1667,5,1D3U,1,True,0.6,6,True,left,P02
114,0.5,99,1,0.2833,0.2333,0.4,114,2.0999,0.38,0.1833,0.6833,5,3D1U,1,True,0.534,4,True,left,P02
115,0.5,99,2,0.25,0.4333,0.6,115,2.35,0.14,0.0667,0.5667,5,2D1U,2,True,0.307,5,True,right,P02
116,0.5,99,1,0.4333,0.45,0.7667,116,2.4333,-0.42,-0.2167,0.2833,5,1D2U,1,False,0.408,9,False,left,P02
117,0.5,99,1,0.3833,0.2167,0.6,117,2.2667,0.14,0.0667,0.5667,5,2D1U,1,True,0.558,5,True,left,P02
118,0.5,99,1,0.2833,0.2167,0.7,118,2.3667,0.34,0.1667,0.6667,5,3D1U,2,False,0.467,5,True,right,P02
119,0.5,99,2,0.4333,0.3,0.6833,119,2.5999,0.38,0.1833,0.6833,5,3D1U,2,True,0.573,6,True,right,P02
120,0.5,99,2,0.4,0.4333,0.4,120,1.9,-0.66,-0.3333,0.1667,5,1D3U,1,True,0.458,6,True,left,P02
121,0.5,99,2,0.3167,0.4333,0.5167,121,2.0334,-0.46,-0.2333,0.2667,5,1D2U,1,True,0.483,9,False,left,P02
122,0.5,99,2,0.3833,0.3,0.8,122,2.6666,0.38,0.1833,0.6833,5,3D1U,2,True,0.425,6,True,right,P02
123,0.5,99,2,0.3,0.3333,0.7,123,2.0,-0.66,-0.3333,0.1667,5,1D3U,1,True,0.468,6,True,left,P02
124,0.5,99,1,0.2,0.2667,0.6333,124,1.7833,-0.62,-0.3167,0.1833,5,1D3U,1,False,0.691,6,False,left,P02
125,0.5,99,2,0.25,0.25,0.7,125,1.9667,-0.46,-0.2333,0.2667,5,1D2U,1,True,1.175,9,False,left,P02
126,0.5,99,1,0.2833,0.4167,0.5333,126,2.2833,0.1,0.05,0.55,5,2D1U,1,True,0.973,5,False,left,P02
127,0.5,99,2,0.35,0.4167,0.4667,127,1.9001,-0.66,-0.3333,0.1667,5,1D3U,1,True,0.408,7,True,left,P02
128,0.5,99,2,0.3667,0.35,0.7,128,2.6,0.38,0.1833,0.6833,5,3D1U,2,True,0.268,6,True,right,P02
129,0.5,99,1,0.2833,0.4333,0.4333,129,2.1999,0.1,0.05,0.55,5,2D1U,2,False,0.283,5,False,right,P02
130,0.5,99,1,0.2333,0.2333,0.8833,130,2.1332,-0.42,-0.2167,0.2833,5,1D2U,2,True,0.441,10,True,right,P02
131,0.5,99,1,0.2167,0.4333,0.4667,131,1.9,-0.42,-0.2167,0.2833,5,1D2U,2,True,0.739,10,True,right,P02
132,0.5,99,2,0.2333,0.35,0.4667,132,1.8667,-0.38,-0.1833,0.3167,5,1D2U,1,True,1.477,10,False,left,P02
133,0.5,99,1,0.2333,0.3667,0.85,133,2.1167,-0.66,-0.3333,0.1667,5,1D3U,2,True,0.341,7,True,right,P02
134,0.5,99,2,0.2333,0.3667,0.8333,134,2.5,0.14,0.0667,0.5667,5,2D1U,1,False,0.56,6,True,left,P02
135,0.5,99,2,0.35,0.2833,0.8833,135,2.6833,0.34,0.1667,0.6667,5,3D1U,2,True,0.451,7,True,right,P02
136,0.5,99,1,0.3,0.2333,0.7333,136,2.0833,-0.38,-0.1833,0.3167,5,1D2U,2,True,0.532,10,False,right,P02
137,0.5,99,1,0.2333,0.2667,0.6667,137,1.8334,-0.66,-0.3333,0.1667,5,1D3U,2,True,0.449,7,True,right,P02
138,0.5,99,2,0.2667,0.45,0.7333,138,2.5333,0.18,0.0833,0.5833,5,2D1U,2,True,0.617,6,False,right,P02
139,0.5,99,2,0.2667,0.3167,0.4833,139,2.2334,0.34,0.1667,0.6667,5,3D1U,2,True,0.666,7,True,right,P02
140,0.5,99,1,0.25,0.3167,0.6667,140,2.0667,-0.34,-0.1667,0.3333,5,1D2U,2,True,0.783,10,False,right,P02
141,0.5,99,1,0.45,0.2,0.5667,141,1.9,-0.62,-0.3167,0.1833,5,1D3U,2,True,1.133,8,True,right,P02
142,0.5,99,2,0.2,0.3,0.6333,142,2.3,0.34,0.1667,0.6667,5,3D1U,2,True,0.808,7,True,right,P02
143,0.5,99,1,0.3667,0.3667,0.5833,143,2.4667,0.3,0.15,0.65,5,3D1U,2,False,0.484,7,False,right,P02
144,0.5,99,2,0.4333,0.2167,0.5333,144,1.8666,-0.62,-0.3167,0.1833,5,1D3U,1,True,1.067,8,True,left,P02
145,0.5,99,2,0.45,0.3167,0.4333,145,1.8833,-0.62,-0.3167,0.1833,5,1D3U,1,True,0.951,8,True,left,P02
146,0.5,99,2,0.45,0.2833,0.7667,146,2.5833,0.18,0.0833,0.5833,5,2D1U,2,True,0.433,6,False,right,P02
147,0.5,99,2,0.4333,0.4,0.5333,147,2.4333,0.14,0.0667,0.5667,5,2D1U,1,False,0.465,7,True,left,P02
148,0.5,99,2,0.3,0.2833,0.7,148,2.0,-0.58,-0.2833,0.2167,5,1D3U,1,True,0.459,8,False,left,P02
149,0.5,99,2,0.2,0.3667,0.5,149,2.2334,0.34,0.1667,0.6667,5,3D1U,2,True,0.283,8,True,right,P02
150,0.5,99,1,0.2667,0.3833,0.4167,150,2.2334,0.34,0.1667,0.6667,5,3D1U,1,True,0.359,8,True,left,P02
151,0.5,99,2,0.3,0.4,0.8333,151,2.6166,0.18,0.0833,0.5833,5,2D1U,2,True,0.383,8,True,right,P02
152,0.5,99,2,0.2667,0.3833,0.8,152,2.5333,0.18,0.0833,0.5833,5,2D1U,2,True,0.383,8,True,right,P02
153,0.5,99,1,0.2667,0.2167,0.6333,153,2.1834,0.14,0.0667,0.5667,5,2D1U,1,True,0.706,9,True,left,P02
0,0.5,99,2,0.4167,0.2167,0.45,0,1.7501,-0.65,-0.3333,0.1667,5,3U1D,1,True,0.645,0,False,left,P03
1,0.5,99,2,0.2167,0.4167,0.85,1,2.8167,0.65,0.3333,0.8333,5,3D1U,2,True,0.399,0,False,right,P03
2,0.5,99,2,0.4167,0.4,0.5833,2,2.7333,0.65,0.3333,0.8333,5,3D1U,2,True,0.425,0,False,right,P03
3,0.5,99,2,0.4,0.4,0.85,3,2.3167,-0.65,-0.3333,0.1667,5,2U1D,1,True,0.383,0,False,left,P03
4,0.5,99,2,0.3667,0.45,0.6667,4,2.0834,-0.8,-0.4,0.1,5,lapse_rate,1,True,0.392,0,False,left,P03
5,0.5,99,2,0.3667,0.3833,0.4167,5,1.8334,-0.65,-0.3333,0.1667,5,3U1D,1,True,0.308,0,False,left,P03
6,0.5,99,1,0.35,0.3,0.5,6,2.4833,0.65,0.3333,0.8333,5,2D1U,2,False,0.55,0,False,right,P03
7,0.5,99,1,0.2833,0.25,0.6667,7,2.6,0.8,0.4,0.9,5,lapse_rate,2,False,0.426,0,False,right,P03
8,0.5,99,2,0.35,0.2333,0.55,8,2.4666,0.65,0.3333,0.8333,5,3D1U,2,True,0.4,0,False,right,P03
9,0.5,99,1,0.3667,0.3333,0.8333,9,2.2,-0.65,-0.3333,0.1667,5,3U1D,2,True,0.391,0,False,right,P03
10,0.5,99,1,0.3333,0.35,0.5333,10,1.8833,-0.65,-0.3333,0.1667,5,2U1D,2,True,0.434,0,False,right,P03
11,0.5,99,1,0.4,0.3833,0.6,11,2.75,0.75,0.3667,0.8667,5,2D1U,1,True,0.3,0,False,left,P03
12,0.5,99,1,0.3167,0.3,0.6,12,1.9334,-0.55,-0.2667,0.2167,5,2U1D,2,True,0.459,0,False,right,P03
13,0.5,99,2,0.25,0.3833,0.5833,13,2.5833,0.75,0.3667,0.8667,5,2D1U,2,True,0.317,0,False,right,P03
14,0.5,99,2,0.3333,0.4333,0.8167,14,2.9833,0.8,0.4,0.9,5,lapse_rate,1,False,17.6,0,False,left,P03
15,0.5,99,1,0.2667,0.3667,0.7333,15,2.6334,0.55,0.2667,0.7667,5,3D1U,2,False,0.542,0,False,right,P03
16,0.5,99,2,0.2333,0.4,0.65,16,2.0,-0.55,-0.2667,0.2167,5,3U1D,1,True,0.483,0,False,left,P03
17,0.5,99,2,0.3,0.3333,0.8167,17,2.1667,-0.55,-0.2667,0.2167,5,3U1D,1,True,0.467,0,False,left,P03
18,0.5,99,1,0.4,0.4333,0.5833,18,2.1333,-0.55,-0.2667,0.2167,5,2U1D,2,True,0.342,0,False,right,P03
19,0.5,99,2,0.3,0.3333,0.8167,19,2.85,0.8,0.4,0.9,5,lapse_rate,2,True,0.401,0,False,right,P03
20,0.5,99,2,0.4,0.3333,0.4167,20,2.45,0.61,0.3,0.8,5,3D1U,2,True,0.443,1,True,right,P03
21,0.5,99,1,0.2667,0.3667,0.4833,21,2.4667,0.69,0.35,0.85,5,2D1U,1,True,0.376,1,True,left,P03
22,0.5,99,1,0.4167,0.2833,0.45,22,2.55,0.8,0.4,0.9,5,lapse_rate,1,True,0.433,0,False,left,P03
23,0.5,99,2,0.2667,0.4167,0.6667,23,2.0668,-0.55,-0.2667,0.2167,5,3U1D,1,True,0.475,0,False,left,P03
24,0.5,99,1,0.3833,0.3333,0.4667,24,1.95,-0.45,-0.2333,0.2667,5,2U1D,2,True,0.475,0,False,right,P03
25,0.5,99,1,0.4333,0.2833,0.6333,25,2.6499,0.61,0.3,0.8,5,3D1U,1,True,0.416,1,True,left,P03
26,0.5,99,1,0.4167,0.4167,0.65,26,2.8334,0.69,0.35,0.85,5,2D1U,1,True,0.483,1,True,left,P03
27,0.5,99,2,0.2167,0.4167,0.6167,27,2.5501,0.61,0.3,0.8,5,3D1U,2,True,0.391,1,True,right,P03
28,0.5,99,2,0.2167,0.25,0.8167,28,2.0501,-0.45,-0.2333,0.2667,5,2U1D,1,True,0.491,0,False,left,P03
29,0.5,99,2,0.4167,0.2667,0.7,29,2.1501,-0.45,-0.2333,0.2667,5,3U1D,1,True,0.416,0,False,left,P03
30,0.5,99,1,0.4333,0.3,0.6167,30,2.6667,0.63,0.3167,0.8167,5,2D1U,1,True,0.292,1,False,left,P03
31,0.5,99,1,0.2667,0.3333,0.5,31,1.7,-0.8,-0.4,0.1,5,lapse_rate,2,True,0.358,0,False,right,P03
32,0.5,99,2,0.2333,0.2833,0.8167,32,2.1666,-0.35,-0.1667,0.3333,5,2U1D,1,True,0.483,0,False,left,P03
33,0.5,99,2,0.3333,0.3833,0.6333,33,2.1166,-0.45,-0.2333,0.2667,5,3U1D,1,True,0.408,0,False,left,P03
34,0.5,99,1,0.35,0.3333,0.7333,34,2.7333,0.63,0.3167,0.8167,5,2D1U,1,True,0.326,1,False,left,P03
35,0.5,99,2,0.4167,0.2667,0.7333,35,2.7,0.574,0.2833,0.7833,5,3D1U,2,True,0.433,2,True,right,P03
36,0.5,99,2,0.3833,0.4333,0.8833,36,2.2999,-0.8,-0.4,0.1,5,lapse_rate,1,True,0.45,0,False,left,P03
37,0.5,99,2,0.3667,0.3167,0.55,37,2.0001,-0.45,-0.2333,0.2667,5,3U1D,1,True,0.442,0,False,left,P03
38,0.5,99,2,0.3333,0.35,0.7333,38,2.6999,0.57,0.2833,0.7833,5,2D1U,2,True,0.384,1,False,right,P03
39,0.5,99,1,0.4333,0.3333,0.6667,39,2.0333,-0.8,-0.4,0.1,5,lapse_rate,2,True,0.408,0,False,right,P03
40,0.5,99,1,0.2667,0.25,0.5167,40,1.8667,-0.35,-0.1667,0.3333,5,2U1D,2,True,0.442,0,False,right,P03
41,0.5,99,1,0.4167,0.3333,0.7833,41,2.8166,0.574,0.2833,0.7833,5,3D1U,1,True,0.458,2,True,left,P03
42,0.5,99,2,0.2333,0.4,0.75,42,1.9833,-0.8,-0.4,0.1,5,lapse_rate,1,True,0.557,0,False,left,P03
43,0.5,99,1,0.2833,0.25,0.5,43,2.3166,0.574,0.2833,0.7833,5,3D1U,1,True,0.434,2,True,left,P03
44,0.5,99,1,0.3167,0.25,0.4167,44,1.8501,-0.25,-0.1333,0.3667,5,2U1D,2,True,0.442,0,False,right,P03
45,0.5,99,2,0.3333,0.2333,0.4167,45,1.8166,-0.35,-0.1667,0.3333,5,3U1D,1,True,0.425,0,False,left,P03
46,0.5,99,1,0.2667,0.3333,0.85,46,2.7333,0.57,0.2833,0.7833,5,2D1U,1,True,0.4,1,False,left,P03
47,0.5,99,2,0.4167,0.3667,0.6833,47,2.7167,0.51,0.25,0.75,5,2D1U,2,True,0.39,1,False,right,P03
48,0.5,99,1,0.4333,0.35,0.6333,48,2.8166,0.8,0.4,0.9,5,lapse_rate,1,True,0.491,0,False,left,P03
49,0.5,99,1,0.3667,0.3,0.4833,49,1.9833,-0.35,-0.1667,0.3333,5,3U1D,1,False,0.483,0,False,left,P03
50,0.5,99,2,0.3667,0.45,0.8,50,2.8834,0.538,0.2667,0.7667,5,3D1U,2,True,0.533,2,False,right,P03
51,0.5,99,1,0.3833,0.35,0.6667,51,2.2667,-0.25,-0.1333,0.3667,5,2U1D,2,True,0.716,0,False,right,P03
52,0.5,99,1,0.2667,0.2667,0.6667,52,2.1334,-0.15,-0.0667,0.4333,5,2U1D,2,True,0.575,0,False,right,P03
53,0.5,99,1,0.2333,0.3667,0.75,53,2.6167,0.538,0.2667,0.7667,5,3D1U,1,True,0.284,2,False,left,P03
54,0.5,99,2,0.2,0.45,0.45,54,1.7,-0.8,-0.4,0.1,5,lapse_rate,1,True,0.433,0,False,left,P03
55,0.5,99,2,0.4333,0.3,0.55,55,2.0833,-0.41,-0.2,0.3,5,3U1D,1,True,0.417,1,True,left,P03
56,0.5,99,1,0.3167,0.2,0.6333,56,2.4,0.51,0.25,0.75,5,2D1U,1,True,0.425,1,False,left,P03
57,0.5,99,1,0.45,0.4333,0.7167,57,2.8667,0.538,0.2667,0.7667,5,3D1U,2,False,0.499,2,False,right,P03
58,0.5,99,1,0.4167,0.2167,0.4667,58,1.9001,-0.41,-0.2,0.3,5,3U1D,2,True,0.541,1,True,right,P03
59,0.5,99,1,0.4167,0.3,0.7,59,2.8167,0.8,0.4,0.9,5,lapse_rate,1,True,0.383,0,False,left,P03
60,0.5,99,1,0.2667,0.35,0.7333,60,2.5833,0.45,0.2333,0.7333,5,2D1U,1,True,0.391,1,False,left,P03
61,0.5,99,2,0.3333,0.4167,0.4833,61,2.1666,-0.15,-0.0667,0.4333,5,2U1D,1,True,0.2,0,False,left,P03
62,0.5,99,2,0.3833,0.4333,0.85,62,2.9499,0.574,0.2833,0.7833,5,3D1U,2,True,0.282,3,True,right,P03
63,0.5,99,1,0.25,0.2333,0.5833,63,2.0333,-0.05,-0.0333,0.4667,5,2U1D,2,True,0.492,0,False,right,P03
64,0.5,99,2,0.25,0.4167,0.6167,64,2.5167,0.45,0.2333,0.7333,5,2D1U,2,True,0.366,1,False,right,P03
65,0.5,99,2,0.2167,0.2333,0.4333,65,1.6833,-0.41,-0.2,0.3,5,3U1D,1,True,0.65,1,True,left,P03
66,0.5,99,1,0.3167,0.2833,0.7,66,1.9,-0.8,-0.4,0.1,5,lapse_rate,2,True,0.367,0,False,right,P03
67,0.5,99,2,0.2667,0.3667,0.5167,67,1.9668,-0.374,-0.1833,0.3167,5,3U1D,2,False,0.392,2,True,right,P03
68,0.5,99,2,0.2333,0.2333,0.4833,68,2.3499,0.8,0.4,0.9,5,lapse_rate,2,True,0.426,0,False,right,P03
69,0.5,99,1,0.3167,0.4167,0.8833,69,2.8167,0.39,0.2,0.7,5,2D1U,1,True,0.41,1,False,left,P03
70,0.5,99,2,0.2167,0.3667,0.4667,70,2.3334,0.574,0.2833,0.7833,5,3D1U,2,True,0.367,3,True,right,P03
71,0.5,99,2,0.2167,0.3,0.8667,71,2.3501,-0.05,-0.0333,0.4667,5,2U1D,2,False,0.517,0,False,right,P03
72,0.5,99,2,0.2667,0.3167,0.9,72,2.4334,-0.11,-0.05,0.45,5,2U1D,2,False,0.425,1,True,right,P03
73,0.5,99,1,0.25,0.4,0.7833,73,2.2333,-0.41,-0.2,0.3,5,3U1D,1,False,0.425,3,True,left,P03
74,0.5,99,1,0.3,0.2833,0.7667,74,2.55,0.39,0.2,0.7,5,2D1U,1,True,0.409,1,False,left,P03
75,0.5,99,2,0.2333,0.35,0.5167,75,2.2667,0.33,0.1667,0.6667,5,2D1U,2,True,0.425,1,False,right,P03
76,0.5,99,2,0.3667,0.3167,0.7333,76,2.7,0.574,0.2833,0.7833,5,3D1U,2,True,0.485,3,True,right,P03
77,0.5,99,2,0.4333,0.3833,0.6167,77,2.7,0.538,0.2667,0.7667,5,3D1U,2,True,0.417,4,True,right,P03
78,0.5,99,2,0.4333,0.4167,0.8833,78,2.9,0.33,0.1667,0.6667,5,2D1U,2,True,0.384,1,False,right,P03
79,0.5,99,2,0.3167,0.2833,0.7167,79,2.2334,-0.17,-0.0833,0.4167,5,2U1D,1,True,0.475,1,False,left,P03
80,0.5,99,2,0.4333,0.3167,0.5667,80,2.1,-0.446,-0.2167,0.2833,5,3U1D,1,True,0.475,3,False,left,P03
81,0.5,99,1,0.2667,0.4333,0.8667,81,2.8334,0.538,0.2667,0.7667,5,3D1U,2,False,0.408,4,True,right,P03
82,0.5,99,1,0.25,0.35,0.5667,82,2.3,0.27,0.1333,0.6333,5,2D1U,1,True,0.45,1,False,left,P03
83,0.5,99,1,0.25,0.4167,0.7833,83,2.2333,-0.446,-0.2167,0.2833,5,3U1D,2,True,0.368,3,False,right,P03
84,0.5,99,1,0.2333,0.4333,0.8667,84,2.3166,-0.446,-0.2167,0.2833,5,3U1D,2,True,0.392,3,False,right,P03
85,0.5,99,2,0.2833,0.2333,0.7333,85,2.5332,0.574,0.2833,0.7833,5,3D1U,2,True,0.434,5,True,right,P03
86,0.5,99,1,0.4,0.45,0.5167,86,2.2834,-0.17,-0.0833,0.4167,5,2U1D,2,True,0.483,1,False,right,P03
87,0.5,99,2,0.3,0.35,0.45,87,2.2333,0.27,0.1333,0.6333,5,2D1U,2,True,0.442,1,False,right,P03
88,0.5,99,2,0.2167,0.3167,0.6833,88,2.3167,0.21,0.1,0.6,5,2D1U,1,False,0.408,1,False,left,P03
89,0.5,99,1,0.2333,0.3333,0.6333,89,2.4832,0.574,0.2833,0.7833,5,3D1U,1,True,0.325,5,True,left,P03
90,0.5,99,1,0.2667,0.4167,0.45,90,1.9334,-0.41,-0.2,0.3,5,3U1D,1,False,0.551,4,True,left,P03
91,0.5,99,1,0.2667,0.2667,0.6167,91,2.0834,-0.134,-0.0667,0.4333,5,2U1D,2,True,0.476,2,True,right,P03
92,0.5,99,1,0.3167,0.2333,0.8,92,2.6333,0.574,0.2833,0.7833,5,3D1U,2,False,0.475,5,True,right,P03
93,0.5,99,1,0.3667,0.3333,0.5,93,1.9833,-0.446,-0.2167,0.2833,5,3U1D,1,False,0.626,5,True,left,P03
94,0.5,99,1,0.4,0.2667,0.6167,94,2.4001,0.246,0.1167,0.6167,5,2D1U,1,True,0.491,2,True,left,P03
95,0.5,99,2,0.2167,0.4167,0.8167,95,2.3834,-0.134,-0.0667,0.4333,5,2U1D,2,False,0.392,2,True,right,P03
96,0.5,99,2,0.35,0.3667,0.8333,96,2.4667,-0.17,-0.0833,0.4167,5,2U1D,1,True,0.333,3,True,left,P03
97,0.5,99,2,0.25,0.3667,0.4167,97,2.1501,0.246,0.1167,0.6167,5,2D1U,1,False,0.324,2,True,left,P03
98,0.5,99,2,0.3667,0.3833,0.5833,98,2.25,-0.17,-0.0833,0.4167,5,2U1D,1,True,0.433,3,True,left,P03
99,0.5,99,1,0.3667,0.2333,0.6667,99,2.5667,0.61,0.3,0.8,5,3D1U,1,True,0.425,5,False,left,P03
100,0.5,99,2,0.45,0.25,0.6167,100,2.0834,-0.482,-0.2333,0.2667,5,3U1D,1,True,0.458,5,False,left,P03
101,0.5,99,2,0.3333,0.4,0.65,101,2.15,-0.482,-0.2333,0.2667,5,3U1D,1,True,0.358,5,False,left,P03
102,0.5,99,2,0.4,0.2167,0.65,102,2.2,-0.134,-0.0667,0.4333,5,2U1D,1,True,0.708,4,True,left,P03
103,0.5,99,2,0.25,0.3167,0.4167,103,2.2834,0.61,0.3,0.8,5,3D1U,1,False,2.034,5,False,left,P03
104,0.5,99,1,0.35,0.3333,0.65,104,2.4666,0.282,0.1333,0.6333,5,2D1U,1,True,0.45,2,False,left,P03
105,0.5,99,1,0.2667,0.4,0.5833,105,2.0167,-0.482,-0.2333,0.2667,5,3U1D,2,True,0.392,5,False,right,P03
106,0.5,99,2,0.25,0.3,0.8333,106,2.3166,-0.134,-0.0667,0.4333,5,2U1D,2,False,0.442,4,True,right,P03
107,0.5,99,1,0.3167,0.3333,0.85,107,2.8167,0.646,0.3167,0.8167,5,3D1U,1,True,0.525,5,False,left,P03
108,0.5,99,2,0.25,0.2333,0.7667,108,2.0333,-0.446,-0.2167,0.2833,5,3U1D,1,True,0.534,6,True,left,P03
109,0.5,99,2,0.2167,0.4,0.7,109,2.45,0.282,0.1333,0.6333,5,2D1U,2,True,0.375,2,False,right,P03
110,0.5,99,1,0.35,0.2333,0.65,110,2.15,-0.17,-0.0833,0.4167,5,2U1D,2,True,0.492,5,True,right,P03
111,0.5,99,2,0.35,0.4333,0.7667,111,2.8667,0.646,0.3167,0.8167,5,3D1U,2,True,0.383,5,False,right,P03
112,0.5,99,1,0.35,0.35,0.6167,112,2.2334,-0.17,-0.0833,0.4167,5,2U1D,1,False,0.542,5,True,left,P03
113,0.5,99,2,0.4,0.45,0.6333,113,2.6,0.246,0.1167,0.6167,5,2D1U,2,True,0.308,3,True,right,P03
114,0.5,99,1,0.3167,0.2167,0.6167,114,2.4668,0.646,0.3167,0.8167,5,3D1U,2,False,0.442,5,False,right,P03
115,0.5,99,1,0.3833,0.3333,0.7667,115,2.2666,-0.446,-0.2167,0.2833,5,3U1D,2,True,0.392,6,True,right,P03
116,0.5,99,2,0.4333,0.4167,0.6,116,2.35,-0.206,-0.1,0.4,5,2U1D,1,True,0.533,5,False,left,P03
117,0.5,99,2,0.3,0.2167,0.6,117,2.2334,0.246,0.1167,0.6167,5,2D1U,2,True,0.343,3,True,right,P03
118,0.5,99,2,0.3833,0.3333,0.6167,118,2.6666,0.682,0.3333,0.8333,5,3D1U,2,True,0.449,5,False,right,P03
119,0.5,99,1,0.25,0.2833,0.6167,119,2.4833,0.682,0.3333,0.8333,5,3D1U,1,True,0.442,5,False,left,P03
120,0.5,99,2,0.3667,0.2333,0.7833,120,2.1666,-0.446,-0.2167,0.2833,5,3U1D,1,True,0.491,6,True,left,P03
121,0.5,99,1,0.4,0.3333,0.5833,121,2.2166,-0.206,-0.1,0.4,5,2U1D,2,True,0.592,5,False,right,P03
122,0.5,99,2,0.2667,0.2,0.8667,122,2.1334,-0.41,-0.2,0.3,5,3U1D,1,True,0.458,6,False,left,P03
123,0.5,99,1,0.2167,0.2667,0.6333,123,2.45,0.682,0.3333,0.8333,5,3D1U,1,True,0.35,5,False,left,P03
124,0.5,99,1,0.35,0.3,0.6167,124,2.3667,0.21,0.1,0.6,5,2D1U,2,False,0.442,3,False,right,P03
125,0.5,99,1,0.25,0.35,0.8667,125,2.3834,-0.17,-0.0833,0.4167,5,2U1D,2,True,0.442,6,True,right,P03
126,0.5,99,2,0.3833,0.3667,0.5,126,2.1667,-0.17,-0.0833,0.4167,5,2U1D,1,True,0.507,6,True,left,P03
127,0.5,99,2,0.35,0.4167,0.5167,127,2.0834,-0.41,-0.2,0.3,5,3U1D,1,True,0.391,6,False,left,P03
128,0.5,99,1,0.35,0.3833,0.4,128,1.9333,-0.41,-0.2,0.3,5,3U1D,1,False,0.383,6,False,left,P03
129,0.5,99,1,0.2833,0.4,0.5333,129,2.5333,0.646,0.3167,0.8167,5,3D1U,1,True,0.342,6,True,left,P03
130,0.5,99,1,0.3333,0.2667,0.8667,130,2.4,-0.134,-0.0667,0.4333,5,2U1D,1,False,0.625,6,False,left,P03
131,0.5,99,1,0.3667,0.45,0.7833,131,2.7167,0.246,0.1167,0.6167,5,2D1U,2,False,0.359,4,True,right,P03
132,0.5,99,1,0.2833,0.3833,0.4667,132,2.2666,0.282,0.1333,0.6333,5,2D1U,1,True,0.442,4,False,left,P03
133,0.5,99,2,0.45,0.2833,0.4333,133,1.9499,-0.446,-0.2167,0.2833,5,3U1D,1,True,0.442,7,True,left,P03
134,0.5,99,2,0.3833,0.25,0.5167,134,2.0667,-0.17,-0.0833,0.4167,5,2U1D,2,False,0.459,7,True,right,P03
135,0.5,99,2,0.2833,0.2667,0.5167,135,2.3834,0.646,0.3167,0.8167,5,3D1U,2,True,0.483,6,True,right,P03
136,0.5,99,1,0.45,0.25,0.45,136,2.4667,0.646,0.3167,0.8167,5,3D1U,1,True,0.499,6,True,left,P03
137,0.5,99,1,0.2667,0.4,0.6667,137,2.2334,-0.206,-0.1,0.4,5,2U1D,2,True,0.392,7,False,right,P03
138,0.5,99,2,0.3333,0.3333,0.4167,138,1.8666,-0.446,-0.2167,0.2833,5,3U1D,1,True,0.583,7,True,left,P03
139,0.5,99,1,0.3667,0.3667,0.6667,139,2.5334,0.282,0.1333,0.6333,5,2D1U,2,False,0.384,4,False,right,P03
140,0.5,99,2,0.3333,0.2167,0.8667,140,2.7167,0.61,0.3,0.8,5,3D1U,2,True,0.359,6,False,right,P03
141,0.5,99,1,0.3,0.2333,0.8833,141,2.3166,-0.206,-0.1,0.4,5,2U1D,2,True,0.493,7,False,right,P03
142,0.5,99,2,0.2333,0.2333,0.8333,142,2.5999,0.61,0.3,0.8,5,3D1U,2,True,0.484,6,False,right,P03
143,0.5,99,1,0.3,0.3333,0.4167,143,1.8333,-0.446,-0.2167,0.2833,5,3U1D,1,False,0.475,7,True,left,P03
144,0.5,99,1,0.4,0.2167,0.5333,144,2.0667,-0.17,-0.0833,0.4167,5,2U1D,2,True,0.518,8,True,right,P03
145,0.5,99,2,0.35,0.3667,0.4333,145,2.0667,-0.17,-0.0833,0.4167,5,2U1D,1,True,0.425,8,True,left,P03
146,0.5,99,2,0.3667,0.45,0.8333,146,2.8167,0.318,0.1667,0.6667,5,2D1U,2,True,0.258,4,False,right,P03
147,0.5,99,2,0.2333,0.3833,0.7833,147,2.1666,-0.482,-0.2333,0.2667,5,3U1D,1,True,0.417,7,False,left,P03
148,0.5,99,1,0.35,0.3833,0.45,148,2.35,0.318,0.1667,0.6667,5,2D1U,1,True,0.375,4,False,left,P03
149,0.5,99,1,0.2833,0.45,0.8833,149,2.9166,0.61,0.3,0.8,5,3D1U,2,False,0.475,6,False,right,P03
150,0.5,99,2,0.3333,0.2667,0.8333,150,2.2,-0.482,-0.2333,0.2667,5,3U1D,1,True,0.508,7,False,left,P03
151,0.5,99,1,0.2833,0.25,0.4167,151,2.0833,0.282,0.1333,0.6333,5,2D1U,1,True,0.725,5,True,left,P03
152,0.5,99,1,0.3833,0.25,0.55,152,2.3166,0.282,0.1333,0.6333,5,2D1U,1,True,0.392,5,True,left,P03
153,0.5,99,1,0.4,0.4,0.7667,153,2.6834,0.246,0.1167,0.6167,5,2D1U,2,False,0.342,5,False,right,P03
0,0.5,99,1,0.3167,0.3167,0.8167,0,2.8501,0.8,0.4,0.9,5,lapse_rate,1,True,0.385,0,False,left,P04
1,0.5,99,2,0.3167,0.3333,0.4167,1,2.4,0.65,0.3333,0.8333,5,3D1U,2,True,0.183,0,False,right,P04
2,0.5,99,1,0.4,0.2833,0.4667,2,1.8167,-0.65,-0.3333,0.1667,5,2U1D,2,True,0.266,0,False,right,P04
3,0.5,99,1,0.3167,0.35,0.75,3,2.75,0.65,0.3333,0.8333,5,2D1U,2,False,0.374,0,False,right,P04
4,0.5,99,1,0.4333,0.2333,0.4,4,1.7333,-0.65,-0.3333,0.1667,5,3U1D,2,True,0.408,0,False,right,P04
5,0.5,99,2,0.2833,0.2333,0.6167,5,2.4666,0.65,0.3333,0.8333,5,3D1U,2,True,0.359,0,False,right,P04
6,0.5,99,2,0.3,0.3167,0.4667,6,1.6834,-0.8,-0.4,0.1,5,lapse_rate,1,True,0.45,0,False,left,P04
7,0.5,99,2,0.2333,0.2333,0.7167,7,1.7833,-0.8,-0.4,0.1,5,lapse_rate,1,True,0.449,0,False,left,P04
8,0.5,99,2,0.2333,0.3667,0.7333,8,2.0,-0.65,-0.3333,0.1667,5,3U1D,1,True,0.391,0,False,left,P04
9,0.5,99,1,0.4,0.2333,0.4333,9,2.4333,0.75,0.3667,0.8667,5,2D1U,1,True,0.334,0,False,left,P04
10,0.5,99,1,0.35,0.3833,0.8,10,2.2,-0.65,-0.3333,0.1667,5,2U1D,2,True,0.166,0,False,right,P04
11,0.5,99,1,0.3833,0.3833,0.8667,11,2.9666,0.65,0.3333,0.8333,5,3D1U,1,True,0.458,0,False,left,P04
12,0.5,99,2,0.2167,0.3833,0.7333,12,2.6,0.55,0.2667,0.7667,5,3D1U,2,True,1.249,0,False,right,P04
13,0.5,99,1,0.3833,0.25,0.8667,13,2.1667,-0.65,-0.3333,0.1667,5,3U1D,2,True,0.25,0,False,right,P04
14,0.5,99,2,0.3667,0.25,0.7167,14,2.0501,-0.55,-0.2667,0.2167,5,2U1D,1,True,0.548,0,False,left,P04
15,0.5,99,1,0.3667,0.3333,0.65,15,1.95,-0.8,-0.4,0.1,5,lapse_rate,2,True,0.233,0,False,right,P04
16,0.5,99,2,0.35,0.2667,0.5833,16,2.5667,0.75,0.3667,0.8667,5,2D1U,2,True,0.167,0,False,right,P04
17,0.5,99,2,0.4167,0.3167,0.5,17,1.9501,-0.55,-0.2667,0.2167,5,3U1D,1,True,0.85,0,False,left,P04
18,0.5,99,2,0.4,0.2833,0.6,18,2.6333,0.69,0.35,0.85,5,2D1U,2,True,0.308,1,True,right,P04
19,0.5,99,2,0.4167,0.3167,0.5167,19,1.9668,-0.55,-0.2667,0.2167,5,2U1D,1,True,0.434,0,False,left,P04
20,0.5,99,2,0.4,0.45,0.6333,20,2.8833,0.8,0.4,0.9,5,lapse_rate,2,True,0.166,0,False,right,P04
21,0.5,99,1,0.4333,0.35,0.6,21,2.65,0.55,0.2667,0.7667,5,3D1U,2,False,0.367,0,False,right,P04
22,0.5,99,1,0.4,0.4,0.5833,22,2.7333,0.69,0.35,0.85,5,2D1U,2,False,1.167,1,True,right,P04
23,0.5,99,1,0.3,0.45,0.7167,23,2.2334,-0.45,-0.2333,0.2667,5,2U1D,2,True,0.16,0,False,right,P04
24,0.5,99,2,0.3333,0.2833,0.5333,24,2.5499,0.8,0.4,0.9,5,lapse_rate,2,True,0.167,0,False,right,P04
25,0.5,99,2,0.3833,0.3167,0.7167,25,2.1334,-0.55,-0.2667,0.2167,5,3U1D,1,True,0.401,0,False,left,P04
26,0.5,99,2,0.2833,0.2167,0.4333,26,2.2333,0.61,0.3,0.8,5,3D1U,2,True,0.242,1,True,right,P04
27,0.5,99,1,0.4,0.3833,0.5333,27,2.0333,-0.55,-0.2667,0.2167,5,3U1D,2,True,0.165,0,False,right,P04
28,0.5,99,2,0.2,0.2167,0.8,28,1.8167,-0.8,-0.4,0.1,5,lapse_rate,1,True,0.409,0,False,left,P04
29,0.5,99,2,0.3167,0.4,0.6333,29,2.1167,-0.45,-0.2333,0.2667,5,2U1D,1,True,0.291,0,False,left,P04
30,0.5,99,2,0.4,0.4167,0.6,30,2.7834,0.726,0.3667,0.8667,5,2D1U,2,True,0.167,2,True,right,P04
31,0.5,99,1,0.3833,0.2667,0.8333,31,2.7833,0.61,0.3,0.8,5,3D1U,1,True,0.577,1,True,left,P04
32,0.5,99,2,0.3833,0.25,0.6667,32,2.0667,-0.45,-0.2333,0.2667,5,3U1D,1,True,0.417,0,False,left,P04
33,0.5,99,1,0.4167,0.4,0.6167,33,2.2667,-0.35,-0.1667,0.3333,5,2U1D,2,True,0.157,0,False,right,P04
34,0.5,99,1,0.4167,0.25,0.85,34,2.8167,0.61,0.3,0.8,5,3D1U,1,True,0.275,1,True,left,P04
35,0.5,99,1,0.45,0.4,0.5,35,2.7167,0.726,0.3667,0.8667,5,2D1U,1,True,0.21,2,True,left,P04
36,0.5,99,2,0.2833,0.3,0.7333,36,1.9166,-0.8,-0.4,0.1,5,lapse_rate,1,True,0.449,0,False,left,P04
37,0.5,99,2,0.3,0.2167,0.85,37,2.2,-0.35,-0.1667,0.3333,5,2U1D,1,True,0.432,0,False,left,P04
38,0.5,99,1,0.2667,0.2167,0.9,38,2.1501,-0.45,-0.2333,0.2667,5,3U1D,2,True,1.526,0,False,right,P04
39,0.5,99,1,0.4333,0.2333,0.5333,39,2.5499,0.69,0.35,0.85,5,2D1U,1,True,0.367,3,True,left,P04
40,0.5,99,2,0.3333,0.3667,0.4167,40,1.7167,-0.8,-0.4,0.1,5,lapse_rate,1,True,0.526,0,False,left,P04
41,0.5,99,1,0.35,0.3167,0.5,41,2.45,0.574,0.2833,0.7833,5,3D1U,1,True,0.233,2,True,left,P04
42,0.5,99,2,0.2833,0.3167,0.6,42,1.9667,-0.45,-0.2333,0.2667,5,3U1D,1,True,0.375,0,False,left,P04
43,0.5,99,1,0.3,0.2667,0.4167,43,1.8501,-0.25,-0.1333,0.3667,5,2U1D,1,False,0.382,0,False,left,P04
44,0.5,99,1,0.4167,0.2833,0.8333,44,2.8833,0.69,0.35,0.85,5,2D1U,1,True,0.167,3,True,left,P04
45,0.5,99,1,0.25,0.35,0.8167,45,2.7,0.574,0.2833,0.7833,5,3D1U,1,True,0.308,2,True,left,P04
46,0.5,99,2,0.3333,0.2833,0.8167,46,2.0333,-0.8,-0.4,0.1,5,lapse_rate,1,True,0.616,0,False,left,P04
47,0.5,99,1,0.2833,0.25,0.6833,47,2.0499,-0.35,-0.1667,0.3333,5,3U1D,2,True,0.492,0,False,right,P04
48,0.5,99,1,0.2333,0.3333,0.5667,48,2.4166,0.574,0.2833,0.7833,5,3D1U,1,True,0.283,2,True,left,P04
49,0.5,99,2,0.25,0.2833,0.5667,49,2.5,0.8,0.4,0.9,5,lapse_rate,2,True,0.25,0,False,right,P04
50,0.5,99,2,0.2167,0.3,0.65,50,2.5,0.654,0.3333,0.8333,5,2D1U,2,True,0.267,3,False,right,P04
51,0.5,99,2,0.2333,0.25,0.9,51,2.2333,-0.31,-0.15,0.35,5,2U1D,1,True,0.417,1,True,left,P04
52,0.5,99,2,0.45,0.3333,0.8333,52,2.9499,0.654,0.3333,0.8333,5,2D1U,2,True,0.235,3,False,right,P04
53,0.5,99,1,0.2,0.25,0.5667,53,2.2834,0.538,0.2667,0.7667,5,3D1U,1,True,0.584,2,False,left,P04
54,0.5,99,1,0.2,0.4333,0.7667,54,2.8,0.8,0.4,0.9,5,lapse_rate,1,True,0.349,0,False,left,P04
55,0.5,99,1,0.3,0.4333,0.65,55,2.2333,-0.31,-0.15,0.35,5,2U1D,2,True,0.191,1,True,right,P04
56,0.5,99,2,0.4,0.25,0.4,56,1.8833,-0.35,-0.1667,0.3333,5,3U1D,1,True,0.36,0,False,left,P04
57,0.5,99,2,0.45,0.3667,0.7167,57,2.8501,0.618,0.3167,0.8167,5,2D1U,2,True,4.076,3,False,right,P04
58,0.5,99,2,0.2833,0.3167,0.5667,58,2.0334,-0.274,-0.1333,0.3667,5,2U1D,1,True,0.49,2,True,left,P04
59,0.5,99,2,0.35,0.25,0.5,59,2.5,0.8,0.4,0.9,5,lapse_rate,2,True,0.266,0,False,right,P04
60,0.5,99,2,0.2167,0.4167,0.55,60,2.4501,0.538,0.2667,0.7667,5,3D1U,2,True,0.241,2,False,right,P04
61,0.5,99,1,0.3667,0.3833,0.4833,61,2.0666,-0.35,-0.1667,0.3333,5,3U1D,2,True,0.25,0,False,right,P04
62,0.5,99,2,0.3,0.4333,0.5,62,2.6333,0.8,0.4,0.9,5,lapse_rate,2,True,0.158,0,False,right,P04
63,0.5,99,1,0.2667,0.3833,0.7833,63,2.3,-0.274,-0.1333,0.3667,5,2U1D,2,True,0.192,2,True,right,P04
64,0.5,99,2,0.3833,0.3167,0.45,64,2.4667,0.618,0.3167,0.8167,5,2D1U,2,True,0.241,3,False,right,P04
65,0.5,99,1,0.3667,0.4167,0.55,65,2.6001,0.538,0.2667,0.7667,5,3D1U,2,False,1.142,2,False,right,P04
66,0.5,99,1,0.35,0.3,0.5167,66,2.0334,-0.25,-0.1333,0.3667,5,3U1D,2,True,0.326,0,False,right,P04
67,0.5,99,1,0.2333,0.2333,0.6667,67,2.0166,-0.238,-0.1167,0.3833,5,2U1D,2,True,0.258,2,False,right,P04
68,0.5,99,1,0.3667,0.2333,0.5167,68,2.4,0.574,0.2833,0.7833,5,3D1U,1,True,0.234,3,True,left,P04
69,0.5,99,1,0.4333,0.4,0.45,69,2.5666,0.582,0.2833,0.7833,5,2D1U,1,True,0.349,3,False,left,P04
70,0.5,99,1,0.25,0.3,0.8833,70,2.3,-0.25,-0.1333,0.3667,5,3U1D,2,True,0.224,0,False,right,P04
71,0.5,99,2,0.2167,0.35,0.6667,71,2.5167,0.582,0.2833,0.7833,5,2D1U,2,True,0.192,3,False,right,P04
72,0.5,99,2,0.4,0.2167,0.5167,72,2.4167,0.574,0.2833,0.7833,5,3D1U,2,True,0.258,3,True,right,P04
73,0.5,99,1,0.3167,0.2667,0.45,73,2.3167,0.574,0.2833,0.7833,5,3D1U,2,False,0.316,3,True,right,P04
74,0.5,99,2,0.2333,0.3833,0.55,74,2.4333,0.546,0.2667,0.7667,5,2D1U,2,True,0.168,3,False,right,P04
75,0.5,99,1,0.4167,0.4167,0.8833,75,2.6,-0.238,-0.1167,0.3833,5,2U1D,1,False,1.218,2,False,left,P04
76,0.5,99,2,0.2667,0.3833,0.65,76,2.1667,-0.25,-0.1333,0.3667,5,3U1D,1,True,0.358,0,False,left,P04
77,0.5,99,2,0.3167,0.3167,0.7333,77,2.6667,0.61,0.3,0.8,5,3D1U,2,True,0.179,3,False,right,P04
78,0.5,99,1,0.2333,0.25,0.4167,78,2.1667,0.546,0.2667,0.7667,5,2D1U,1,True,0.459,3,False,left,P04
79,0.5,99,1,0.2667,0.4,0.75,79,2.6667,0.51,0.25,0.75,5,2D1U,1,True,0.449,3,False,left,P04
80,0.5,99,2,0.4,0.2667,0.8833,80,2.4167,-0.274,-0.1333,0.3667,5,2U1D,1,True,0.492,3,True,left,P04
81,0.5,99,2,0.2167,0.3,0.4,81,1.85,-0.15,-0.0667,0.4333,5,3U1D,1,True,0.541,0,False,left,P04
82,0.5,99,1,0.4167,0.35,0.4167,82,2.4334,0.51,0.25,0.75,5,2D1U,1,True,0.207,3,False,left,P04
83,0.5,99,2,0.4167,0.2833,0.8,83,2.3667,-0.274,-0.1333,0.3667,5,2U1D,1,True,0.392,3,True,left,P04
84,0.5,99,2,0.4,0.3667,0.5167,84,2.1667,-0.238,-0.1167,0.3833,5,2U1D,1,True,0.442,4,True,left,P04
85,0.5,99,2,0.45,0.45,0.6833,85,2.8833,0.61,0.3,0.8,5,3D1U,2,True,0.342,3,False,right,P04
86,0.5,99,1,0.2833,0.45,0.6333,86,2.2999,-0.15,-0.0667,0.4333,5,3U1D,2,True,1.307,0,False,right,P04
87,0.5,99,2,0.4333,0.2333,0.8833,87,2.8499,0.61,0.3,0.8,5,3D1U,2,True,0.708,3,False,right,P04
88,0.5,99,2,0.2833,0.3333,0.4667,88,2.0166,-0.15,-0.0667,0.4333,5,3U1D,1,True,0.408,0,False,left,P04
89,0.5,99,1,0.4167,0.3167,0.65,89,2.6167,0.474,0.2333,0.7333,5,2D1U,1,True,0.401,3,False,left,P04
90,0.5,99,2,0.35,0.2667,0.5167,90,2.0167,-0.238,-0.1167,0.3833,5,2U1D,1,True,0.401,4,True,left,P04
91,0.5,99,1,0.3667,0.3167,0.5,91,2.4667,0.574,0.2833,0.7833,5,3D1U,1,True,0.327,4,True,left,P04
92,0.5,99,2,0.2667,0.2167,0.85,92,2.5667,0.474,0.2333,0.7333,5,2D1U,2,True,0.249,3,False,right,P04
93,0.5,99,2,0.3167,0.4333,0.8667,93,2.9,0.574,0.2833,0.7833,5,3D1U,2,True,0.167,4,True,right,P04
94,0.5,99,2,0.3167,0.3167,0.4167,94,2.0168,-0.05,-0.0333,0.4667,5,3U1D,1,True,0.458,0,False,left,P04
95,0.5,99,2,0.4167,0.3167,0.8333,95,2.4667,-0.202,-0.1,0.4,5,2U1D,2,False,0.267,4,False,right,P04
96,0.5,99,2,0.4,0.2833,0.6833,96,2.2499,-0.238,-0.1167,0.3833,5,2U1D,1,True,0.592,5,True,left,P04
97,0.5,99,1,0.2833,0.3333,0.6,97,2.4999,0.574,0.2833,0.7833,5,3D1U,1,True,0.316,4,True,left,P04
98,0.5,99,1,0.35,0.2667,0.4667,98,2.3001,0.438,0.2167,0.7167,5,2D1U,1,True,0.233,3,False,left,P04
99,0.5,99,2,0.3833,0.2167,0.8833,99,2.45,-0.05,-0.0333,0.4667,5,3U1D,2,False,1.576,0,False,right,P04
100,0.5,99,2,0.3667,0.4,0.7333,100,2.3833,-0.238,-0.1167,0.3833,5,2U1D,1,True,0.449,5,True,left,P04
101,0.5,99,1,0.4333,0.4167,0.65,101,2.7667,0.538,0.2667,0.7667,5,3D1U,1,True,0.342,4,False,left,P04
102,0.5,99,1,0.3333,0.4,0.7667,102,2.7667,0.538,0.2667,0.7667,5,3D1U,2,False,0.543,4,False,right,P04
103,0.5,99,1,0.2833,0.4333,0.4333,103,2.0999,-0.11,-0.05,0.45,5,3U1D,1,False,0.792,1,True,left,P04
104,0.5,99,1,0.3667,0.2333,0.4,104,1.9167,-0.17,-0.0833,0.4167,5,3U1D,1,False,0.417,1,False,left,P04
105,0.5,99,1,0.4,0.4333,0.4333,105,2.1666,-0.202,-0.1,0.4,5,2U1D,1,False,0.526,6,True,left,P04
106,0.5,99,1,0.3667,0.3,0.4833,106,2.3667,0.438,0.2167,0.7167,5,2D1U,1,True,0.634,3,False,left,P04
107,0.5,99,1,0.4,0.45,0.5,107,2.2333,-0.23,-0.1167,0.3833,5,3U1D,2,True,0.258,1,False,right,P04
108,0.5,99,1,0.2667,0.4333,0.6167,108,2.5167,0.402,0.2,0.7,5,2D1U,2,False,0.491,3,False,right,P04
109,0.5,99,1,0.2833,0.45,0.7333,109,2.6833,0.438,0.2167,0.7167,5,2D1U,2,False,0.383,4,True,right,P04
110,0.5,99,1,0.35,0.4167,0.45,110,2.5,0.574,0.2833,0.7833,5,3D1U,2,False,1.117,5,True,right,P04
111,0.5,99,2,0.4,0.2667,0.8,111,2.35,-0.238,-0.1167,0.3833,5,2U1D,1,True,0.491,7,True,left,P04
112,0.5,99,2,0.2333,0.2833,0.45,112,2.1999,0.474,0.2333,0.7333,5,2D1U,2,True,0.282,4,False,right,P04
113,0.5,99,2,0.45,0.3667,0.7833,113,2.8333,0.474,0.2333,0.7333,5,2D1U,2,True,0.308,4,False,right,P04
114,0.5,99,1,0.2333,0.2667,0.7167,114,2.1,-0.238,-0.1167,0.3833,5,2U1D,2,True,0.426,7,True,right,P04
115,0.5,99,2,0.3,0.2833,0.5167,115,2.4,0.61,0.3,0.8,5,3D1U,2,True,0.218,5,False,right,P04
116,0.5,99,1,0.2833,0.25,0.7667,116,2.1833,-0.23,-0.1167,0.3833,5,3U1D,2,True,0.625,1,False,right,P04
117,0.5,99,2,0.2333,0.35,0.4667,117,2.35,0.61,0.3,0.8,5,3D1U,2,True,0.283,5,False,right,P04
118,0.5,99,2,0.4167,0.3667,0.6833,118,2.3667,-0.202,-0.1,0.4,5,2U1D,2,False,0.516,8,True,right,P04
119,0.5,99,1,0.2167,0.3333,0.45,119,1.8833,-0.238,-0.1167,0.3833,5,2U1D,1,False,0.475,9,True,left,P04
120,0.5,99,2,0.3833,0.4167,0.6167,120,2.3,-0.23,-0.1167,0.3833,5,3U1D,2,False,0.367,1,False,right,P04
121,0.5,99,1,0.2,0.2833,0.55,121,2.25,0.438,0.2167,0.7167,5,2D1U,2,False,0.417,5,True,right,P04
122,0.5,99,1,0.2333,0.2,0.6333,122,1.9166,-0.29,-0.15,0.35,5,3U1D,2,True,0.275,1,False,right,P04
123,0.5,99,2,0.4167,0.3,0.9,123,2.9167,0.61,0.3,0.8,5,3D1U,1,False,0.583,5,False,left,P04
124,0.5,99,2,0.3167,0.2833,0.8,124,2.2667,-0.274,-0.1333,0.3667,5,2U1D,1,True,0.482,9,False,left,P04
125,0.5,99,2,0.4167,0.2,0.8167,125,2.3001,-0.274,-0.1333,0.3667,5,2U1D,1,True,1.84,9,False,left,P04
126,0.5,99,2,0.3667,0.3667,0.75,126,2.7167,0.474,0.2333,0.7333,5,2D1U,2,True,0.167,6,True,right,P04
127,0.5,99,2,0.3667,0.2333,0.8,127,2.7167,0.646,0.3167,0.8167,5,3D1U,2,True,0.26,5,False,right,P04
128,0.5,99,1,0.2167,0.2167,0.4333,128,2.1834,0.646,0.3167,0.8167,5,3D1U,2,False,0.325,5,False,right,P04
129,0.5,99,1,0.3167,0.3667,0.45,129,1.9834,-0.29,-0.15,0.35,5,3U1D,1,False,0.466,1,False,left,P04
130,0.5,99,2,0.4333,0.3333,0.65,130,2.2999,-0.238,-0.1167,0.3833,5,2U1D,1,True,0.424,10,True,left,P04
131,0.5,99,2,0.3667,0.4167,0.4667,131,2.4834,0.474,0.2333,0.7333,5,2D1U,2,True,0.218,6,True,right,P04
132,0.5,99,2,0.4167,0.3167,0.7667,132,2.3834,-0.238,-0.1167,0.3833,5,2U1D,1,True,0.675,10,True,left,P04
133,0.5,99,1,0.4,0.3167,0.4167,133,1.9667,-0.35,-0.1667,0.3333,5,3U1D,1,False,0.425,1,False,left,P04
134,0.5,99,2,0.3667,0.2667,0.4667,134,2.3168,0.438,0.2167,0.7167,5,2D1U,2,True,0.309,7,True,right,P04
135,0.5,99,1,0.2167,0.4,0.8167,135,2.7667,0.682,0.3333,0.8333,5,3D1U,2,False,0.367,5,False,right,P04
136,0.5,99,2,0.2833,0.3667,0.9,136,2.9167,0.718,0.3667,0.8667,5,3D1U,2,True,0.433,5,False,right,P04
137,0.5,99,2,0.2667,0.3,0.6833,137,2.05,-0.41,-0.2,0.3,5,3U1D,1,True,0.451,1,False,left,P04
138,0.5,99,2,0.3833,0.25,0.8833,138,2.4166,-0.202,-0.1,0.4,5,2U1D,2,False,0.734,10,False,right,P04
139,0.5,99,1,0.3333,0.4167,0.8833,139,3.0,0.718,0.3667,0.8667,5,3D1U,1,True,0.634,5,False,left,P04
140,0.5,99,2,0.3833,0.2667,0.6667,140,2.5334,0.438,0.2167,0.7167,5,2D1U,2,True,0.257,7,True,right,P04
141,0.5,99,2,0.3833,0.4,0.65,141,2.6333,0.402,0.2,0.7,5,2D1U,2,True,0.166,7,False,right,P04
142,0.5,99,2,0.2667,0.2667,0.85,142,2.5834,0.402,0.2,0.7,5,2D1U,2,True,0.224,7,False,right,P04
143,0.5,99,1,0.25,0.2,0.8167,143,2.15,-0.238,-0.1167,0.3833,5,2U1D,2,True,0.274,11,True,right,P04
144,0.5,99,1,0.4333,0.3,0.5,144,2.6,0.718,0.3667,0.8667,5,3D1U,1,True,0.183,5,False,left,P04
145,0.5,99,2,0.3167,0.3333,0.55,145,2.0,-0.41,-0.2,0.3,5,3U1D,1,True,0.418,1,False,left,P04
146,0.5,99,2,0.45,0.35,0.65,146,2.25,-0.41,-0.2,0.3,5,3U1D,1,True,0.4,1,False,left,P04
147,0.5,99,1,0.3167,0.3167,0.4333,147,2.25,0.366,0.1833,0.6833,5,2D1U,1,True,0.509,7,False,left,P04
148,0.5,99,2,0.3333,0.3167,0.4667,148,2.0,-0.238,-0.1167,0.3833,5,2U1D,1,True,0.532,11,True,left,P04
149,0.5,99,2,0.4167,0.3167,0.5667,149,2.2001,-0.202,-0.1,0.4,5,2U1D,2,False,0.308,12,True,right,P04
150,0.5,99,1,0.3167,0.25,0.5333,150,1.9167,-0.374,-0.1833,0.3167,5,3U1D,2,True,0.274,2,True,right,P04
151,0.5,99,1,0.45,0.2,0.5167,151,1.9834,-0.374,-0.1833,0.3167,5,3U1D,2,True,0.351,2,True,right,P04
152,0.5,99,2,0.2833,0.35,0.6833,152,2.1333,-0.374,-0.1833,0.3167,5,3U1D,1,True,0.483,2,True,left,P04
153,0.5,99,2,0.35,0.3833,0.8333,153,2.3999,-0.338,-0.1667,0.3333,5,3U1D,1,True,0.457,2,False,left,P04
0,0.5,99,2,0.2167,0.3667,0.55,0,1.6834,-0.9,-0.45,0.05,5,1D3U,1,True,0.39,0,False,left,P06
1,0.5,99,2,0.4,0.3167,0.4167,1,1.6834,-0.9,-0.45,0.05,5,3D1U,1,True,0.484,0,False,left,P06
2,0.5,99,2,0.35,0.3333,0.7167,2,1.95,-0.9,-0.45,0.05,5,1D3U,1,True,0.45,0,False,left,P06
3,0.5,99,1,0.3667,0.2,0.5333,3,1.65,-0.9,-0.45,0.05,5,2D1U,2,True,0.457,0,False,right,P06
4,0.5,99,1,0.3167,0.4167,0.6167,4,2.7501,0.8,0.4,0.9,5,lapse_rate,1,True,0.783,0,False,left,P06
5,0.5,99,2,0.35,0.3,0.75,5,1.95,-0.9,-0.45,0.05,5,1D2U,1,True,0.425,0,False,left,P06
6,0.5,99,2,0.4333,0.4,0.6333,6,2.0999,-0.74,-0.3667,0.1333,5,3D1U,1,True,0.474,0,False,left,P06
7,0.5,99,2,0.2333,0.25,0.8667,7,1.9833,-0.74,-0.3667,0.1333,5,2D1U,1,True,0.517,0,False,left,P06
8,0.5,99,1,0.2333,0.2667,0.4667,8,1.5167,-0.9,-0.45,0.05,5,1D2U,2,True,0.441,0,False,right,P06
9,0.5,99,1,0.4167,0.2667,0.4667,9,1.7001,-0.9,-0.45,0.05,5,1D3U,2,True,0.475,0,False,right,P06
10,0.5,99,2,0.3,0.2667,0.8167,10,2.1001,-0.58,-0.2833,0.2167,5,3D1U,2,False,0.759,0,False,right,P06
11,0.5,99,2,0.2833,0.2333,0.65,11,1.7666,-0.8,-0.4,0.1,5,lapse_rate,1,True,0.508,0,False,left,P06
12,0.5,99,1,0.4,0.2667,0.7833,12,2.05,-0.8,-0.4,0.1,5,lapse_rate,2,True,0.325,0,False,right,P06
13,0.5,99,1,0.3,0.2,0.8,13,2.0167,-0.58,-0.2833,0.2167,5,2D1U,2,True,0.5,0,False,right,P06
14,0.5,99,2,0.3333,0.25,0.6667,14,1.9667,-0.58,-0.2833,0.2167,5,3D1U,1,True,1.458,0,False,left,P06
15,0.5,99,1,0.2667,0.3167,0.7167,15,1.9334,-0.74,-0.3667,0.1333,5,1D2U,2,True,0.333,0,False,right,P06
16,0.5,99,2,0.3333,0.35,0.7833,16,2.0999,-0.74,-0.3667,0.1333,5,1D3U,1,True,0.376,0,False,left,P06
17,0.5,99,1,0.25,0.25,0.5833,17,2.4833,0.8,0.4,0.9,5,lapse_rate,1,True,0.724,0,False,left,P06
18,0.5,99,1,0.2333,0.4,0.5167,18,1.9333,-0.42,-0.2167,0.2833,5,3D1U,1,False,0.634,0,False,left,P06
19,0.5,99,2,0.2167,0.2833,0.85,19,2.1333,-0.42,-0.2167,0.2833,5,2D1U,2,False,0.492,0,False,right,P06
20,0.5,99,2,0.3667,0.2333,0.85,20,2.0833,-0.74,-0.3667,0.1333,5,1D3U,1,True,0.476,0,False,left,P06
21,0.5,99,2,0.4,0.25,0.6167,21,1.9,-0.74,-0.3667,0.1333,5,1D2U,1,True,0.483,0,False,left,P06
22,0.5,99,2,0.45,0.2167,0.8667,22,2.2501,-0.58,-0.2833,0.2167,5,1D2U,1,True,0.516,0,False,left,P06
23,0.5,99,1,0.3833,0.3167,0.75,23,2.85,0.8,0.4,0.9,5,lapse_rate,1,True,0.459,0,False,left,P06
24,0.5,99,2,0.45,0.2833,0.75,24,2.2666,-0.42,-0.2167,0.2833,5,3D1U,1,True,0.441,0,False,left,P06
25,0.5,99,1,0.25,0.2333,0.7667,25,1.8833,-0.74,-0.3667,0.1333,5,1D3U,2,True,0.457,0,False,right,P06
26,0.5,99,2,0.4333,0.35,0.7333,26,2.2999,-0.42,-0.2167,0.2833,5,2D1U,2,False,0.476,0,False,right,P06
27,0.5,99,1,0.2833,0.3333,0.4667,27,1.8333,-0.5,-0.25,0.25,5,2D1U,1,False,0.567,1,True,left,P06
28,0.5,99,1,0.3167,0.2333,0.6167,28,2.0334,-0.26,-0.1333,0.3667,5,3D1U,2,True,0.492,0,False,right,P06
29,0.5,99,1,0.3,0.4167,0.8667,29,2.3001,-0.58,-0.2833,0.2167,5,1D2U,1,False,0.358,0,False,left,P06
30,0.5,99,1,0.25,0.4,0.6167,30,1.9834,-0.58,-0.2833,0.2167,5,1D3U,2,True,0.449,0,False,right,P06
31,0.5,99,2,0.4333,0.2667,0.5333,31,2.6333,0.8,0.4,0.9,5,lapse_rate,2,True,0.368,0,False,right,P06
32,0.5,99,1,0.45,0.3833,0.5333,32,2.0333,-0.66,-0.3333,0.1667,5,1D2U,2,True,0.375,1,True,right,P06
33,0.5,99,1,0.4167,0.4,0.8333,33,2.6,-0.1,-0.05,0.45,5,3D1U,2,True,0.376,0,False,right,P06
34,0.5,99,2,0.2667,0.2167,0.5,34,1.7001,-0.58,-0.2833,0.2167,5,1D3U,1,True,0.516,0,False,left,P06
35,0.5,99,2,0.4,0.3167,0.5,35,1.8167,-0.8,-0.4,0.1,5,lapse_rate,1,True,0.5,0,False,left,P06
36,0.5,99,2,0.4167,0.45,0.8333,36,2.45,-0.5,-0.25,0.25,5,2D1U,1,True,0.375,1,True,left,P06
37,0.5,99,1,0.2333,0.4167,0.8333,37,2.25,-0.46,-0.2333,0.2667,5,2D1U,2,True,0.283,2,True,right,P06
38,0.5,99,2,0.3,0.45,0.5833,38,2.0,-0.66,-0.3333,0.1667,5,1D2U,1,True,0.517,1,True,left,P06
39,0.5,99,1,0.2833,0.35,0.4833,39,2.1499,0.06,0.0333,0.5333,5,3D1U,2,False,0.5,0,False,right,P06
40,0.5,99,2,0.25,0.4333,0.4333,40,1.7166,-0.8,-0.4,0.1,5,lapse_rate,1,True,0.433,0,False,left,P06
41,0.5,99,2,0.4333,0.4167,0.8667,41,2.4334,-0.58,-0.2833,0.2167,5,1D3U,1,True,0.474,0,False,left,P06
42,0.5,99,2,0.25,0.3167,0.6333,42,1.8,-0.8,-0.4,0.1,5,lapse_rate,1,True,0.458,0,False,left,P06
43,0.5,99,1,0.3167,0.3667,0.5,43,1.9667,-0.42,-0.2167,0.2833,5,1D3U,2,True,0.357,0,False,right,P06
44,0.5,99,2,0.3833,0.4333,0.5167,44,2.45,0.22,0.1167,0.6167,5,3D1U,1,False,0.484,0,False,left,P06
45,0.5,99,2,0.2167,0.3167,0.5667,45,1.7834,-0.62,-0.3167,0.1833,5,1D2U,1,True,0.449,2,True,left,P06
46,0.5,99,2,0.35,0.4167,0.5167,46,2.0667,-0.42,-0.2167,0.2833,5,2D1U,1,True,0.474,2,False,left,P06
47,0.5,99,2,0.4333,0.2,0.7833,47,2.0999,-0.62,-0.3167,0.1833,5,1D2U,1,True,0.533,2,True,left,P06
48,0.5,99,2,0.4333,0.25,0.6167,48,2.0833,-0.42,-0.2167,0.2833,5,1D3U,1,True,0.941,0,False,left,P06
49,0.5,99,1,0.2667,0.25,0.85,49,2.55,0.38,0.1833,0.6833,5,3D1U,2,False,0.576,0,False,right,P06
50,0.5,99,2,0.4333,0.3,0.8167,50,2.3667,-0.38,-0.1833,0.3167,5,2D1U,1,True,0.466,2,False,left,P06
51,0.5,99,2,0.45,0.4333,0.7,51,2.9833,0.8,0.4,0.9,5,lapse_rate,2,True,0.292,0,False,right,P06
52,0.5,99,2,0.4167,0.4333,0.6833,52,2.8,0.54,0.2667,0.7667,5,3D1U,2,True,0.559,0,False,right,P06
53,0.5,99,1,0.4167,0.2333,0.4667,53,1.8334,-0.58,-0.2833,0.2167,5,1D2U,2,True,0.525,2,False,right,P06
54,0.5,99,2,0.45,0.3167,0.4833,54,1.85,-0.8,-0.4,0.1,5,lapse_rate,1,True,0.416,0,False,left,P06
55,0.5,99,1,0.2833,0.2167,0.45,55,1.7833,-0.34,-0.1667,0.3333,5,2D1U,1,False,0.592,2,False,left,P06
56,0.5,99,1,0.35,0.45,0.8333,56,2.4166,-0.42,-0.2167,0.2833,5,1D3U,2,True,0.324,0,False,right,P06
57,0.5,99,1,0.35,0.2333,0.5833,57,2.0333,-0.26,-0.1333,0.3667,5,1D3U,2,True,0.608,0,False,right,P06
58,0.5,99,2,0.4,0.2667,0.4333,58,1.9333,-0.34,-0.1667,0.3333,5,2D1U,1,True,0.458,2,False,left,P06
59,0.5,99,2,0.2667,0.25,0.5667,59,2.4834,0.8,0.4,0.9,5,lapse_rate,2,True,0.483,0,False,right,P06
60,0.5,99,1,0.45,0.3167,0.4333,60,2.4667,0.54,0.2667,0.7667,5,3D1U,1,True,0.608,0,False,left,P06
61,0.5,99,1,0.25,0.3333,0.8667,61,2.1667,-0.58,-0.2833,0.2167,5,1D2U,2,True,0.408,2,False,right,P06
62,0.5,99,2,0.3833,0.3333,0.5667,62,2.0166,-0.54,-0.2667,0.2333,5,1D2U,1,True,0.558,2,False,left,P06
63,0.5,99,2,0.25,0.35,0.7,63,2.1667,-0.26,-0.1333,0.3667,5,1D3U,1,True,0.557,0,False,left,P06
64,0.5,99,1,0.4333,0.25,0.4167,64,1.7,-0.8,-0.4,0.1,5,lapse_rate,2,True,0.534,0,False,right,P06
65,0.5,99,2,0.4333,0.4333,0.6833,65,2.8166,0.54,0.2667,0.7667,5,3D1U,2,True,0.276,0,False,right,P06
66,0.5,99,2,0.25,0.45,0.7167,66,2.2667,-0.3,-0.15,0.35,5,2D1U,1,True,0.526,2,False,left,P06
67,0.5,99,2,0.3,0.4333,0.5333,67,2.6666,0.8,0.4,0.9,5,lapse_rate,2,True,0.367,0,False,right,P06
68,0.5,99,1,0.2167,0.2833,0.7,68,1.9333,-0.54,-0.2667,0.2333,5,1D2U,2,True,0.891,2,False,right,P06
69,0.5,99,2,0.3333,0.4,0.8167,69,2.4167,-0.26,-0.1333,0.3667,5,2D1U,2,False,0.484,2,False,right,P06
70,0.5,99,2,0.4333,0.2833,0.6,70,2.5499,0.46,0.2333,0.7333,5,3D1U,2,True,0.467,1,True,right,P06
71,0.5,99,2,0.4333,0.2,0.8667,71,2.3667,-0.26,-0.1333,0.3667,5,1D3U,1,True,0.616,0,False,left,P06
72,0.5,99,1,0.2333,0.3833,0.4167,72,2.2666,0.46,0.2333,0.7333,5,3D1U,1,True,0.459,1,True,left,P06
73,0.5,99,1,0.2667,0.25,0.55,73,1.9334,-0.26,-0.1333,0.3667,5,2D1U,2,True,0.524,2,False,right,P06
74,0.5,99,2,0.25,0.25,0.7167,74,1.9667,-0.5,-0.25,0.25,5,1D2U,1,True,0.549,2,False,left,P06
75,0.5,99,2,0.3667,0.3167,0.85,75,2.4834,-0.1,-0.05,0.45,5,1D3U,2,False,0.532,0,False,right,P06
76,0.5,99,2,0.35,0.3667,0.4833,76,2.1167,-0.18,-0.0833,0.4167,5,1D3U,1,True,0.633,1,True,left,P06
77,0.5,99,2,0.3667,0.3,0.8,77,2.35,-0.22,-0.1167,0.3833,5,2D1U,1,True,0.651,2,False,left,P06
78,0.5,99,1,0.3167,0.2167,0.6,78,2.0501,-0.18,-0.0833,0.4167,5,1D3U,2,True,0.558,1,True,right,P06
79,0.5,99,1,0.35,0.3833,0.8333,79,2.3166,-0.5,-0.25,0.25,5,1D2U,2,True,0.768,2,False,right,P06
80,0.5,99,1,0.3,0.3333,0.8167,80,2.2167,-0.46,-0.2333,0.2667,5,1D2U,2,True,0.551,2,False,right,P06
81,0.5,99,2,0.25,0.3833,0.6333,81,2.4999,0.46,0.2333,0.7333,5,3D1U,2,True,0.534,1,True,right,P06
82,0.5,99,2,0.3833,0.25,0.4667,82,2.2833,0.38,0.1833,0.6833,5,3D1U,2,True,1.041,1,False,right,P06
83,0.5,99,2,0.2667,0.4167,0.6333,83,2.2334,-0.18,-0.0833,0.4167,5,2D1U,1,True,0.5,2,False,left,P06
84,0.5,99,2,0.4333,0.2167,0.5333,84,2.1166,-0.14,-0.0667,0.4333,5,2D1U,1,True,0.557,2,False,left,P06
85,0.5,99,2,0.3,0.3,0.7333,85,2.25,-0.18,-0.0833,0.4167,5,1D3U,2,False,0.525,1,True,right,P06
86,0.5,99,1,0.4,0.2167,0.8,86,2.1834,-0.46,-0.2333,0.2667,5,1D2U,2,True,0.55,2,False,right,P06
87,0.5,99,2,0.25,0.2,0.7,87,2.3333,0.38,0.1833,0.6833,5,3D1U,2,True,0.583,1,False,right,P06
88,0.5,99,2,0.3833,0.2833,0.7667,88,2.3833,-0.1,-0.05,0.45,5,2D1U,2,False,0.534,2,False,right,P06
89,0.5,99,1,0.3167,0.3667,0.5667,89,2.0334,-0.42,-0.2167,0.2833,5,1D2U,2,True,0.649,2,False,right,P06
90,0.5,99,1,0.3,0.3667,0.7833,90,2.2333,-0.42,-0.2167,0.2833,5,1D2U,2,True,0.507,2,False,right,P06
91,0.5,99,2,0.3333,0.2667,0.8167,91,2.2834,-0.26,-0.1333,0.3667,5,1D3U,1,True,0.583,1,False,left,P06
92,0.5,99,1,0.3833,0.3833,0.6,92,2.1833,-0.38,-0.1833,0.3167,5,1D2U,2,True,0.5,2,False,right,P06
93,0.5,99,2,0.4333,0.2167,0.4667,93,1.9834,-0.26,-0.1333,0.3667,5,1D3U,1,True,0.55,1,False,left,P06
94,0.5,99,1,0.35,0.2667,0.4333,94,2.0,-0.1,-0.05,0.45,5,2D1U,1,False,0.533,2,False,left,P06
95,0.5,99,1,0.4333,0.3667,0.4667,95,2.45,0.38,0.1833,0.6833,5,3D1U,1,True,0.491,1,False,left,P06
96,0.5,99,1,0.3667,0.3167,0.7833,96,2.2834,-0.38,-0.1833,0.3167,5,1D2U,2,True,0.875,2,False,right,P06
97,0.5,99,1,0.25,0.4,0.5,97,2.0833,-0.14,-0.0667,0.4333,5,2D1U,1,False,0.55,3,True,left,P06
98,0.5,99,1,0.2167,0.4,0.5167,98,2.2834,0.3,0.15,0.65,5,3D1U,1,True,0.516,1,False,left,P06
99,0.5,99,1,0.3167,0.4167,0.4,99,1.9667,-0.34,-0.1667,0.3333,5,1D2U,1,False,0.533,2,False,left,P06
100,0.5,99,1,0.2667,0.25,0.55,100,1.8834,-0.38,-0.1833,0.3167,5,1D2U,1,False,0.616,3,True,left,P06
101,0.5,99,1,0.2667,0.35,0.8833,101,2.3667,-0.26,-0.1333,0.3667,5,1D3U,1,False,0.774,1,False,left,P06
102,0.5,99,2,0.25,0.2667,0.5,102,1.95,-0.14,-0.0667,0.4333,5,2D1U,2,False,0.658,3,True,right,P06
103,0.5,99,2,0.4,0.4333,0.45,103,2.1166,-0.34,-0.1667,0.3333,5,1D3U,1,True,0.584,1,False,left,P06
104,0.5,99,2,0.3667,0.3,0.6167,104,2.1167,-0.34,-0.1667,0.3333,5,1D3U,1,True,0.577,1,False,left,P06
105,0.5,99,2,0.3667,0.3833,0.5167,105,2.4167,0.3,0.15,0.65,5,3D1U,2,True,0.526,1,False,right,P06
106,0.5,99,1,0.2,0.2167,0.6167,106,1.8167,-0.42,-0.2167,0.2833,5,1D2U,1,False,0.577,3,False,left,P06
107,0.5,99,1,0.35,0.3,0.4833,107,2.2833,0.3,0.15,0.65,5,3D1U,2,False,0.559,1,False,right,P06
108,0.5,99,1,0.4167,0.4167,0.75,108,2.3501,-0.46,-0.2333,0.2667,5,1D2U,1,False,0.675,3,False,left,P06
109,0.5,99,2,0.3,0.25,0.45,109,1.8333,-0.34,-0.1667,0.3333,5,1D3U,1,True,0.565,1,False,left,P06
110,0.5,99,2,0.3667,0.2167,0.8333,110,2.3334,-0.18,-0.0833,0.4167,5,2D1U,2,False,0.583,3,False,right,P06
111,0.5,99,2,0.3833,0.4333,0.55,111,2.2833,-0.18,-0.0833,0.4167,5,2D1U,1,True,0.567,3,False,left,P06
112,0.5,99,1,0.4333,0.4167,0.7833,112,2.3833,-0.5,-0.25,0.25,5,1D2U,2,True,0.459,3,False,right,P06
113,0.5,99,2,0.2833,0.3667,0.8667,113,2.3667,-0.3,-0.15,0.35,5,1D3U,2,False,0.591,2,True,right,P06
114,0.5,99,2,0.4167,0.2667,0.8667,114,2.4834,-0.14,-0.0667,0.4333,5,2D1U,2,False,0.575,4,True,right,P06
115,0.5,99,2,0.2333,0.3,0.7,115,2.1666,-0.14,-0.0667,0.4333,5,2D1U,1,True,0.532,4,True,left,P06
116,0.5,99,1,0.3833,0.3,0.8833,116,2.7333,0.34,0.1667,0.6667,5,3D1U,2,False,0.542,2,True,right,P06
117,0.5,99,2,0.4333,0.4167,0.5,117,2.3,-0.1,-0.05,0.45,5,2D1U,2,False,0.624,4,False,right,P06
118,0.5,99,1,0.3333,0.2667,0.8667,118,2.3,-0.34,-0.1667,0.3333,5,1D3U,2,True,0.55,3,True,right,P06
119,0.5,99,1,0.45,0.2333,0.6333,119,2.0666,-0.5,-0.25,0.25,5,1D2U,1,False,0.658,3,False,left,P06
120,0.5,99,1,0.35,0.4,0.5,120,2.4333,0.38,0.1833,0.6833,5,3D1U,1,True,0.417,2,False,left,P06
121,0.5,99,2,0.35,0.4333,0.75,121,2.7166,0.38,0.1833,0.6833,5,3D1U,2,True,0.35,2,False,right,P06
122,0.5,99,2,0.3667,0.2,0.7,122,2.2167,-0.1,-0.05,0.45,5,2D1U,1,True,0.558,4,False,left,P06
123,0.5,99,1,0.4333,0.3167,0.7167,123,2.2,-0.54,-0.2667,0.2333,5,1D2U,2,True,0.609,3,False,right,P06
124,0.5,99,2,0.3,0.4,0.5333,124,1.9666,-0.54,-0.2667,0.2333,5,1D2U,1,True,0.515,3,False,left,P06
125,0.5,99,2,0.2167,0.2667,0.7,125,2.0167,-0.34,-0.1667,0.3333,5,1D3U,2,False,0.516,3,True,right,P06
126,0.5,99,2,0.2,0.2333,0.65,126,2.2666,0.38,0.1833,0.6833,5,3D1U,1,False,0.483,2,False,left,P06
127,0.5,99,1,0.2667,0.35,0.8,127,2.2334,-0.38,-0.1833,0.3167,5,1D3U,2,True,0.525,3,False,right,P06
128,0.5,99,2,0.4167,0.2,0.7333,128,2.3167,-0.06,-0.0333,0.4667,5,2D1U,2,False,0.526,4,False,right,P06
129,0.5,99,1,0.2667,0.3667,0.9,129,2.2834,-0.5,-0.25,0.25,5,1D2U,1,False,0.592,4,True,left,P06
130,0.5,99,1,0.2167,0.2167,0.8,130,2.4501,0.42,0.2167,0.7167,5,3D1U,2,False,0.557,2,False,right,P06
131,0.5,99,1,0.3167,0.2,0.55,131,2.3,0.46,0.2333,0.7333,5,3D1U,2,False,0.624,2,False,right,P06
132,0.5,99,1,0.4167,0.3333,0.4667,132,1.95,-0.54,-0.2667,0.2333,5,1D2U,2,True,0.526,5,True,right,P06
133,0.5,99,1,0.3,0.3167,0.7333,133,2.1667,-0.38,-0.1833,0.3167,5,1D3U,2,True,0.492,3,False,right,P06
134,0.5,99,2,0.4167,0.35,0.5833,134,2.1667,-0.38,-0.1833,0.3167,5,1D3U,1,True,0.508,3,False,left,P06
135,0.5,99,1,0.4333,0.25,0.7167,135,2.3667,-0.06,-0.0333,0.4667,5,2D1U,2,True,0.524,4,False,right,P06
136,0.5,99,1,0.3833,0.2667,0.4667,136,2.3667,0.5,0.25,0.75,5,3D1U,1,True,0.533,2,False,left,P06
137,0.5,99,2,0.2333,0.4333,0.4333,137,1.9332,-0.34,-0.1667,0.3333,5,1D3U,1,True,0.559,4,True,left,P06
138,0.5,99,1,0.4333,0.2167,0.85,138,2.75,0.5,0.25,0.75,5,3D1U,1,True,0.518,2,False,left,P06
139,0.5,99,1,0.3167,0.4,0.8667,139,2.5667,-0.02,-0.0167,0.4833,5,2D1U,1,False,0.592,4,False,left,P06
140,0.5,99,2,0.2333,0.35,0.5667,140,2.1333,-0.02,-0.0167,0.4833,5,2D1U,1,True,0.526,4,False,left,P06
141,0.5,99,1,0.2667,0.3,0.45,141,1.75,-0.54,-0.2667,0.2333,5,1D2U,1,False,0.741,5,True,left,P06
142,0.5,99,1,0.2833,0.25,0.4667,142,2.25,0.5,0.25,0.75,5,3D1U,1,True,0.433,2,False,left,P06
143,0.5,99,2,0.3833,0.2833,0.5,143,2.3999,0.46,0.2333,0.7333,5,3D1U,2,True,0.392,3,True,right,P06
144,0.5,99,1,0.3,0.3833,0.7333,144,2.2499,-0.34,-0.1667,0.3333,5,1D3U,2,True,0.433,4,True,right,P06
145,0.5,99,1,0.25,0.25,0.4667,145,1.9834,0.02,0.0167,0.5167,5,2D1U,1,True,0.501,4,False,left,P06
146,0.5,99,2,0.45,0.3,0.5667,146,2.0334,-0.58,-0.2833,0.2167,5,1D2U,1,True,0.574,5,False,left,P06
147,0.5,99,1,0.2833,0.25,0.5833,147,1.9499,-0.34,-0.1667,0.3333,5,1D3U,2,True,0.501,4,True,right,P06
148,0.5,99,2,0.45,0.35,0.6667,148,2.3167,-0.3,-0.15,0.35,5,1D3U,1,True,0.509,4,False,left,P06
149,0.5,99,1,0.2667,0.3,0.7,149,2.5,0.46,0.2333,0.7333,5,3D1U,2,False,0.658,3,True,right,P06
150,0.5,99,2,0.3667,0.2167,0.45,150,2.0501,0.02,0.0167,0.5167,5,2D1U,1,False,0.599,4,False,left,P06
151,0.5,99,1,0.3,0.4333,0.6,151,2.05,-0.58,-0.2833,0.2167,5,1D2U,2,True,0.416,5,False,right,P06
152,0.5,99,1,0.2,0.3833,0.4167,152,2.25,0.5,0.25,0.75,5,3D1U,1,True,0.517,4,True,left,P06
153,0.5,99,2,0.3667,0.2833,0.85,153,2.5333,0.06,0.0333,0.5333,5,2D1U,2,True,0.567,4,False,right,P06
0,0.5,99,1,0.3667,0.3,0.8833,0,2.1,-0.9,-0.45,0.05,5,3D1U,2,True,0.172,0,False,right,P08
1,0.5,99,2,0.2,0.4333,0.4167,1,2.45,0.8,0.4,0.9,5,lapse_rate,1,False,0.161,0,False,left,P08
2,0.5,99,2,0.2833,0.4167,0.4833,2,1.7333,-0.9,-0.45,0.05,5,2D1U,1,True,0.615,0,False,left,P08
3,0.5,99,2,0.2333,0.2667,0.9,3,2.0333,-0.74,-0.3667,0.1333,5,3D1U,1,True,0.384,0,False,left,P08
4,0.5,99,2,0.3833,0.35,0.5167,4,1.85,-0.8,-0.4,0.1,5,lapse_rate,1,True,0.392,0,False,left,P08
5,0.5,99,2,0.3667,0.4,0.7,5,2.0167,-0.9,-0.45,0.05,5,1D3U,1,True,0.309,0,False,left,P08
6,0.5,99,2,0.4333,0.3667,0.7167,6,2.0667,-0.9,-0.45,0.05,5,1D2U,1,True,0.416,0,False,left,P08
7,0.5,99,1,0.25,0.3333,0.8833,7,2.0999,-0.74,-0.3667,0.1333,5,2D1U,2,True,0.258,0,False,right,P08
8,0.5,99,1,0.3333,0.4167,0.45,8,1.75,-0.9,-0.45,0.05,5,1D2U,2,True,0.301,0,False,right,P08
9,0.5,99,1,0.3167,0.4167,0.8833,9,2.1667,-0.9,-0.45,0.05,5,1D3U,1,False,0.334,0,False,left,P08
10,0.5,99,1,0.2333,0.35,0.5,10,2.4833,0.8,0.4,0.9,5,lapse_rate,1,True,0.408,0,False,left,P08
11,0.5,99,2,0.3167,0.35,0.4667,11,1.8501,-0.58,-0.2833,0.2167,5,3D1U,1,True,0.459,0,False,left,P08
12,0.5,99,2,0.2667,0.3167,0.8833,12,2.25,-0.42,-0.2167,0.2833,5,3D1U,1,True,0.516,0,False,left,P08
13,0.5,99,1,0.3833,0.2167,0.6167,13,1.85,-0.74,-0.3667,0.1333,5,1D2U,2,True,0.2,0,False,right,P08
14,0.5,99,1,0.3833,0.2167,0.5333,14,1.85,-0.58,-0.2833,0.2167,5,2D1U,2,True,0.283,0,False,right,P08
15,0.5,99,1,0.3667,0.2167,0.6667,15,1.8001,-0.9,-0.45,0.05,5,1D3U,2,True,0.267,0,False,right,P08
16,0.5,99,1,0.3833,0.2333,0.8667,16,2.0833,-0.8,-0.4,0.1,5,lapse_rate,2,True,0.232,0,False,right,P08
17,0.5,99,1,0.3333,0.4167,0.45,17,2.0667,-0.26,-0.1333,0.3667,5,3D1U,2,True,0.259,0,False,right,P08
18,0.5,99,1,0.3833,0.4333,0.4833,18,1.8499,-0.9,-0.45,0.05,5,1D3U,2,True,0.242,0,False,right,P08
19,0.5,99,2,0.2833,0.4333,0.8667,19,2.9833,0.8,0.4,0.9,5,lapse_rate,2,True,0.274,0,False,right,P08
20,0.5,99,2,0.3333,0.4333,0.7333,20,2.2832,-0.42,-0.2167,0.2833,5,2D1U,1,True,0.374,0,False,left,P08
21,0.5,99,1,0.35,0.3833,0.65,21,2.0166,-0.74,-0.3667,0.1333,5,1D2U,2,True,0.241,0,False,right,P08
22,0.5,99,1,0.4167,0.2833,0.6,22,1.85,-0.9,-0.45,0.05,5,1D3U,2,True,0.284,0,False,right,P08
23,0.5,99,2,0.2667,0.3667,0.65,23,2.1501,-0.26,-0.1333,0.3667,5,2D1U,2,False,0.382,0,False,right,P08
24,0.5,99,2,0.3333,0.2667,0.4833,24,2.0333,-0.1,-0.05,0.45,5,3D1U,2,False,0.333,0,False,right,P08
25,0.5,99,2,0.3,0.3,0.7167,25,2.7167,0.8,0.4,0.9,5,lapse_rate,2,True,0.334,0,False,right,P08
26,0.5,99,1,0.2333,0.45,0.8667,26,2.2667,-0.58,-0.2833,0.2167,5,1D2U,2,True,0.307,0,False,right,P08
27,0.5,99,2,0.2667,0.35,0.5667,27,1.7834,-0.8,-0.4,0.1,5,lapse_rate,1,True,0.4,0,False,left,P08
28,0.5,99,1,0.3667,0.3,0.45,28,1.8334,-0.58,-0.2833,0.2167,5,1D2U,2,True,0.334,0,False,right,P08
29,0.5,99,1,0.3667,0.3667,0.5167,29,2.2001,-0.1,-0.05,0.45,5,3D1U,2,True,0.391,0,False,right,P08
30,0.5,99,1,0.3667,0.4167,0.6333,30,2.2834,-0.26,-0.1333,0.3667,5,2D1U,2,True,0.383,0,False,right,P08
31,0.5,99,1,0.4,0.25,0.6667,31,1.9,-0.82,-0.4167,0.0833,5,1D3U,2,True,0.278,1,True,right,P08
32,0.5,99,2,0.3333,0.2333,0.4333,32,1.9499,-0.1,-0.05,0.45,5,2D1U,2,False,0.35,0,False,right,P08
33,0.5,99,2,0.2333,0.45,0.4667,33,1.9333,-0.42,-0.2167,0.2833,5,1D2U,1,True,0.31,0,False,left,P08
34,0.5,99,2,0.2333,0.3333,0.85,34,2.0166,-0.8,-0.4,0.1,5,lapse_rate,1,True,0.407,0,False,left,P08
35,0.5,99,2,0.45,0.4333,0.7167,35,2.1833,-0.82,-0.4167,0.0833,5,1D3U,1,True,0.326,1,True,left,P08
36,0.5,99,2,0.4333,0.2833,0.7833,36,2.5332,0.06,0.0333,0.5333,5,3D1U,2,True,0.308,0,False,right,P08
37,0.5,99,1,0.3833,0.4333,0.7667,37,2.3666,-0.42,-0.2167,0.2833,5,1D2U,2,True,0.258,0,False,right,P08
38,0.5,99,1,0.2833,0.2667,0.5333,38,1.6666,-0.82,-0.4167,0.0833,5,1D3U,2,True,0.301,1,True,right,P08
39,0.5,99,2,0.2833,0.3167,0.7167,39,2.2667,-0.1,-0.05,0.45,5,2D1U,2,False,0.302,0,False,right,P08
40,0.5,99,2,0.45,0.4167,0.5667,40,2.4667,0.06,0.0333,0.5333,5,3D1U,2,True,0.232,0,False,right,P08
41,0.5,99,2,0.3,0.3667,0.4,41,1.6667,-0.8,-0.4,0.1,5,lapse_rate,1,True,0.391,0,False,left,P08
42,0.5,99,2,0.35,0.3,0.8,42,2.4833,0.06,0.0333,0.5333,5,3D1U,2,True,0.282,0,False,right,P08
43,0.5,99,2,0.2167,0.3,0.5833,43,1.7333,-0.74,-0.3667,0.1333,5,1D3U,1,True,0.375,1,False,left,P08
44,0.5,99,1,0.2667,0.25,0.6167,44,2.5334,0.8,0.4,0.9,5,lapse_rate,1,True,0.292,0,False,left,P08
45,0.5,99,2,0.25,0.3833,0.4667,45,2.0167,-0.18,-0.0833,0.4167,5,2D1U,1,True,0.399,1,True,left,P08
46,0.5,99,1,0.25,0.45,0.5,46,2.0667,-0.26,-0.1333,0.3667,5,1D2U,2,True,0.292,0,False,right,P08
47,0.5,99,2,0.2333,0.4,0.4833,47,2.0499,-0.14,-0.0667,0.4333,5,2D1U,1,True,0.375,2,True,left,P08
48,0.5,99,2,0.35,0.3167,0.7333,48,2.0333,-0.74,-0.3667,0.1333,5,1D3U,1,True,0.449,1,False,left,P08
49,0.5,99,1,0.2333,0.3167,0.8833,49,2.8333,0.8,0.4,0.9,5,lapse_rate,1,True,0.417,0,False,left,P08
50,0.5,99,1,0.3167,0.3,0.6,50,2.2,-0.02,-0.0167,0.4833,5,3D1U,1,False,0.533,1,True,left,P08
51,0.5,99,2,0.3333,0.2,0.5,51,1.9,-0.26,-0.1333,0.3667,5,1D2U,1,True,0.667,0,False,left,P08
52,0.5,99,1,0.25,0.4167,0.8333,52,2.45,-0.1,-0.05,0.45,5,1D2U,2,True,0.3,0,False,right,P08
53,0.5,99,1,0.2333,0.3167,0.6833,53,1.8666,-0.74,-0.3667,0.1333,5,1D3U,2,True,0.233,1,False,right,P08
54,0.5,99,2,0.2167,0.2333,0.6833,54,2.0833,-0.1,-0.05,0.45,5,2D1U,2,False,0.357,2,False,right,P08
55,0.5,99,1,0.3667,0.35,0.7667,55,2.4667,-0.02,-0.0167,0.4833,5,3D1U,2,True,0.317,1,True,right,P08
56,0.5,99,1,0.4333,0.25,0.6,56,2.6833,0.8,0.4,0.9,5,lapse_rate,1,True,0.233,0,False,left,P08
57,0.5,99,2,0.2667,0.4167,0.85,57,2.5501,0.02,0.0167,0.5167,5,3D1U,2,True,0.327,2,True,right,P08
58,0.5,99,2,0.3167,0.2333,0.45,58,1.95,-0.1,-0.05,0.45,5,2D1U,2,False,0.41,2,False,right,P08
59,0.5,99,2,0.2333,0.25,0.5333,59,1.6833,-0.66,-0.3333,0.1667,5,1D3U,1,True,0.435,1,False,left,P08
60,0.5,99,1,0.2333,0.45,0.6167,60,1.9,-0.8,-0.4,0.1,5,lapse_rate,1,False,0.349,0,False,left,P08
61,0.5,99,2,0.4,0.3,0.7667,61,2.4167,-0.1,-0.05,0.45,5,1D2U,2,False,0.342,0,False,right,P08
62,0.5,99,1,0.4,0.2333,0.6,62,1.9,-0.66,-0.3333,0.1667,5,1D3U,2,True,0.375,1,False,right,P08
63,0.5,99,1,0.35,0.4333,0.7333,63,2.4333,-0.18,-0.0833,0.4167,5,1D2U,2,True,0.31,1,True,right,P08
64,0.5,99,2,0.2167,0.2833,0.75,64,1.85,-0.8,-0.4,0.1,5,lapse_rate,1,True,0.525,0,False,left,P08
65,0.5,99,2,0.35,0.3,0.4833,65,2.0666,-0.14,-0.0667,0.4333,5,2D1U,1,True,0.433,3,True,left,P08
66,0.5,99,1,0.4333,0.2167,0.7167,66,2.3834,0.02,0.0167,0.5167,5,3D1U,1,True,0.376,2,True,left,P08
67,0.5,99,2,0.4333,0.3833,0.7167,67,2.55,0.02,0.0167,0.5167,5,3D1U,2,True,0.25,2,True,right,P08
68,0.5,99,1,0.2833,0.2833,0.85,68,2.3333,-0.18,-0.0833,0.4167,5,1D2U,2,True,0.285,1,True,right,P08
69,0.5,99,1,0.35,0.2167,0.6833,69,2.1833,-0.14,-0.0667,0.4333,5,1D2U,2,True,0.225,2,True,right,P08
70,0.5,99,1,0.4333,0.4333,0.75,70,2.5666,-0.1,-0.05,0.45,5,2D1U,1,False,0.161,4,True,left,P08
71,0.5,99,1,0.45,0.2667,0.5,71,1.8834,-0.66,-0.3333,0.1667,5,1D3U,2,True,0.183,1,False,right,P08
72,0.5,99,1,0.25,0.2167,0.7333,72,1.9167,-0.58,-0.2833,0.2167,5,1D3U,2,True,0.25,1,False,right,P08
73,0.5,99,2,0.3167,0.35,0.5167,73,2.1167,-0.14,-0.0667,0.4333,5,1D2U,2,False,0.257,2,True,right,P08
74,0.5,99,2,0.2167,0.2833,0.45,74,1.8667,-0.18,-0.0833,0.4167,5,1D2U,2,False,0.3,3,True,right,P08
75,0.5,99,1,0.3833,0.3167,0.7333,75,2.4166,-0.02,-0.0167,0.4833,5,3D1U,2,True,0.2,3,True,right,P08
76,0.5,99,2,0.3333,0.25,0.9,76,2.4333,-0.1,-0.05,0.45,5,2D1U,2,False,0.249,4,True,right,P08
77,0.5,99,2,0.4333,0.3167,0.8833,77,2.65,0.02,0.0167,0.5167,5,3D1U,2,True,0.162,4,True,right,P08
78,0.5,99,1,0.3167,0.3667,0.8167,78,2.3834,-0.22,-0.1167,0.3833,5,1D2U,2,True,0.225,3,False,right,P08
79,0.5,99,2,0.4333,0.3333,0.5,79,2.1999,-0.14,-0.0667,0.4333,5,2D1U,2,False,0.351,5,True,right,P08
80,0.5,99,1,0.35,0.4167,0.6333,80,2.3333,-0.14,-0.0667,0.4333,5,2D1U,2,True,0.701,5,True,right,P08
81,0.5,99,1,0.4333,0.35,0.5333,81,2.0333,-0.58,-0.2833,0.2167,5,1D3U,2,True,0.558,1,False,right,P08
82,0.5,99,1,0.25,0.3333,0.4667,82,2.0,-0.1,-0.05,0.45,5,2D1U,2,True,0.349,6,True,right,P08
83,0.5,99,1,0.3167,0.3167,0.55,83,2.0667,-0.22,-0.1167,0.3833,5,1D2U,1,False,0.657,3,False,left,P08
84,0.5,99,2,0.4333,0.3667,0.5667,84,2.0834,-0.58,-0.2833,0.2167,5,1D3U,1,True,0.459,1,False,left,P08
85,0.5,99,2,0.4167,0.2667,0.8167,85,2.2501,-0.5,-0.25,0.25,5,1D3U,1,True,0.415,1,False,left,P08
86,0.5,99,2,0.4333,0.35,0.85,86,2.65,0.02,0.0167,0.5167,5,3D1U,2,True,0.707,4,True,right,P08
87,0.5,99,2,0.4167,0.25,0.6167,87,2.2501,-0.06,-0.0333,0.4667,5,2D1U,1,True,0.442,6,False,left,P08
88,0.5,99,2,0.3,0.35,0.4833,88,2.0,-0.26,-0.1333,0.3667,5,1D2U,1,True,0.408,3,False,left,P08
89,0.5,99,1,0.4333,0.3167,0.5,89,2.2667,0.02,0.0167,0.5167,5,3D1U,1,True,0.343,4,True,left,P08
90,0.5,99,1,0.2667,0.3667,0.4167,90,1.8001,-0.5,-0.25,0.25,5,1D3U,2,True,0.159,1,False,right,P08
91,0.5,99,2,0.3167,0.3833,0.4667,91,1.9167,-0.5,-0.25,0.25,5,1D3U,1,True,0.35,1,False,left,P08
92,0.5,99,1,0.3667,0.35,0.5833,92,2.1667,-0.26,-0.1333,0.3667,5,1D2U,2,True,0.277,3,False,right,P08
93,0.5,99,1,0.2667,0.3,0.55,93,2.1,-0.02,-0.0167,0.4833,5,2D1U,2,True,0.242,6,False,right,P08
94,0.5,99,2,0.2167,0.3833,0.7667,94,2.35,-0.02,-0.0167,0.4833,5,3D1U,2,False,0.25,5,True,right,P08
95,0.5,99,2,0.4333,0.2833,0.8167,95,2.3166,-0.42,-0.2167,0.2833,5,1D3U,1,True,0.5,1,False,left,P08
96,0.5,99,2,0.2167,0.3,0.55,96,1.95,-0.22,-0.1167,0.3833,5,1D2U,2,False,0.583,4,True,right,P08
97,0.5,99,2,0.45,0.3667,0.8167,97,2.6167,-0.02,-0.0167,0.4833,5,3D1U,1,True,0.325,5,True,left,P08
98,0.5,99,1,0.2667,0.4167,0.8667,98,2.5668,0.02,0.0167,0.5167,5,3D1U,2,False,0.275,6,True,right,P08
99,0.5,99,2,0.2333,0.2333,0.7,99,2.0333,-0.26,-0.1333,0.3667,5,1D2U,1,True,0.477,5,True,left,P08
100,0.5,99,1,0.4,0.2167,0.7667,100,2.4001,0.02,0.0167,0.5167,5,2D1U,1,True,0.366,6,False,left,P08
101,0.5,99,2,0.3167,0.35,0.85,101,2.3,-0.42,-0.2167,0.2833,5,1D3U,1,True,0.459,1,False,left,P08
102,0.5,99,2,0.3833,0.3333,0.8,102,2.2999,-0.42,-0.2167,0.2833,5,1D3U,2,False,0.324,1,False,right,P08
103,0.5,99,1,0.2667,0.4167,0.6667,103,2.3834,0.06,0.0333,0.5333,5,3D1U,2,False,0.3,6,False,right,P08
104,0.5,99,1,0.3667,0.3667,0.7667,104,2.3668,-0.26,-0.1333,0.3667,5,1D2U,2,True,0.232,5,True,right,P08
105,0.5,99,1,0.2333,0.3667,0.7667,105,2.25,-0.22,-0.1167,0.3833,5,1D2U,2,True,0.351,6,True,right,P08
106,0.5,99,2,0.2833,0.35,0.6167,106,2.2667,0.02,0.0167,0.5167,5,2D1U,2,True,0.415,6,False,right,P08
107,0.5,99,1,0.2667,0.4333,0.6167,107,2.0834,-0.46,-0.2333,0.2667,5,1D3U,2,True,0.307,2,True,right,P08
108,0.5,99,2,0.4167,0.4333,0.6,108,2.5,0.1,0.05,0.55,5,3D1U,2,True,0.583,6,False,right,P08
109,0.5,99,1,0.3667,0.3833,0.5667,109,2.2,-0.22,-0.1167,0.3833,5,1D2U,2,True,0.3,6,True,right,P08
110,0.5,99,2,0.4333,0.35,0.6667,110,2.3667,-0.18,-0.0833,0.4167,5,1D2U,2,False,0.558,6,False,right,P08
111,0.5,99,2,0.3333,0.3167,0.55,111,2.1833,-0.02,-0.0167,0.4833,5,2D1U,2,False,0.308,7,True,right,P08
112,0.5,99,2,0.3,0.3667,0.5333,112,1.9667,-0.46,-0.2333,0.2667,5,1D3U,1,True,0.341,2,True,left,P08
113,0.5,99,1,0.45,0.3167,0.55,113,2.3,-0.02,-0.0167,0.4833,5,2D1U,1,False,0.833,7,True,left,P08
114,0.5,99,2,0.3833,0.3,0.4333,114,2.1666,0.1,0.05,0.55,5,3D1U,2,True,0.36,6,False,right,P08
115,0.5,99,2,0.2333,0.3333,0.5167,115,1.9666,-0.22,-0.1167,0.3833,5,1D2U,2,False,0.316,7,True,right,P08
116,0.5,99,1,0.2167,0.45,0.4333,116,1.8667,-0.46,-0.2333,0.2667,5,1D3U,2,True,0.434,2,True,right,P08
117,0.5,99,1,0.2833,0.4167,0.9,117,2.5667,-0.06,-0.0333,0.4667,5,2D1U,2,True,0.225,7,False,right,P08
118,0.5,99,1,0.3167,0.3333,0.5667,118,2.0834,-0.26,-0.1333,0.3667,5,1D2U,2,True,0.408,7,False,right,P08
119,0.5,99,1,0.3167,0.25,0.7833,119,2.4,0.1,0.05,0.55,5,3D1U,2,False,0.333,6,False,right,P08
120,0.5,99,2,0.3167,0.3667,0.7167,120,2.1834,-0.42,-0.2167,0.2833,5,1D3U,1,True,0.491,3,True,left,P08
121,0.5,99,1,0.25,0.3167,0.5,121,1.85,-0.42,-0.2167,0.2833,5,1D3U,2,True,0.326,3,True,right,P08
122,0.5,99,1,0.2667,0.2333,0.7833,122,2.35,0.14,0.0667,0.5667,5,3D1U,2,False,0.341,6,False,right,P08
123,0.5,99,1,0.4,0.3167,0.6333,123,2.1333,-0.42,-0.2167,0.2833,5,1D3U,2,True,0.366,3,True,right,P08
124,0.5,99,2,0.4333,0.4167,0.4333,124,2.2666,-0.02,-0.0167,0.4833,5,2D1U,1,True,0.325,8,True,left,P08
125,0.5,99,2,0.2,0.25,0.7,125,2.1667,0.02,0.0167,0.5167,5,2D1U,2,True,0.334,8,False,right,P08
126,0.5,99,2,0.2667,0.2167,0.8167,126,2.1668,-0.26,-0.1333,0.3667,5,1D2U,1,True,0.5,7,False,left,P08
127,0.5,99,1,0.2167,0.4167,0.45,127,2.1667,0.18,0.0833,0.5833,5,3D1U,2,False,0.24,6,False,right,P08
128,0.5,99,2,0.3667,0.25,0.4333,128,1.8667,-0.38,-0.1833,0.3167,5,1D3U,1,True,0.583,3,False,left,P08
129,0.5,99,1,0.3833,0.3833,0.7333,129,2.3166,-0.38,-0.1833,0.3167,5,1D3U,2,True,0.208,3,False,right,P08
130,0.5,99,1,0.25,0.3167,0.6667,130,2.2501,0.02,0.0167,0.5167,5,2D1U,1,True,0.442,8,False,left,P08
131,0.5,99,1,0.4,0.3167,0.5167,131,2.1167,-0.22,-0.1167,0.3833,5,1D2U,2,True,0.424,8,True,right,P08
132,0.5,99,1,0.25,0.25,0.45,132,1.7667,-0.38,-0.1833,0.3167,5,1D3U,2,True,0.491,3,False,right,P08
133,0.5,99,2,0.3833,0.35,0.4333,133,2.2833,0.22,0.1167,0.6167,5,3D1U,2,True,0.217,6,False,right,P08
134,0.5,99,1,0.4,0.3167,0.8667,134,2.5667,-0.02,-0.0167,0.4833,5,2D1U,2,True,0.417,9,True,right,P08
135,0.5,99,1,0.45,0.3667,0.7333,135,2.4333,-0.22,-0.1167,0.3833,5,1D2U,2,True,0.308,8,True,right,P08
136,0.5,99,2,0.3,0.35,0.4833,136,1.9666,-0.34,-0.1667,0.3333,5,1D3U,1,True,0.358,3,False,left,P08
137,0.5,99,2,0.4,0.2167,0.6167,137,2.2501,0.02,0.0167,0.5167,5,2D1U,2,True,0.292,10,True,right,P08
138,0.5,99,2,0.25,0.3333,0.4167,138,2.1167,0.22,0.1167,0.6167,5,3D1U,1,False,0.299,6,False,left,P08
139,0.5,99,1,0.3833,0.3,0.5667,139,2.1667,-0.18,-0.0833,0.4167,5,1D2U,2,True,0.251,8,False,right,P08
140,0.5,99,2,0.2667,0.4167,0.4167,140,2.0168,-0.18,-0.0833,0.4167,5,1D2U,2,False,0.2,8,False,right,P08
141,0.5,99,1,0.3333,0.3667,0.8667,141,2.4,-0.34,-0.1667,0.3333,5,1D3U,2,True,0.309,3,False,right,P08
142,0.5,99,1,0.2667,0.2667,0.6833,142,2.35,0.26,0.1333,0.6333,5,3D1U,2,False,0.366,6,False,right,P08
143,0.5,99,1,0.3833,0.25,0.7,143,2.35,0.02,0.0167,0.5167,5,2D1U,2,False,0.275,10,True,right,P08
144,0.5,99,1,0.3,0.2,0.7667,144,2.15,-0.22,-0.1167,0.3833,5,1D2U,2,True,0.402,9,True,right,P08
145,0.5,99,1,0.4333,0.3,0.45,145,2.0166,-0.34,-0.1667,0.3333,5,1D3U,1,False,0.341,3,False,left,P08
146,0.5,99,2,0.3833,0.35,0.75,146,2.6333,0.3,0.15,0.65,5,3D1U,2,True,0.258,6,False,right,P08
147,0.5,99,1,0.3667,0.3833,0.6833,147,2.4666,0.06,0.0333,0.5333,5,2D1U,2,False,0.392,10,False,right,P08
148,0.5,99,1,0.2333,0.2,0.8,148,2.2833,0.1,0.05,0.55,5,2D1U,2,False,0.374,10,False,right,P08
149,0.5,99,1,0.2167,0.3,0.6167,149,2.2834,0.3,0.15,0.65,5,3D1U,1,True,0.334,6,False,left,P08
150,0.5,99,2,0.2167,0.4333,0.4667,150,2.2667,0.3,0.15,0.65,5,3D1U,2,True,0.216,6,False,right,P08
151,0.5,99,1,0.3167,0.3,0.8333,151,2.5167,0.14,0.0667,0.5667,5,2D1U,2,False,0.265,10,False,right,P08
152,0.5,99,1,0.2667,0.3,0.5167,152,2.1667,0.18,0.0833,0.5833,5,2D1U,1,True,0.4,10,False,left,P08
153,0.5,99,1,0.3833,0.2333,0.65,153,2.3999,0.26,0.1333,0.6333,5,3D1U,2,False,0.516,7,True,right,P08
0,0.5,99,2,0.3,0.2333,0.8333,0,1.9166,-0.9,-0.45,0.05,5,1D3U,1,True,1.672,0,False,left,P06
1,0.5,99,1,0.45,0.2667,0.45,1,1.7667,-0.8,-0.4,0.1,5,lapse_rate,2,True,0.865,0,False,right,P06
2,0.5,99,1,0.3,0.3667,0.85,2,2.0667,-0.9,-0.45,0.05,5,1D2U,2,True,3.282,0,False,right,P06
3,0.5,99,1,0.4167,0.3667,0.7667,3,2.1001,-0.9,-0.45,0.05,5,1D3U,2,True,0.416,0,False,right,P06
4,0.5,99,1,0.2833,0.2333,0.8167,4,1.8833,-0.9,-0.45,0.05,5,3D1U,2,True,0.467,0,False,right,P06
5,0.5,99,2,0.35,0.45,0.8167,5,2.2167,-0.8,-0.4,0.1,5,lapse_rate,1,True,0.308,0,False,left,P06
6,0.5,99,1,0.25,0.2,0.85,6,1.85,-0.9,-0.45,0.05,5,2D1U,2,True,0.517,0,False,right,P06
7,0.5,99,2,0.4,0.3167,0.7333,7,2.0,-0.9,-0.45,0.05,5,1D2U,1,True,0.516,0,False,left,P06
8,0.5,99,1,0.2833,0.45,0.6833,8,2.0499,-0.74,-0.3667,0.1333,5,2D1U,2,True,0.449,0,False,right,P06
9,0.5,99,1,0.3333,0.4,0.6167,9,1.9833,-0.74,-0.3667,0.1333,5,3D1U,2,True,0.392,0,False,right,P06
10,0.5,99,1,0.3333,0.4167,0.7667,10,2.9167,0.8,0.4,0.9,5,lapse_rate,2,False,0.599,0,False,right,P06
11,0.5,99,2,0.4,0.3333,0.4333,11,1.7166,-0.9,-0.45,0.05,5,1D3U,1,True,0.816,0,False,left,P06
12,0.5,99,2,0.4167,0.3667,0.85,12,2.2667,-0.74,-0.3667,0.1333,5,1D2U,1,True,0.55,0,False,left,P06
13,0.5,99,1,0.2,0.4333,0.8667,13,2.2167,-0.58,-0.2833,0.2167,5,3D1U,2,True,0.291,0,False,right,P06
0,0.5,99,1,0.2167,0.2667,0.4,0,1.4334,-0.9,-0.45,0.05,5,1D3U,2,True,0.865,0,False,right,P09
1,0.5,99,1,0.3,0.2833,0.45,1,1.5833,-0.9,-0.45,0.05,5,1D2U,2,True,0.55,0,False,right,P09
2,0.5,99,2,0.2333,0.4333,0.45,2,1.6666,-0.9,-0.45,0.05,5,1D2U,1,True,0.492,0,False,left,P09
3,0.5,99,2,0.2667,0.4167,0.7333,3,2.8167,0.8,0.4,0.9,5,lapse_rate,2,True,1.1,0,False,right,P09
4,0.5,99,2,0.2167,0.3333,0.65,4,1.75,-0.9,-0.45,0.05,5,3D1U,1,True,0.55,0,False,left,P09
5,0.5,99,1,0.4333,0.2667,0.4,5,1.65,-0.9,-0.45,0.05,5,1D3U,2,True,0.592,0,False,right,P09
6,0.5,99,1,0.3,0.35,0.4667,6,1.6667,-0.9,-0.45,0.05,5,2D1U,2,True,0.65,0,False,right,P09
7,0.5,99,1,0.35,0.2167,0.6333,7,1.75,-0.9,-0.45,0.05,5,1D2U,2,True,0.525,0,False,right,P09
8,0.5,99,1,0.3333,0.4,0.6833,8,1.9666,-0.9,-0.45,0.05,5,1D3U,2,True,0.6,0,False,right,P09
9,0.5,99,1,0.2,0.2333,0.8667,9,2.7,0.8,0.4,0.9,5,lapse_rate,1,True,0.534,0,False,left,P09
10,0.5,99,2,0.3,0.2833,0.65,10,1.7833,-0.9,-0.45,0.05,5,2D1U,1,True,0.625,0,False,left,P09
11,0.5,99,2,0.25,0.3,0.4333,11,1.5333,-0.9,-0.45,0.05,5,3D1U,1,True,0.642,0,False,left,P09
12,0.5,99,2,0.3167,0.2333,0.5167,12,1.6167,-0.9,-0.45,0.05,5,1D3U,1,True,0.658,0,False,left,P09
13,0.5,99,1,0.3833,0.2667,0.4,13,1.6,-0.9,-0.45,0.05,5,2D1U,2,True,0.609,0,False,right,P09
14,0.5,99,1,0.4333,0.3833,0.5833,14,1.9499,-0.9,-0.45,0.05,5,1D2U,2,True,0.583,0,False,right,P09
15,0.5,99,2,0.2333,0.2667,0.4833,15,1.5333,-0.9,-0.45,0.05,5,3D1U,1,True,1.041,0,False,left,P09
16,0.5,99,2,0.2667,0.35,0.55,16,2.5667,0.8,0.4,0.9,5,lapse_rate,2,True,1.833,0,False,right,P09
17,0.5,99,2,0.25,0.2,0.5833,17,1.5833,-0.9,-0.45,0.05,5,2D1U,1,True,0.617,0,False,left,P09
18,0.5,99,1,0.3,0.3833,0.5833,18,1.8166,-0.9,-0.45,0.05,5,3D1U,2,True,0.558,0,False,right,P09
19,0.5,99,2,0.2,0.25,0.7,19,1.7,-0.9,-0.45,0.05,5,1D3U,1,True,0.6,0,False,left,P09
20,0.5,99,2,0.35,0.25,0.7667,20,1.9667,-0.8,-0.4,0.1,5,lapse_rate,1,True,0.634,0,False,left,P09
21,0.5,99,1,0.3,0.3833,0.8667,21,2.1,-0.9,-0.45,0.05,5,1D2U,2,True,0.576,0,False,right,P09
22,0.5,99,2,0.4,0.4167,0.6,22,2.0167,-0.8,-0.4,0.1,5,lapse_rate,1,True,1.232,0,False,left,P09
23,0.5,99,1,0.3167,0.4167,0.8333,23,2.1167,-0.9,-0.45,0.05,5,1D3U,2,True,0.708,0,False,right,P09
24,0.5,99,1,0.4167,0.2333,0.8333,24,2.0333,-0.9,-0.45,0.05,5,1D2U,2,True,0.775,0,False,right,P09
25,0.5,99,1,0.25,0.2667,0.5333,25,1.6,-0.9,-0.45,0.05,5,2D1U,2,True,0.633,0,False,right,P09
26,0.5,99,1,0.25,0.4,0.4333,26,1.6333,-0.9,-0.45,0.05,5,3D1U,2,True,0.683,0,False,right,P09
27,0.5,99,2,0.2667,0.2167,0.45,27,1.4834,-0.9,-0.45,0.05,5,2D1U,2,False,0.908,0,False,right,P09
28,0.5,99,2,0.2667,0.3667,0.85,28,2.0334,-0.9,-0.45,0.05,5,3D1U,1,True,0.624,0,False,left,P09
29,0.5,99,1,0.2167,0.25,0.75,29,1.8167,-0.8,-0.4,0.1,5,lapse_rate,2,True,0.6,0,False,right,P09
30,0.5,99,2,0.3167,0.2833,0.6333,30,1.7833,-0.9,-0.45,0.05,5,1D3U,1,True,0.608,0,False,left,P09
31,0.5,99,1,0.2,0.3167,0.4667,31,1.5334,-0.9,-0.45,0.05,5,1D2U,2,True,0.567,0,False,right,P09
32,0.5,99,1,0.2833,0.4333,0.7167,32,2.8333,0.8,0.4,0.9,5,lapse_rate,1,True,0.65,0,False,left,P09
33,0.5,99,1,0.35,0.25,0.4667,33,1.6167,-0.9,-0.45,0.05,5,1D3U,2,True,0.675,0,False,right,P09
34,0.5,99,1,0.2667,0.35,0.5,34,1.6667,-0.9,-0.45,0.05,5,3D1U,2,True,0.584,0,False,right,P09
35,0.5,99,2,0.35,0.3,0.6167,35,1.85,-0.82,-0.4167,0.0833,5,2D1U,1,True,1.216,1,True,left,P09
36,0.5,99,1,0.2833,0.35,0.7,36,1.8833,-0.9,-0.45,0.05,5,1D2U,2,True,0.583,0,False,right,P09
37,0.5,99,2,0.3667,0.3833,0.6333,37,1.9666,-0.82,-0.4167,0.0833,5,2D1U,1,True,0.576,1,True,left,P09
38,0.5,99,2,0.25,0.4333,0.7667,38,2.0,-0.9,-0.45,0.05,5,1D2U,1,True,0.717,0,False,left,P09
39,0.5,99,2,0.35,0.4,0.8333,39,2.1833,-0.8,-0.4,0.1,5,lapse_rate,1,True,0.583,0,False,left,P09
40,0.5,99,2,0.2333,0.3167,0.6167,40,1.7167,-0.9,-0.45,0.05,5,3D1U,1,True,0.726,0,False,left,P09
41,0.5,99,1,0.3833,0.3667,0.8167,41,2.1167,-0.9,-0.45,0.05,5,1D3U,2,True,0.501,0,False,right,P09
42,0.5,99,1,0.2833,0.3333,0.75,42,1.9166,-0.9,-0.45,0.05,5,3D1U,2,True,0.551,0,False,right,P09
43,0.5,99,1,0.25,0.2333,0.55,43,1.5833,-0.9,-0.45,0.05,5,1D2U,2,True,0.625,0,False,right,P09
44,0.5,99,1,0.2667,0.35,0.8333,44,2.0167,-0.86,-0.4333,0.0667,5,2D1U,2,True,0.558,2,True,right,P09
45,0.5,99,1,0.2833,0.3,0.85,45,2.8333,0.8,0.4,0.9,5,lapse_rate,1,True,0.599,0,False,left,P09
46,0.5,99,2,0.3833,0.2833,0.8833,46,2.0999,-0.9,-0.45,0.05,5,1D3U,1,True,0.576,0,False,left,P09
47,0.5,99,2,0.2667,0.4167,0.8333,47,2.0667,-0.9,-0.45,0.05,5,1D2U,1,True,0.592,0,False,left,P09
48,0.5,99,2,0.2333,0.4,0.8333,48,2.0333,-0.86,-0.4333,0.0667,5,2D1U,1,True,0.674,2,True,left,P09
49,0.5,99,2,0.35,0.4,0.5333,49,1.8333,-0.9,-0.45,0.05,5,3D1U,1,True,0.558,0,False,left,P09
50,0.5,99,2,0.4333,0.2667,0.6,50,1.85,-0.9,-0.45,0.05,5,1D3U,1,True,0.642,0,False,left,P09
51,0.5,99,1,0.3,0.4167,0.4833,51,2.6,0.8,0.4,0.9,5,lapse_rate,1,True,0.543,0,False,left,P09
52,0.5,99,1,0.3833,0.3833,0.7,52,2.0166,-0.9,-0.45,0.05,5,2D1U,2,True,0.566,2,False,right,P09
53,0.5,99,1,0.3167,0.3833,0.6833,53,1.9333,-0.9,-0.45,0.05,5,3D1U,2,True,0.525,0,False,right,P09
54,0.5,99,2,0.2833,0.2833,0.8833,54,1.9999,-0.9,-0.45,0.05,5,1D3U,1,True,0.608,0,False,left,P09
55,0.5,99,2,0.45,0.3833,0.6333,55,2.0166,-0.9,-0.45,0.05,5,1D2U,1,True,0.55,0,False,left,P09
56,0.5,99,2,0.2833,0.3667,0.4833,56,1.7333,-0.8,-0.4,0.1,5,lapse_rate,1,True,0.616,0,False,left,P09
57,0.5,99,2,0.3,0.3,0.4,57,1.55,-0.9,-0.45,0.05,5,2D1U,1,True,0.582,2,False,left,P09
58,0.5,99,2,0.4333,0.25,0.4,58,2.4833,0.8,0.4,0.9,5,lapse_rate,1,False,0.691,0,False,left,P09
59,0.5,99,2,0.45,0.3833,0.6833,59,2.0666,-0.9,-0.45,0.05,5,1D2U,1,True,0.925,0,False,left,P09
60,0.5,99,2,0.2833,0.3667,0.5333,60,1.7333,-0.9,-0.45,0.05,5,1D3U,1,True,0.716,0,False,left,P09
61,0.5,99,1,0.2,0.3167,0.7833,61,1.85,-0.9,-0.45,0.05,5,3D1U,2,True,0.815,0,False,right,P09
62,0.5,99,2,0.3667,0.35,0.4167,62,1.7334,-0.8,-0.4,0.1,5,lapse_rate,1,True,0.683,0,False,left,P09
63,0.5,99,1,0.3333,0.3333,0.45,63,1.6666,-0.9,-0.45,0.05,5,2D1U,2,True,0.675,2,False,right,P09
64,0.5,99,1,0.4,0.4167,0.5333,64,1.9,-0.9,-0.45,0.05,5,1D2U,2,True,0.524,0,False,right,P09
65,0.5,99,2,0.3833,0.3833,0.7333,65,2.0499,-0.9,-0.45,0.05,5,1D3U,1,True,0.558,0,False,left,P09
66,0.5,99,2,0.4,0.3,0.45,66,1.7,-0.9,-0.45,0.05,5,3D1U,1,True,0.607,0,False,left,P09
67,0.5,99,2,0.35,0.4333,0.5,67,1.8333,-0.9,-0.45,0.05,5,1D3U,1,True,0.543,0,False,left,P09
68,0.5,99,1,0.3,0.3167,0.8167,68,1.9834,-0.9,-0.45,0.05,5,2D1U,2,True,0.507,2,False,right,P09
69,0.5,99,1,0.4,0.3833,0.5333,69,1.8666,-0.9,-0.45,0.05,5,3D1U,2,True,1.091,0,False,right,P09
70,0.5,99,1,0.2333,0.2333,0.5833,70,1.5999,-0.9,-0.45,0.05,5,1D2U,2,True,0.69,0,False,right,P09
71,0.5,99,1,0.3,0.4333,0.6333,71,1.9666,-0.8,-0.4,0.1,5,lapse_rate,2,True,0.542,0,False,right,P09
72,0.5,99,2,0.25,0.2833,0.55,72,1.6333,-0.9,-0.45,0.05,5,1D2U,1,True,0.625,0,False,left,P09
73,0.5,99,2,0.4333,0.2333,0.7167,73,1.9333,-0.9,-0.45,0.05,5,3D1U,1,True,0.725,0,False,left,P09
74,0.5,99,2,0.4,0.3333,0.7167,74,2.0,-0.9,-0.45,0.05,5,1D3U,1,True,0.558,0,False,left,P09
75,0.5,99,1,0.2333,0.35,0.4167,75,1.55,-0.9,-0.45,0.05,5,2D1U,2,True,0.509,2,False,right,P09
76,0.5,99,1,0.4167,0.3,0.6833,76,1.95,-0.9,-0.45,0.05,5,1D3U,2,True,0.558,0,False,right,P09
77,0.5,99,2,0.3,0.4333,0.4,77,1.6833,-0.9,-0.45,0.05,5,1D3U,1,True,0.5,0,False,left,P09
78,0.5,99,2,0.4,0.4167,0.8833,78,2.25,-0.9,-0.45,0.05,5,1D3U,1,True,0.516,0,False,left,P09
79,0.5,99,1,0.3833,0.2833,0.6,79,1.8166,-0.9,-0.45,0.05,5,2D1U,2,True,0.466,2,False,right,P09
80,0.5,99,1,0.3333,0.35,0.45,80,1.6833,-0.9,-0.45,0.05,5,1D2U,2,True,0.659,0,False,right,P09
81,0.5,99,2,0.2333,0.4333,0.6167,81,1.8333,-0.9,-0.45,0.05,5,3D1U,1,True,0.549,0,False,left,P09
82,0.5,99,1,0.45,0.2333,0.7333,82,1.9666,-0.9,-0.45,0.05,5,1D3U,2,True,0.518,0,False,right,P09
83,0.5,99,1,0.4333,0.4333,0.6,83,2.0166,-0.9,-0.45,0.05,5,1D2U,2,True,0.567,0,False,right,P09
84,0.5,99,2,0.4333,0.3667,0.7167,84,2.0667,-0.9,-0.45,0.05,5,3D1U,1,True,0.442,0,False,left,P09
85,0.5,99,1,0.2833,0.4,0.5,85,1.7333,-0.9,-0.45,0.05,5,2D1U,2,True,0.499,2,False,right,P09
86,0.5,99,1,0.2333,0.2167,0.85,86,1.85,-0.9,-0.45,0.05,5,1D3U,2,True,0.567,0,False,right,P09
87,0.5,99,1,0.35,0.3,0.6667,87,1.8667,-0.9,-0.45,0.05,5,1D3U,2,True,0.507,0,False,right,P09
88,0.5,99,1,0.2667,0.3,0.5333,88,1.65,-0.9,-0.45,0.05,5,2D1U,2,True,0.5,2,False,right,P09
89,0.5,99,2,0.3,0.2833,0.55,89,1.6833,-0.9,-0.45,0.05,5,3D1U,1,True,1.274,0,False,left,P09
90,0.5,99,1,0.3,0.2667,0.5,90,1.6167,-0.9,-0.45,0.05,5,3D1U,2,True,0.493,0,False,right,P09
91,0.5,99,2,0.3,0.3167,0.6667,91,1.8334,-0.9,-0.45,0.05,5,1D2U,1,True,0.559,0,False,left,P09
