Unnamed: 0,standardDur,audNoise,order,preDur,postDur,isiDur,trial_num,totalDur,delta_dur_percents,deltaDurS,testDurS,intensities,current_stair,responses,is_correct,response_rts,stair_num_reversal,stair_is_reversal,response_keys,conflictDur,recordedOnsetVisualTest,recordedOffsetVisualTest,recordedDurVisualTest,recordedOnsetVisualStandard,recordedOffsetVisualStandard,recordedDurVisualStandard,modalityCue,VisualPSE
0,0.5004,1.2,2,0.43368,0.38364,0.80064,0,2.14338,-0.95,-0.47538,0.02502,5,2D1U,1.0,True,0.586,0,False,left,0.1668,1.8166,1.975,0.1584,0.2837,1.0825,0.7988,A,0.135
1,0.5004,1.2,1,0.35862,0.2085,0.42534,1,1.51788,-0.95,-0.47538,0.02502,5,1D2U,2.0,True,0.442,0,False,right,-0.0834,0.2939,0.4529,0.159,0.8527,1.4023,0.5496,A,0.135
2,0.5004,0.1,1,0.21684,0.44202,0.74226,2,1.92654,-0.95,-0.47538,0.02502,5,1D2U,1.0,False,0.542,0,False,left,0.1668,0.1469,0.3053,0.1584,0.8966,1.697,0.8004,A,0.13
3,0.5004,0.1,1,0.44202,0.31692,0.80064,3,3.01074,0.9,0.45036,0.95076,5,lapse_rate,1.0,True,0.534,0,False,left,-0.0834,0.3714,1.4546,1.0832,2.2298,2.7799,0.5502,A,0.13
4,0.5004,0.1,2,0.35028,0.38364,0.42534,4,1.76808,-0.79,-0.39198,0.10842,5,2D1U,1.0,True,0.716,0,False,left,0.1668,1.3574,1.599,0.2416,0.1991,0.9989,0.7998,A,0.13
5,0.5004,1.2,2,0.2085,0.40032,0.77562,5,1.90986,-0.95,-0.47538,0.02502,5,1D2U,1.0,True,0.659,0,False,left,-0.0834,1.4395,1.5987,0.1592,0.1814,0.7319,0.5505,A,0.135
6,0.5004,1.2,1,0.30858,0.44202,0.70056,6,2.13504,-0.63,-0.31692,0.18348,5,2D1U,2.0,True,0.111,0,False,right,0.1668,0.2447,0.5614,0.3167,1.1114,1.9115,0.8001,A,0.135
7,0.5004,1.2,2,0.36696,0.44202,0.64218,7,2.90232,0.9,0.45036,0.95076,5,lapse_rate,1.0,False,0.457,0,False,left,-0.0834,1.4623,2.5457,1.0834,0.3373,0.8867,0.5495,A,0.135
8,0.5004,0.1,2,0.42534,0.21684,0.85902,8,2.95236,0.9,0.45036,0.95076,5,lapse_rate,2.0,True,0.384,0,False,right,0.1668,1.8689,2.9528,1.0839,0.2767,1.0774,0.8007,A,0.13
9,0.5004,0.1,1,0.2919,0.31692,0.7923,9,1.92654,-0.95,-0.47538,0.02502,5,1D2U,2.0,True,0.984,0,False,right,-0.0834,0.2274,0.3858,0.1584,1.1521,1.7021,0.55,A,0.13
10,0.5004,0.1,1,0.25854,0.44202,0.40032,10,1.86816,-0.47,-0.23352,0.26688,5,2D1U,2.0,True,0.141,0,False,right,0.1668,0.1898,0.5891,0.3992,0.8396,1.6396,0.8,A,0.13
11,0.5004,1.2,2,0.22518,0.2919,0.80064,11,1.88484,-0.87,-0.43368,0.06672,5,1D2U,1.0,True,0.858,1,True,left,-0.0834,1.4795,1.679,0.1995,0.1958,0.7461,0.5502,A,0.135
12,0.5004,1.2,1,0.26688,0.21684,0.56712,12,1.89318,-0.31,-0.15846,0.34194,5,2D1U,1.0,False,4.792,0,False,left,0.1668,0.2031,0.6784,0.4753,1.095,1.8953,0.8002,A,0.135
13,0.5004,1.2,1,0.27522,0.39198,0.7923,13,1.98492,-0.95,-0.47538,0.02502,5,lapse_rate,1.0,False,0.5,0,False,left,-0.0834,0.2067,0.3649,0.1582,1.1317,1.6819,0.5501,A,0.135
14,0.5004,0.1,1,0.34194,0.25854,0.7089,14,2.76054,0.9,0.45036,0.95076,5,lapse_rate,1.0,True,0.368,0,False,left,0.1668,0.2727,1.3565,1.0838,1.9144,2.7145,0.8001,A,0.13
15,0.5004,0.1,2,0.2919,0.26688,0.68388,15,1.80978,-0.87,-0.43368,0.06672,5,1D2U,1.0,True,0.409,1,True,left,-0.0834,1.4344,1.6344,0.2,0.2681,0.8174,0.5493,A,0.13
16,0.5004,0.1,2,0.20016,0.417,0.57546,16,2.03496,-0.31,-0.15846,0.34194,5,2D1U,2.0,False,1.576,0,False,right,0.1668,1.3547,1.8294,0.4747,0.0464,0.8467,0.8004,A,0.13
17,0.5004,0.1,1,0.44202,0.24186,0.78396,17,1.99326,-0.95,-0.47538,0.02502,5,lapse_rate,2.0,True,0.767,0,False,right,-0.0834,0.3706,0.5288,0.1582,1.2871,1.8373,0.5502,A,0.13
18,0.5004,1.2,2,0.42534,0.38364,0.85068,18,2.26848,-0.79,-0.39198,0.10842,5,1D2U,1.0,True,0.442,1,False,left,0.1668,1.8563,2.0983,0.242,0.2729,1.0735,0.8006,A,0.135
19,0.5004,1.2,1,0.30024,0.38364,0.85902,19,2.35188,-0.39,-0.19182,0.30858,5,2D1U,2.0,True,0.583,1,True,right,-0.0834,0.2369,0.6786,0.4417,1.512,2.0615,0.5495,A,0.135
20,0.5004,0.1,1,0.26688,0.2919,0.81732,20,1.98492,-0.79,-0.39198,0.10842,5,1D2U,2.0,True,0.492,1,False,right,0.1668,0.1988,0.4404,0.2416,1.1072,1.907,0.7998,A,0.13
21,0.5004,0.1,2,0.35028,0.40866,0.60882,21,2.81892,0.9,0.45036,0.95076,5,lapse_rate,2.0,True,0.35,0,False,right,-0.0834,1.4144,2.4983,1.0839,0.3229,0.8726,0.5497,A,0.13
22,0.5004,0.1,1,0.24186,0.3336,0.59214,22,1.99326,-0.35,-0.17514,0.32526,5,2D1U,2.0,True,0.317,2,True,right,0.1668,0.1775,0.6356,0.4581,1.0773,1.8776,0.8003,A,0.13
23,0.5004,0.1,2,0.38364,0.22518,0.5838,23,1.71804,-0.95,-0.47538,0.02502,5,lapse_rate,1.0,True,0.9,0,False,left,-0.0834,1.4262,1.5845,0.1583,0.36,0.9096,0.5496,A,0.13
24,0.5004,1.2,2,0.43368,0.24186,0.77562,24,2.2935,-0.31,-0.15846,0.34194,5,2D1U,1.0,True,0.492,2,False,left,0.1668,1.7891,2.2639,0.4748,0.2797,1.0799,0.8002,A,0.135
25,0.5004,1.2,2,0.42534,0.2919,0.48372,25,1.84314,-0.71,-0.35862,0.14178,5,1D2U,1.0,True,0.766,1,False,left,-0.0834,1.3633,1.638,0.2747,0.3967,0.9462,0.5495,A,0.135
26,0.5004,1.2,2,0.2085,0.24186,0.74226,26,2.64378,0.9,0.45036,0.95076,5,lapse_rate,2.0,True,0.459,0,False,right,0.1668,1.5314,2.6144,1.083,0.0563,0.8558,0.7994,A,0.135
27,0.5004,0.1,2,0.24186,0.43368,0.4587,27,2.0016,-0.27,-0.13344,0.36696,5,2D1U,1.0,True,0.5,2,False,left,-0.0834,1.1561,1.6562,0.5002,0.2144,0.7647,0.5503,A,0.13
28,0.5004,0.1,2,0.40032,0.30858,0.59214,28,1.94322,-0.71,-0.35862,0.14178,5,1D2U,1.0,True,0.617,1,False,left,0.1668,1.5733,1.8482,0.2749,0.2485,1.0483,0.7998,A,0.13
29,0.5004,1.2,1,0.2919,0.35028,0.88404,29,2.05164,-0.95,-0.47538,0.02502,5,lapse_rate,2.0,True,1.224,0,False,right,-0.0834,0.2279,0.3862,0.1583,1.2447,1.7947,0.5501,A,0.135
30,0.5004,1.2,2,0.27522,0.35862,0.76728,30,2.085,-0.63,-0.31692,0.18348,5,1D2U,1.0,True,0.825,1,False,left,0.1668,1.6259,1.9432,0.3174,0.1261,0.9257,0.7996,A,0.135
31,0.5004,1.2,2,0.23352,0.2502,0.60882,31,1.97658,-0.23,-0.11676,0.38364,5,2D1U,2.0,False,0.408,2,False,right,-0.0834,1.2979,1.8141,0.5161,0.2055,0.7559,0.5504,A,0.135
32,0.5004,0.1,1,0.26688,0.417,0.47538,32,2.0433,-0.23,-0.11676,0.38364,5,2D1U,2.0,True,0.333,2,False,right,0.1668,0.2014,0.7179,0.5165,1.0424,1.8431,0.8007,A,0.13
33,0.5004,0.1,2,0.35862,0.20016,0.82566,33,2.06832,-0.63,-0.31692,0.18348,5,1D2U,1.0,True,0.467,1,False,left,-0.0834,1.643,1.9597,0.3167,0.3346,0.8839,0.5494,A,0.13
34,0.5004,1.2,2,0.36696,0.23352,0.89238,34,2.01828,-0.95,-0.47538,0.02502,5,lapse_rate,1.0,True,0.508,0,False,left,0.1668,1.8372,1.9955,0.1582,0.2123,1.0123,0.8,A,0.135
35,0.5004,1.2,1,0.2919,0.30024,0.85902,35,1.97658,-0.95,-0.47538,0.02502,5,lapse_rate,2.0,True,0.408,0,False,right,-0.0834,0.2245,0.3827,0.1582,1.2163,1.7663,0.55,A,0.135
36,0.5004,1.2,2,0.42534,0.45036,0.61716,36,2.21844,-0.55,-0.27522,0.22518,5,1D2U,1.0,True,0.583,1,False,left,0.1668,1.6216,1.9799,0.3583,0.2714,1.0707,0.7993,A,0.135
37,0.5004,1.2,2,0.28356,0.27522,0.5838,37,2.05164,-0.19,-0.09174,0.40866,5,2D1U,1.0,True,0.517,2,False,left,-0.0834,1.3282,1.8698,0.5416,0.2614,0.8109,0.5495,A,0.135
38,0.5004,0.1,1,0.30858,0.3336,0.78396,38,2.35188,-0.15,-0.07506,0.42534,5,2D1U,1.0,False,0.583,2,False,left,0.1668,0.2392,0.7974,0.5582,1.4311,2.2308,0.7997,A,0.13
39,0.5004,0.1,2,0.39198,0.23352,0.42534,39,1.77642,-0.55,-0.27522,0.22518,5,1D2U,1.0,True,0.559,1,False,left,-0.0834,1.2728,1.631,0.3582,0.3642,0.9144,0.5502,A,0.13
40,0.5004,1.2,2,0.2085,0.44202,0.53376,40,2.63544,0.9,0.45036,0.95076,5,lapse_rate,2.0,True,0.142,0,False,right,0.1668,1.3232,2.4058,1.0826,0.0561,0.8564,0.8003,A,0.135
41,0.5004,1.2,1,0.30858,0.3336,0.52542,41,1.93488,-0.47,-0.23352,0.26688,5,1D2U,2.0,True,0.384,1,False,right,-0.0834,0.2396,0.6413,0.4017,1.1407,1.6907,0.55,A,0.135
42,0.5004,1.2,1,0.32526,0.43368,0.80064,42,2.48532,-0.15,-0.07506,0.42534,5,2D1U,2.0,True,0.4,2,False,right,0.1668,0.2536,0.8119,0.5583,1.4621,2.2621,0.8,A,0.135
43,0.5004,1.2,2,0.25854,0.27522,0.42534,43,2.41026,0.9,0.45036,0.95076,5,lapse_rate,2.0,True,0.484,0,False,right,-0.0834,1.1403,2.2232,1.0829,0.2317,0.781,0.5493,A,0.135
44,0.5004,0.1,1,0.22518,0.25854,0.61716,44,2.0433,-0.11,-0.05838,0.44202,5,2D1U,2.0,True,0.284,2,False,right,0.1668,0.1613,0.736,0.5747,1.2029,2.0023,0.7994,A,0.13
45,0.5004,0.1,2,0.20016,0.38364,0.81732,45,1.92654,-0.95,-0.47538,0.02502,5,lapse_rate,1.0,True,0.492,0,False,left,-0.0834,1.4727,1.631,0.1583,0.1728,0.7229,0.5502,A,0.13
46,0.5004,0.1,1,0.35862,0.30858,0.42534,46,1.85982,-0.47,-0.23352,0.26688,5,1D2U,1.0,False,0.825,1,False,left,0.1668,0.2877,0.6877,0.4,0.9629,1.7627,0.7998,A,0.13
47,0.5004,1.2,1,0.25854,0.44202,0.73392,47,2.17674,-0.51,-0.25854,0.24186,5,1D2U,2.0,True,0.276,2,True,right,-0.0834,0.1886,0.5626,0.374,1.2715,1.8212,0.5497,A,0.135
48,0.5004,1.2,1,0.35028,0.3753,0.43368,48,1.68468,-0.95,-0.47538,0.02502,5,lapse_rate,2.0,True,0.113,0,False,right,0.1668,0.285,0.4431,0.1581,0.7266,1.5266,0.8,A,0.135
49,0.5004,1.2,1,0.417,0.34194,0.61716,49,2.34354,-0.07,-0.03336,0.46704,5,2D1U,2.0,True,0.35,2,False,right,-0.0834,0.3514,0.9508,0.5993,1.5434,2.0932,0.5498,A,0.135
50,0.5004,0.1,1,0.28356,0.27522,0.63384,50,1.71804,-0.95,-0.47538,0.02502,5,lapse_rate,2.0,True,0.35,0,False,right,0.1668,0.2139,0.3723,0.1584,0.8557,1.6554,0.7997,A,0.13
51,0.5004,0.1,2,0.34194,0.44202,0.55878,51,2.085,-0.51,-0.25854,0.24186,5,1D2U,1.0,True,0.358,2,True,left,-0.0834,1.3559,1.731,0.3751,0.3144,0.8644,0.55,A,0.13
52,0.5004,0.1,2,0.42534,0.22518,0.42534,52,2.05998,-0.03,-0.01668,0.48372,5,2D1U,1.0,True,0.617,2,False,left,0.1668,1.4322,2.0488,0.6166,0.2732,1.0737,0.8004,A,0.13
53,0.5004,1.2,1,0.32526,0.3336,0.7089,53,2.13504,-0.47,-0.23352,0.26688,5,1D2U,2.0,True,0.366,3,True,right,-0.0834,0.2548,0.6555,0.4007,1.3377,1.8882,0.5505,A,0.135
54,0.5004,1.2,1,0.417,0.20016,0.44202,54,2.06832,0.01,0.00834,0.50874,5,2D1U,2.0,False,0.383,2,False,right,0.1668,0.3507,0.9926,0.6418,1.2844,2.089,0.8046,A,0.135
55,0.5004,0.1,2,0.40032,0.25854,0.81732,55,2.0016,-0.95,-0.47538,0.02502,5,lapse_rate,1.0,True,0.442,0,False,left,-0.0834,1.6782,1.8364,0.1583,0.3783,0.9284,0.5501,A,0.13
56,0.5004,0.1,2,0.40866,0.27522,0.82566,56,2.53536,0.05,0.02502,0.52542,5,2D1U,1.0,False,0.467,2,False,left,0.1668,1.8205,2.4784,0.6579,0.2619,1.0618,0.7999,A,0.13
57,0.5004,0.1,2,0.3336,0.20016,0.65052,57,1.95156,-0.47,-0.23352,0.26688,5,1D2U,1.0,True,0.426,3,True,left,-0.0834,1.4401,1.8403,0.4001,0.3064,0.8564,0.55,A,0.13
58,0.5004,1.2,1,0.26688,0.34194,0.55878,58,1.69302,-0.95,-0.47538,0.02502,5,lapse_rate,2.0,True,0.308,0,False,right,0.1668,0.1977,0.3558,0.1582,0.7637,1.5643,0.8007,A,0.135
59,0.5004,1.2,2,0.2502,0.2502,0.7506,59,2.2935,0.09,0.0417,0.5421,5,2D1U,2.0,True,0.376,2,False,right,-0.0834,1.4621,2.1372,0.6751,0.2285,0.7781,0.5496,A,0.135
60,0.5004,1.2,2,0.26688,0.2919,0.40866,60,1.7514,-0.43,-0.21684,0.28356,5,1D2U,1.0,True,0.291,3,False,left,0.1668,1.2577,1.6744,0.4167,0.1161,0.9163,0.8002,A,0.135
61,0.5004,0.1,1,0.21684,0.40032,0.74226,61,2.81058,0.9,0.45036,0.95076,5,lapse_rate,1.0,True,0.366,0,False,left,-0.0834,0.1463,1.2301,1.0839,1.9462,2.4965,0.5502,A,0.13
62,0.5004,0.1,1,0.23352,0.36696,0.82566,62,2.46864,0.09,0.0417,0.5421,5,2D1U,1.0,True,0.2,2,False,left,0.1668,0.1683,0.8433,0.675,1.5183,2.3183,0.8,A,0.13
63,0.5004,1.2,1,0.32526,0.32526,0.61716,63,2.71884,0.9,0.45036,0.95076,5,lapse_rate,1.0,True,0.607,0,False,left,-0.0834,0.2562,1.3396,1.0834,1.9307,2.4807,0.55,A,0.135
64,0.5004,0.1,2,0.40866,0.43368,0.59214,64,2.21844,-0.43,-0.21684,0.28356,5,1D2U,1.0,True,0.342,3,False,left,0.1668,1.5814,1.9982,0.4168,0.2564,1.0558,0.7994,A,0.13
65,0.5004,1.2,1,0.417,0.36696,0.834,65,2.64378,0.05,0.02502,0.52542,5,2D1U,1.0,True,0.466,3,True,left,-0.0834,0.3468,1.0048,0.658,1.8138,2.3638,0.55,A,0.135
66,0.5004,1.2,1,0.35028,0.26688,0.40032,66,2.46864,0.9,0.45036,0.95076,5,lapse_rate,1.0,True,0.443,0,False,left,0.1668,0.2805,1.3632,1.0827,1.6132,2.4133,0.8001,A,0.135
67,0.5004,1.2,2,0.30024,0.23352,0.45036,67,1.7931,-0.39,-0.19182,0.30858,5,1D2U,1.0,True,0.417,3,False,left,-0.0834,1.2079,1.6494,0.4416,0.2743,0.8242,0.5499,A,0.135
68,0.5004,0.1,1,0.43368,0.25854,0.55044,68,2.05164,-0.39,-0.19182,0.30858,5,1D2U,2.0,True,0.251,3,False,right,0.1668,0.365,0.8068,0.4418,1.2068,2.007,0.8002,A,0.13
69,0.5004,0.1,1,0.40866,0.28356,0.55878,69,1.77642,-0.95,-0.47538,0.02502,5,lapse_rate,2.0,True,0.309,0,False,right,-0.0834,0.3448,0.5027,0.1578,1.036,1.5854,0.5494,A,0.13
70,0.5004,0.1,2,0.28356,0.30858,0.60882,70,2.22678,0.05,0.02502,0.52542,5,2D1U,2.0,True,0.691,3,True,right,0.1668,1.4757,2.1339,0.6582,0.133,0.9338,0.8008,A,0.13
71,0.5004,1.2,1,0.34194,0.25854,0.80064,71,1.92654,-0.95,-0.47538,0.02502,5,lapse_rate,2.0,True,0.342,0,False,right,-0.0834,0.2732,0.4316,0.1584,1.2065,1.7563,0.5499,A,0.135
72,0.5004,1.2,1,0.44202,0.34194,0.5421,72,2.15172,-0.35,-0.17514,0.32526,5,1D2U,2.0,True,0.325,3,False,right,0.1668,0.374,0.8314,0.4574,1.2243,2.0232,0.7988,A,0.135
73,0.5004,1.2,1,0.21684,0.44202,0.69222,73,2.36022,0.01,0.00834,0.50874,5,2D1U,2.0,False,0.4,3,False,right,-0.0834,0.149,0.7904,0.6414,1.4572,2.0072,0.55,A,0.135
74,0.5004,0.1,2,0.30024,0.28356,0.47538,74,2.085,0.05,0.02502,0.52542,5,2D1U,2.0,True,0.424,4,True,right,0.1668,1.3557,2.0138,0.6581,0.1471,0.9472,0.8001,A,0.13
75,0.5004,0.1,2,0.3753,0.21684,0.50874,75,1.92654,-0.35,-0.17514,0.32526,5,1D2U,1.0,True,0.617,3,False,left,-0.0834,1.3456,1.8037,0.4582,0.3535,0.9029,0.5494,A,0.13
76,0.5004,0.1,2,0.27522,0.22518,0.74226,76,2.69382,0.9,0.45036,0.95076,5,lapse_rate,2.0,True,0.351,0,False,right,0.1668,1.5965,2.6795,1.083,0.1209,0.9219,0.801,A,0.13
77,0.5004,1.2,1,0.44202,0.42534,0.74226,77,2.63544,0.05,0.02502,0.52542,5,2D1U,2.0,False,0.4,4,True,right,-0.0834,0.3768,1.0348,0.658,1.7513,2.3011,0.5499,A,0.135
78,0.5004,1.2,1,0.42534,0.35028,0.5421,78,2.16006,-0.31,-0.15846,0.34194,5,1D2U,2.0,True,0.112,3,False,right,0.1668,0.3537,0.8287,0.475,1.2203,2.0203,0.8,A,0.135
79,0.5004,1.2,2,0.27522,0.35862,0.55044,79,2.63544,0.9,0.45036,0.95076,5,lapse_rate,2.0,True,0.267,0,False,right,-0.0834,1.2809,2.3643,1.0834,0.2478,0.7982,0.5504,A,0.135
80,0.5004,0.1,2,0.2085,0.3336,0.40032,80,1.78476,-0.31,-0.15846,0.34194,5,1D2U,1.0,True,0.276,3,False,left,0.1668,1.1899,1.6649,0.475,0.0572,0.8562,0.799,A,0.13
81,0.5004,0.1,1,0.34194,0.30858,0.76728,81,2.86896,0.9,0.45036,0.95076,5,lapse_rate,1.0,True,0.35,0,False,left,-0.0834,0.2699,1.353,1.0831,2.0955,2.6453,0.5498,A,0.13
82,0.5004,0.1,2,0.35028,0.24186,0.5004,82,2.13504,0.09,0.0417,0.5421,5,2D1U,1.0,False,0.325,4,False,left,0.1668,1.428,2.104,0.676,0.1955,0.9953,0.7998,A,0.13
83,0.5004,1.2,1,0.36696,0.34194,0.80898,83,2.38524,-0.27,-0.13344,0.36696,5,1D2U,1.0,False,0.575,3,False,left,-0.0834,0.2978,0.798,0.5002,1.5825,2.132,0.5495,A,0.135
84,0.5004,1.2,2,0.21684,0.2919,0.72558,84,2.68548,0.9,0.45036,0.95076,5,lapse_rate,1.0,False,0.441,0,False,left,0.1668,1.5265,2.6095,1.083,0.0683,0.8681,0.7997,A,0.135
85,0.5004,1.2,1,0.40866,0.35862,0.5421,85,2.3769,0.13,0.06672,0.56712,5,2D1U,1.0,True,0.601,4,False,left,-0.0834,0.3402,1.0398,0.6995,1.5564,2.1064,0.55,A,0.135
86,0.5004,0.1,1,0.23352,0.23352,0.57546,86,2.11002,0.13,0.06672,0.56712,5,2D1U,1.0,True,0.367,4,False,left,0.1668,0.1622,0.8623,0.7,1.2873,2.0873,0.8,A,0.13
87,0.5004,0.1,2,0.35028,0.2502,0.84234,87,2.28516,-0.31,-0.15846,0.34194,5,1D2U,1.0,True,0.692,4,True,left,-0.0834,1.6509,2.1259,0.475,0.3254,0.8752,0.5498,A,0.13
88,0.5004,0.1,1,0.28356,0.34194,0.5004,88,1.65132,-0.95,-0.47538,0.02502,5,lapse_rate,2.0,True,0.284,0,False,right,0.1668,0.2201,0.378,0.1579,0.7286,1.5286,0.7999,A,0.13
89,0.5004,1.2,1,0.3753,0.43368,0.49206,89,2.34354,0.09,0.0417,0.5421,5,2D1U,2.0,False,0.425,5,True,right,-0.0834,0.3082,0.9835,0.6753,1.4503,2.0005,0.5502,A,0.135
90,0.5004,1.2,1,0.35028,0.30858,0.85068,90,2.35188,-0.31,-0.15846,0.34194,5,1D2U,2.0,True,0.113,4,True,right,0.1668,0.2844,0.7592,0.4748,1.4596,2.2592,0.7996,A,0.135
91,0.5004,0.1,1,0.39198,0.24186,0.47538,91,1.63464,-0.95,-0.47538,0.02502,5,lapse_rate,2.0,True,0.475,0,False,right,-0.0834,0.3216,0.4793,0.1577,0.9299,1.48,0.5501,A,0.13
92,0.5004,0.1,1,0.40866,0.30858,0.85068,92,2.43528,-0.27,-0.13344,0.36696,5,1D2U,1.0,False,0.4,5,True,left,0.1668,0.3392,0.8392,0.5,1.5391,2.3391,0.8,A,0.13
93,0.5004,1.2,2,0.40032,0.26688,0.76728,93,2.88564,0.9,0.45036,0.95076,5,lapse_rate,2.0,True,0.534,0,False,right,-0.0834,1.6206,2.704,1.0834,0.3714,0.9211,0.5498,A,0.135
94,0.5004,0.1,2,0.26688,0.3336,0.7506,94,2.4186,0.13,0.06672,0.56712,5,2D1U,2.0,True,0.667,6,True,right,0.1668,1.6015,2.3012,0.6997,0.1178,0.9183,0.8005,A,0.13
95,0.5004,1.2,1,0.35862,0.36696,0.7506,95,2.5437,0.13,0.06672,0.56712,5,2D1U,1.0,True,0.35,6,True,left,-0.0834,0.2881,0.9882,0.7001,1.7134,2.2636,0.5502,A,0.135
96,0.5004,0.1,1,0.36696,0.40866,0.60882,96,2.8356,0.9,0.45036,0.95076,5,lapse_rate,1.0,True,0.183,0,False,left,0.1668,0.2981,1.3814,1.0833,1.8395,2.6398,0.8003,A,0.13
97,0.5004,1.2,2,0.31692,0.2085,0.55044,97,1.9182,-0.31,-0.15846,0.34194,5,1D2U,1.0,True,0.81,6,True,left,-0.0834,1.3223,1.7977,0.4754,0.2891,0.839,0.5499,A,0.135
98,0.5004,1.2,1,0.43368,0.36696,0.80064,98,2.1267,-0.95,-0.47538,0.02502,5,lapse_rate,2.0,True,0.267,0,False,right,0.1668,0.3651,0.5233,0.1582,1.1734,1.974,0.8006,A,0.135
99,0.5004,0.1,1,0.3336,0.44202,0.84234,99,2.4603,-0.31,-0.15846,0.34194,5,1D2U,2.0,True,0.484,6,True,right,-0.0834,0.2631,0.738,0.4749,1.5541,2.1053,0.5512,A,0.13
100,0.5004,0.1,2,0.417,0.40032,0.77562,100,2.63544,0.09,0.0417,0.5421,5,2D1U,2.0,True,0.858,7,True,right,0.1668,1.7761,2.4507,0.6745,0.2679,1.0678,0.8,A,0.13
101,0.5004,1.2,2,0.2919,0.2502,0.834,101,2.4186,0.09,0.0417,0.5421,5,2D1U,2.0,True,0.4,7,True,right,-0.0834,1.5797,2.2543,0.6746,0.2627,0.8127,0.55,A,0.135
102,0.5004,1.2,1,0.32526,0.21684,0.8757,102,2.86896,0.9,0.45036,0.95076,5,lapse_rate,1.0,True,0.558,0,False,left,0.1668,0.2567,1.3398,1.0831,2.0641,2.8647,0.8006,A,0.135
103,0.5004,1.2,2,0.42534,0.3336,0.4587,103,2.085,-0.27,-0.13344,0.36696,5,1D2U,2.0,False,0.633,7,True,right,-0.0834,1.3432,1.8434,0.5003,0.401,0.9516,0.5506,A,0.135
104,0.5004,0.1,2,0.44202,0.38364,0.67554,104,2.02662,-0.95,-0.47538,0.02502,5,lapse_rate,1.0,True,0.441,0,False,left,0.1668,1.6959,1.8541,0.1582,0.2872,1.0871,0.7999,A,0.13
105,0.5004,0.1,1,0.44202,0.24186,0.85902,105,2.38524,-0.31,-0.15846,0.34194,5,1D2U,2.0,True,0.5,8,True,right,-0.0834,0.3757,0.85,0.4743,1.6835,2.234,0.5505,A,0.13
106,0.5004,0.1,2,0.2919,0.39198,0.52542,106,2.23512,0.05,0.02502,0.52542,5,2D1U,2.0,True,0.666,7,False,right,0.1668,1.3982,2.0562,0.658,0.14,0.9394,0.7994,A,0.13
107,0.5004,1.2,2,0.22518,0.40032,0.45036,107,2.10168,0.05,0.02502,0.52542,5,2D1U,2.0,True,0.333,7,False,right,-0.0834,1.134,1.7919,0.6578,0.2011,0.7508,0.5498,A,0.135
108,0.5004,0.1,1,0.38364,0.21684,0.52542,108,2.57706,0.9,0.45036,0.95076,5,lapse_rate,1.0,True,0.4,0,False,left,0.1668,0.3181,1.4014,1.0833,1.7763,2.5767,0.8004,A,0.13
109,0.5004,1.2,1,0.43368,0.26688,0.90072,109,2.44362,-0.31,-0.15846,0.34194,5,1D2U,2.0,True,0.417,8,True,right,-0.0834,0.3656,0.8412,0.4756,1.7156,2.2656,0.5501,A,0.135
110,0.5004,0.1,2,0.24186,0.23352,0.61716,110,1.9599,-0.27,-0.13344,0.36696,5,1D2U,2.0,False,0.875,9,True,right,0.1668,1.4396,1.9396,0.5,0.0898,0.8892,0.7994,A,0.13
111,0.5004,0.1,2,0.40032,0.3753,0.67554,111,2.90232,0.9,0.45036,0.95076,5,lapse_rate,2.0,True,0.35,0,False,right,-0.0834,1.5363,2.6192,1.0829,0.3779,0.9274,0.5495,A,0.13
112,0.5004,0.1,2,0.39198,0.21684,0.60882,112,2.22678,0.01,0.00834,0.50874,5,2D1U,1.0,False,0.341,7,False,left,0.1668,1.5828,2.2243,0.6415,0.2418,1.041,0.7992,A,0.13
113,0.5004,1.2,1,0.25854,0.35862,0.45036,113,2.09334,0.05,0.02502,0.52542,5,2D1U,1.0,True,0.299,8,True,left,-0.0834,0.1892,0.8483,0.659,1.2732,1.8231,0.5499,A,0.135
114,0.5004,1.2,2,0.21684,0.35028,0.85902,114,2.8773,0.9,0.45036,0.95076,5,lapse_rate,2.0,True,0.891,0,False,right,0.1668,1.659,2.7427,1.0837,0.0674,0.8673,0.8,A,0.135
115,0.5004,1.2,1,0.27522,0.2085,0.53376,115,1.85982,-0.31,-0.15846,0.34194,5,1D2U,2.0,True,0.467,10,True,right,-0.0834,0.2067,0.6814,0.4746,1.1899,1.7397,0.5498,A,0.135
116,0.5004,0.1,1,0.44202,0.24186,0.64218,116,2.1684,-0.31,-0.15846,0.34194,5,1D2U,2.0,True,0.3,10,True,right,0.1668,0.3732,0.8477,0.4745,1.3394,2.1394,0.8,A,0.13
117,0.5004,0.1,2,0.44202,0.25854,0.89238,117,2.61876,0.05,0.02502,0.52542,5,2D1U,2.0,True,0.458,8,True,right,-0.0834,1.7886,2.4473,0.6587,0.4139,0.9638,0.5499,A,0.13
118,0.5004,0.1,2,0.28356,0.21684,0.72558,118,2.67714,0.9,0.45036,0.95076,5,lapse_rate,2.0,True,0.334,0,False,right,0.1668,1.5953,2.6778,1.0824,0.1366,0.9366,0.8,A,0.13
119,0.5004,1.2,2,0.43368,0.417,0.85902,119,2.71884,0.01,0.00834,0.50874,5,2D1U,2.0,True,0.45,9,True,right,-0.0834,1.7472,2.3887,0.6415,0.4047,0.9553,0.5507,A,0.135
120,0.5004,1.2,2,0.2502,0.32526,0.52542,120,1.96824,-0.27,-0.13344,0.36696,5,1D2U,1.0,True,0.376,11,True,left,0.1668,1.3619,1.862,0.5001,0.1036,0.9034,0.7999,A,0.135
121,0.5004,1.2,1,0.27522,0.3753,0.81732,121,1.99326,-0.95,-0.47538,0.02502,5,lapse_rate,2.0,True,0.283,0,False,right,-0.0834,0.2073,0.3657,0.1584,1.1573,1.7073,0.55,A,0.135
122,0.5004,0.1,1,0.44202,0.42534,0.61716,122,2.49366,0.01,0.00834,0.50874,5,2D1U,2.0,False,0.441,9,True,right,0.1668,0.3736,1.0151,0.6415,1.4813,2.2811,0.7998,A,0.13
123,0.5004,0.1,2,0.2919,0.2085,0.52542,123,1.55124,-0.95,-0.47538,0.02502,5,lapse_rate,1.0,True,0.425,0,False,left,-0.0834,1.2732,1.4314,0.1583,0.2644,0.8149,0.5504,A,0.13
124,0.5004,0.1,2,0.38364,0.22518,0.59214,124,2.06832,-0.27,-0.13344,0.36696,5,1D2U,1.0,True,0.683,11,True,left,0.1668,1.5553,2.0555,0.5002,0.2303,1.0296,0.7993,A,0.13
125,0.5004,1.2,2,0.43368,0.40866,0.49206,125,2.36022,0.05,0.02502,0.52542,5,2D1U,1.0,False,0.2,10,True,left,-0.0834,1.3855,2.0437,0.6582,0.4102,0.9606,0.5503,A,0.135
126,0.5004,0.1,2,0.2085,0.40866,0.6672,126,2.73552,0.9,0.45036,0.95076,5,lapse_rate,2.0,True,0.375,0,False,right,0.1668,1.4545,2.537,1.0825,0.0546,0.854,0.7994,A,0.13
127,0.5004,1.2,2,0.27522,0.34194,0.85902,127,2.36022,-0.23,-0.11676,0.38364,5,1D2U,2.0,False,0.342,11,False,right,-0.0834,1.5942,2.1113,0.517,0.253,0.8029,0.5499,A,0.135
128,0.5004,0.1,1,0.27522,0.25854,0.55878,128,1.9599,-0.27,-0.13344,0.36696,5,1D2U,2.0,True,0.333,12,True,right,0.1668,0.2043,0.7046,0.5003,1.1127,1.9129,0.8002,A,0.13
129,0.5004,1.2,2,0.43368,0.42534,0.53376,129,2.84394,0.9,0.45036,0.95076,5,lapse_rate,2.0,True,0.242,0,False,right,-0.0834,1.4208,2.5039,1.0831,0.4033,0.954,0.5507,A,0.135
130,0.5004,0.1,1,0.36696,0.43368,0.63384,130,2.47698,0.09,0.0417,0.5421,5,2D1U,2.0,False,0.113,10,False,right,0.1668,0.2972,0.9719,0.6748,1.4557,2.2559,0.8001,A,0.13
131,0.5004,1.2,1,0.42534,0.40866,0.5004,131,2.78556,0.9,0.45036,0.95076,5,lapse_rate,1.0,True,0.375,0,False,left,-0.0834,0.3554,1.4386,1.0832,1.9138,2.4639,0.5501,A,0.135
132,0.5004,1.2,2,0.24186,0.40866,0.75894,132,2.47698,0.13,0.06672,0.56712,5,2D1U,1.0,False,0.524,10,False,left,0.1668,1.5835,2.2837,0.7002,0.0914,0.8912,0.7998,A,0.135
133,0.5004,1.2,1,0.23352,0.38364,0.4587,133,1.94322,-0.27,-0.13344,0.36696,5,1D2U,2.0,True,0.308,12,True,right,-0.0834,0.1626,0.6628,0.5001,1.0958,1.6455,0.5496,A,0.135
134,0.5004,0.1,2,0.21684,0.21684,0.85902,134,1.81812,-0.95,-0.47538,0.02502,5,lapse_rate,1.0,True,0.616,0,False,left,0.1668,1.6574,1.8167,0.1593,0.0666,0.8667,0.8001,A,0.13
135,0.5004,0.1,1,0.3753,0.45036,0.7506,135,2.66046,0.17,0.0834,0.5838,5,2D1U,1.0,True,0.284,10,False,left,-0.0834,0.3106,1.0276,0.717,1.7522,2.3024,0.5502,A,0.13
136,0.5004,0.1,1,0.24186,0.42534,0.69222,136,2.24346,-0.23,-0.11676,0.38364,5,1D2U,2.0,True,0.116,13,True,right,0.1668,0.1731,0.6893,0.5162,1.2315,2.0317,0.8002,A,0.13
137,0.5004,1.2,1,0.26688,0.30858,0.43368,137,1.53456,-0.95,-0.47538,0.02502,5,lapse_rate,2.0,True,0.408,0,False,right,-0.0834,0.1952,0.3538,0.1586,0.7621,1.312,0.5499,A,0.135
138,0.5004,1.2,1,0.24186,0.23352,0.42534,138,1.78476,-0.23,-0.11676,0.38364,5,1D2U,1.0,False,1.484,13,True,left,0.1668,0.173,0.6899,0.5169,0.9651,1.7652,0.8001,A,0.135
139,0.5004,1.2,2,0.40032,0.25854,0.78396,139,2.52702,0.17,0.0834,0.5838,5,2D1U,1.0,False,0.351,10,False,left,-0.0834,1.6372,2.3532,0.716,0.3704,0.9203,0.55,A,0.135
140,0.5004,0.1,1,0.24186,0.42534,0.49206,140,2.26848,0.21,0.10842,0.60882,5,2D1U,2.0,False,0.258,10,False,right,0.1668,0.1782,0.9196,0.7414,1.2619,2.0617,0.7997,A,0.13
141,0.5004,0.1,1,0.28356,0.39198,0.53376,141,2.66046,0.9,0.45036,0.95076,5,lapse_rate,1.0,True,0.301,0,False,left,-0.0834,0.219,1.3024,1.0834,1.811,2.3607,0.5497,A,0.13
142,0.5004,0.1,1,0.2919,0.28356,0.45036,142,1.89318,-0.27,-0.13344,0.36696,5,1D2U,2.0,True,0.359,14,True,right,0.1668,0.2245,0.7242,0.4997,1.024,1.824,0.8,A,0.13
143,0.5004,1.2,2,0.40866,0.43368,0.59214,143,2.30184,-0.27,-0.13344,0.36696,5,1D2U,2.0,False,1.417,14,True,right,-0.0834,1.459,1.9592,0.5002,0.3843,0.9341,0.5499,A,0.135
144,0.5004,1.2,2,0.36696,0.21684,0.47538,144,2.18508,0.25,0.1251,0.6255,5,2D1U,2.0,True,0.367,10,False,right,0.1668,1.4198,2.1789,0.7591,0.2125,1.0122,0.7998,A,0.135
145,0.5004,0.1,2,0.20016,0.35028,0.59214,145,1.668,-0.95,-0.47538,0.02502,5,lapse_rate,1.0,True,0.45,0,False,left,-0.0834,1.2512,1.4098,0.1586,0.1769,0.7268,0.5499,A,0.13
146,0.5004,0.1,2,0.36696,0.31692,0.75894,146,2.28516,-0.31,-0.15846,0.34194,5,1D2U,2.0,False,0.9,14,False,right,0.1668,1.7067,2.1818,0.4751,0.2154,1.0157,0.8002,A,0.13
147,0.5004,0.1,2,0.30858,0.39198,0.8757,147,2.70216,0.25,0.1251,0.6255,5,2D1U,2.0,True,0.408,10,False,right,-0.0834,1.6416,2.4,0.7584,0.2834,0.8337,0.5503,A,0.13
148,0.5004,1.2,2,0.45036,0.32526,0.50874,148,1.80978,-0.95,-0.47538,0.02502,5,lapse_rate,1.0,True,0.567,0,False,left,0.1668,1.541,1.6996,0.1585,0.2997,1.0994,0.7998,A,0.135
149,0.5004,1.2,1,0.35862,0.25854,0.81732,149,1.9599,-0.95,-0.47538,0.02502,5,lapse_rate,2.0,True,0.425,0,False,right,-0.0834,0.2933,0.452,0.1587,1.2433,1.7933,0.55,A,0.135
150,0.5004,1.2,1,0.30024,0.32526,0.6255,150,2.07666,-0.35,-0.17514,0.32526,5,1D2U,2.0,True,0.132,14,False,right,0.1668,0.2313,0.6889,0.4576,1.1648,1.9647,0.8,A,0.135
151,0.5004,1.2,1,0.23352,0.2502,0.82566,151,2.4186,0.21,0.10842,0.60882,5,2D1U,2.0,False,0.409,11,True,right,-0.0834,0.1694,0.911,0.7416,1.7111,2.2607,0.5497,A,0.135
152,0.5004,0.1,1,0.32526,0.417,0.52542,152,2.71884,0.9,0.45036,0.95076,5,lapse_rate,1.0,True,0.15,0,False,left,0.1668,0.255,1.338,1.083,1.7129,2.5129,0.8,A,0.13
153,0.5004,0.1,2,0.3753,0.23352,0.59214,153,2.32686,0.25,0.1251,0.6255,5,2D1U,1.0,False,0.416,12,True,left,-0.0834,1.4235,2.1812,0.7577,0.3487,0.898,0.5493,A,0.13
154,0.5004,0.1,1,0.32526,0.2502,0.67554,154,2.07666,-0.35,-0.17514,0.32526,5,1D2U,1.0,False,0.417,14,False,left,0.1668,0.2569,0.7154,0.4585,1.2403,2.0403,0.8001,A,0.13
155,0.5004,1.2,2,0.2919,0.27522,0.7089,155,2.085,-0.39,-0.19182,0.30858,5,1D2U,2.0,False,0.809,14,False,right,-0.0834,1.4619,1.9031,0.4413,0.2704,0.8203,0.5499,A,0.135
156,0.5004,0.1,2,0.22518,0.35028,0.67554,156,1.77642,-0.95,-0.47538,0.02502,5,lapse_rate,1.0,True,0.467,0,False,left,0.1668,1.4804,1.6387,0.1584,0.0722,0.872,0.7998,A,0.13
157,0.5004,1.2,1,0.23352,0.30858,0.5421,157,2.22678,0.29,0.14178,0.64218,5,2D1U,2.0,False,0.426,12,False,right,-0.0834,0.1647,0.9399,0.7752,1.4565,2.0062,0.5497,A,0.135
158,0.5004,0.1,1,0.28356,0.39198,0.7089,158,2.1684,-0.43,-0.21684,0.28356,5,1D2U,1.0,False,0.425,14,False,left,0.1668,0.2153,0.6319,0.4166,1.1906,1.9902,0.7996,A,0.13
159,0.5004,1.2,2,0.42534,0.30024,0.46704,159,1.71804,-0.95,-0.47538,0.02502,5,lapse_rate,1.0,True,0.376,0,False,left,-0.0834,1.3479,1.5064,0.1585,0.3977,0.9478,0.5501,A,0.135
160,0.5004,0.1,2,0.34194,0.39198,0.65052,160,2.55204,0.33,0.1668,0.6672,5,2D1U,1.0,False,0.208,12,False,left,0.1668,1.5771,2.3771,0.8,0.1937,0.9937,0.8,A,0.13
161,0.5004,1.2,2,0.3336,0.43368,0.59214,161,1.88484,-0.95,-0.47538,0.02502,5,lapse_rate,1.0,True,0.541,0,False,left,-0.0834,1.3828,1.5406,0.1577,0.3083,0.8574,0.5491,A,0.135
162,0.5004,1.2,2,0.3753,0.2919,0.60048,162,2.03496,-0.47,-0.23352,0.26688,5,1D2U,1.0,True,0.583,14,False,left,0.1668,1.5615,1.9614,0.3999,0.2281,1.0281,0.8,A,0.135
163,0.5004,1.2,1,0.26688,0.39198,0.40866,163,2.2518,0.37,0.18348,0.68388,5,2D1U,1.0,True,0.525,12,False,left,-0.0834,0.1965,1.0125,0.816,1.3966,1.9465,0.5499,A,0.135
164,0.5004,0.1,1,0.3753,0.31692,0.78396,164,2.66046,0.37,0.18348,0.68388,5,2D1U,1.0,True,0.316,12,False,left,0.1668,0.3087,1.125,0.8164,1.7586,2.5586,0.7999,A,0.13
165,0.5004,0.1,2,0.28356,0.32526,0.74226,165,2.11836,-0.47,-0.23352,0.26688,5,1D2U,1.0,True,0.434,14,False,left,-0.0834,1.4857,1.8854,0.3997,0.2609,0.8107,0.5498,A,0.13
166,0.5004,0.1,2,0.26688,0.28356,0.82566,166,1.90152,-0.95,-0.47538,0.02502,5,lapse_rate,1.0,True,0.408,0,False,left,0.1668,1.6739,1.8324,0.1585,0.1158,0.9154,0.7996,A,0.13
167,0.5004,1.2,2,0.2085,0.28356,0.49206,167,1.76808,-0.43,-0.21684,0.28356,5,1D2U,2.0,False,2.083,15,True,right,-0.0834,1.153,1.5703,0.4173,0.1791,0.729,0.5499,A,0.135
168,0.5004,1.2,1,0.45036,0.31692,0.74226,168,2.67714,0.33,0.1668,0.6672,5,2D1U,2.0,False,0.55,13,True,right,0.1668,0.3858,1.1858,0.8,1.7777,2.5779,0.8002,A,0.135
169,0.5004,1.2,2,0.42534,0.42534,0.51708,169,2.81892,0.9,0.45036,0.95076,5,lapse_rate,2.0,True,0.418,0,False,right,-0.0834,1.3971,2.4808,1.0837,0.3975,0.9475,0.55,A,0.135
170,0.5004,0.1,2,0.44202,0.35862,0.63384,170,2.20176,-0.47,-0.23352,0.26688,5,1D2U,1.0,True,0.425,16,True,left,0.1668,1.655,2.0557,0.4007,0.2882,1.0879,0.7997,A,0.13
171,0.5004,0.1,1,0.417,0.38364,0.50874,171,2.49366,0.37,0.18348,0.68388,5,2D1U,1.0,True,0.384,14,True,left,-0.0834,0.3467,1.1627,0.816,1.6466,2.1969,0.5502,A,0.13
172,0.5004,1.2,2,0.43368,0.35028,0.65052,172,2.61876,0.37,0.18348,0.68388,5,2D1U,2.0,True,0.367,14,True,right,0.1668,1.6645,2.4812,0.8167,0.2812,1.0816,0.8004,A,0.135
173,0.5004,1.2,1,0.42534,0.45036,0.75894,173,2.80224,0.33,0.1668,0.6672,5,2D1U,2.0,False,0.433,15,True,right,-0.0834,0.3537,1.1538,0.8001,1.8871,2.4373,0.5502,A,0.135
174,0.5004,0.1,2,0.26688,0.26688,0.85068,174,2.56872,0.37,0.18348,0.68388,5,2D1U,2.0,True,0.166,16,True,right,0.1668,1.6985,2.515,0.8166,0.1154,0.915,0.7996,A,0.13
175,0.5004,0.1,2,0.30858,0.42534,0.88404,175,2.38524,-0.47,-0.23352,0.26688,5,1D2U,1.0,True,0.525,16,True,left,-0.0834,1.6516,2.0516,0.4,0.2849,0.8346,0.5497,A,0.13
176,0.5004,1.2,1,0.40032,0.28356,0.76728,176,2.63544,0.37,0.18348,0.68388,5,2D1U,1.0,True,0.316,16,True,left,0.1668,0.3372,1.1538,0.8166,1.7701,2.5699,0.7998,A,0.135
177,0.5004,1.2,2,0.35028,0.32526,0.55044,177,2.00994,-0.43,-0.21684,0.28356,5,1D2U,1.0,True,0.559,17,True,left,-0.0834,1.3562,1.7725,0.4163,0.3223,0.8726,0.5503,A,0.135
178,0.5004,0.1,2,0.24186,0.40032,0.74226,178,2.55204,0.33,0.1668,0.6672,5,2D1U,2.0,True,0.433,17,True,right,0.1668,1.5649,2.365,0.8001,0.09,0.8902,0.8001,A,0.13
179,0.5004,0.1,2,0.35028,0.35028,0.7089,179,2.19342,-0.43,-0.21684,0.28356,5,1D2U,1.0,True,0.507,17,True,left,-0.0834,1.5122,1.929,0.4168,0.3204,0.8704,0.55,A,0.13
180,0.5004,1.2,1,0.35028,0.23352,0.834,180,2.22678,-0.39,-0.19182,0.30858,5,1D2U,2.0,True,0.26,17,False,right,0.1668,0.2787,0.7202,0.4416,1.4037,2.2036,0.7999,A,0.135
181,0.5004,1.2,2,0.34194,0.27522,0.81732,181,2.60208,0.33,0.1668,0.6672,5,2D1U,2.0,True,0.909,17,True,right,-0.0834,1.6148,2.4147,0.7999,0.3147,0.8647,0.55,A,0.135
182,0.5004,0.1,1,0.42534,0.35028,0.57546,182,2.16006,-0.39,-0.19182,0.30858,5,1D2U,2.0,True,0.375,17,False,right,0.1668,0.3619,0.8035,0.4416,1.2285,2.0284,0.8,A,0.13
183,0.5004,0.1,1,0.25854,0.40866,0.85068,183,2.34354,-0.35,-0.17514,0.32526,5,1D2U,2.0,True,0.333,17,False,right,-0.0834,0.193,0.6513,0.4583,1.4758,2.0261,0.5503,A,0.13
184,0.5004,1.2,2,0.22518,0.22518,0.84234,184,2.43528,0.29,0.14178,0.64218,5,2D1U,2.0,True,0.124,17,False,right,0.1668,1.6467,2.4216,0.7749,0.0717,0.8715,0.7998,A,0.135
185,0.5004,1.2,1,0.34194,0.40032,0.5004,185,2.38524,0.29,0.14178,0.64218,5,2D1U,2.0,False,0.501,17,False,right,-0.0834,0.2734,1.049,0.7755,1.5227,2.0731,0.5505,A,0.135
186,0.5004,0.1,1,0.30024,0.43368,0.65052,186,2.2101,-0.35,-0.17514,0.32526,5,1D2U,2.0,True,0.3,17,False,right,0.1668,0.2325,0.6909,0.4584,1.1909,1.9909,0.8001,A,0.13
187,0.5004,0.1,2,0.40032,0.3336,0.4587,187,2.36022,0.33,0.1668,0.6672,5,2D1U,2.0,True,0.442,18,True,right,-0.0834,1.3185,2.1187,0.8001,0.3766,0.9267,0.5501,A,0.13
188,0.5004,1.2,2,0.2502,0.36696,0.5421,188,2.32686,0.33,0.1668,0.6672,5,2D1U,2.0,True,0.343,18,True,right,0.1668,1.3765,2.1762,0.7997,0.1017,0.9012,0.7996,A,0.135
189,0.5004,1.2,2,0.24186,0.40032,0.4587,189,1.94322,-0.31,-0.15846,0.34194,5,1D2U,2.0,False,0.525,17,False,right,-0.0834,1.1573,1.6323,0.475,0.2155,0.7657,0.5501,A,0.135
190,0.5004,0.1,2,0.23352,0.40866,0.84234,190,2.6271,0.29,0.14178,0.64218,5,2D1U,2.0,True,0.157,19,True,right,0.1668,1.6592,2.4338,0.7746,0.0837,0.8842,0.8006,A,0.13
191,0.5004,0.1,1,0.24186,0.3753,0.47538,191,2.23512,0.29,0.14178,0.64218,5,2D1U,2.0,False,0.559,19,True,right,-0.0834,0.1722,0.9474,0.7752,1.3971,1.9472,0.5501,A,0.13
192,0.5004,1.2,1,0.3336,0.26688,0.70056,192,2.1267,-0.35,-0.17514,0.32526,5,1D2U,2.0,True,0.308,18,True,right,0.1668,0.2693,0.7275,0.4581,1.2775,2.0775,0.8,A,0.135
193,0.5004,1.2,2,0.35028,0.417,0.4587,193,2.05164,-0.35,-0.17514,0.32526,5,1D2U,2.0,False,0.817,18,True,right,-0.0834,1.2652,1.7227,0.4574,0.3233,0.8737,0.5505,A,0.135
194,0.5004,0.1,1,0.39198,0.36696,0.50874,194,2.43528,0.33,0.1668,0.6672,5,2D1U,1.0,True,0.267,20,True,left,0.1668,0.3263,1.1263,0.8,1.4846,2.2852,0.8006,A,0.13
195,0.5004,0.1,2,0.3336,0.38364,0.40866,195,1.93488,-0.39,-0.19182,0.30858,5,1D2U,1.0,True,0.359,18,False,left,-0.0834,1.2019,1.6435,0.4416,0.3096,0.86,0.5504,A,0.13
196,0.5004,1.2,2,0.38364,0.28356,0.80064,196,2.63544,0.33,0.1668,0.6672,5,2D1U,2.0,True,0.399,20,True,right,0.1668,1.7645,2.5644,0.7999,0.2311,1.0312,0.8001,A,0.135
197,0.5004,1.2,2,0.24186,0.44202,0.53376,197,2.02662,-0.39,-0.19182,0.30858,5,1D2U,1.0,True,0.492,18,False,left,-0.0834,1.2347,1.676,0.4413,0.2176,0.7677,0.5501,A,0.135
198,0.5004,0.1,2,0.26688,0.36696,0.75894,198,2.53536,0.29,0.14178,0.64218,5,2D1U,2.0,True,0.375,21,True,right,0.1668,1.6056,2.3808,0.7753,0.1141,0.9141,0.8,A,0.13
199,0.5004,0.1,1,0.22518,0.26688,0.86736,199,2.18508,-0.35,-0.17514,0.32526,5,1D2U,2.0,True,0.416,19,True,right,-0.0834,0.1535,0.6119,0.4584,1.4538,2.0034,0.5496,A,0.13
200,0.5004,1.2,1,0.3336,0.40866,0.53376,200,2.4186,0.29,0.14178,0.64218,5,2D1U,2.0,False,0.383,21,True,right,0.1668,0.2702,1.0451,0.775,1.4285,2.2278,0.7992,A,0.135
201,0.5004,1.2,1,0.43368,0.45036,0.42534,201,2.13504,-0.35,-0.17514,0.32526,5,1D2U,1.0,False,0.475,19,True,left,-0.0834,0.3638,0.8223,0.4585,1.2222,1.7718,0.5496,A,0.135
202,0.5004,0.1,1,0.28356,0.35862,0.45036,202,2.26014,0.33,0.1668,0.6672,5,2D1U,1.0,True,0.526,22,True,left,0.1668,0.219,1.0182,0.7993,1.3185,2.1179,0.7994,A,0.13
203,0.5004,0.1,1,0.42534,0.32526,0.56712,203,2.1267,-0.39,-0.19182,0.30858,5,1D2U,2.0,True,0.392,20,True,right,-0.0834,0.3593,0.8013,0.442,1.3425,1.8931,0.5507,A,0.13
204,0.5004,1.2,1,0.27522,0.3753,0.46704,204,2.28516,0.33,0.1668,0.6672,5,2D1U,1.0,True,1.783,22,True,left,0.1668,0.2118,1.0112,0.7994,1.3284,2.1285,0.8001,A,0.135
205,0.5004,1.2,2,0.30024,0.2502,0.73392,205,2.42694,0.29,0.14178,0.64218,5,2D1U,2.0,True,0.4,23,True,right,-0.0834,1.4929,2.268,0.7751,0.2765,0.8261,0.5496,A,0.135
206,0.5004,0.1,1,0.30858,0.40866,0.80898,206,2.6688,0.29,0.14178,0.64218,5,2D1U,1.0,True,0.409,23,True,left,0.1668,0.2402,1.0152,0.775,1.6736,2.4727,0.7991,A,0.13
207,0.5004,0.1,2,0.30858,0.35028,0.40866,207,1.8765,-0.39,-0.19182,0.30858,5,1D2U,1.0,True,0.567,20,True,left,-0.0834,1.1701,1.6117,0.4416,0.2784,0.8283,0.5499,A,0.13
208,0.5004,1.2,1,0.35028,0.20016,0.67554,208,2.05164,-0.35,-0.17514,0.32526,5,1D2U,1.0,False,0.483,21,True,left,0.1668,0.2804,0.7393,0.4589,1.2639,2.0641,0.8002,A,0.135
209,0.5004,1.2,2,0.40032,0.30024,0.71724,209,2.22678,-0.39,-0.19182,0.30858,5,1D2U,1.0,True,0.35,22,True,left,-0.0834,1.5737,2.0156,0.4419,0.3731,0.9241,0.5509,A,0.135
210,0.5004,0.1,1,0.36696,0.30858,0.7089,210,2.51034,0.25,0.1251,0.6255,5,2D1U,1.0,True,0.115,23,False,left,0.1668,0.3007,1.0591,0.7583,1.6172,2.4175,0.8002,A,0.13
211,0.5004,0.1,1,0.36696,0.2502,0.7089,211,2.13504,-0.39,-0.19182,0.30858,5,1D2U,2.0,True,0.25,22,True,right,-0.0834,0.2952,0.7371,0.4419,1.4203,1.9709,0.5506,A,0.13
212,0.5004,1.2,1,0.43368,0.3753,0.8757,212,2.81058,0.25,0.1251,0.6255,5,2D1U,1.0,True,0.766,23,False,left,0.1668,0.3636,1.1222,0.7586,1.8469,2.647,0.8001,A,0.135
213,0.5004,1.2,1,0.30024,0.25854,0.49206,213,1.8765,-0.35,-0.17514,0.32526,5,1D2U,1.0,False,0.326,23,True,left,-0.0834,0.2312,0.6893,0.4581,1.1557,1.706,0.5504,A,0.135
214,0.5004,0.1,2,0.25854,0.40866,0.80064,214,2.27682,-0.39,-0.19182,0.30858,5,1D2U,1.0,True,0.409,24,True,left,0.1668,1.6442,2.086,0.4417,0.1111,0.9109,0.7998,A,0.13
215,0.5004,0.1,1,0.40032,0.23352,0.42534,215,2.1684,0.21,0.10842,0.60882,5,2D1U,2.0,False,0.492,23,False,right,-0.0834,0.331,1.0721,0.7411,1.4721,2.0222,0.5501,A,0.13
216,0.5004,1.2,1,0.21684,0.27522,0.64218,216,1.94322,-0.39,-0.19182,0.30858,5,1D2U,2.0,True,1.509,24,True,right,0.1668,0.1457,0.5873,0.4417,1.0796,1.8789,0.7993,A,0.135
217,0.5004,1.2,1,0.27522,0.3336,0.68388,217,2.11836,-0.35,-0.17514,0.32526,5,1D2U,2.0,True,0.342,25,True,right,-0.0834,0.2062,0.6647,0.4585,1.3231,1.8729,0.5498,A,0.135
218,0.5004,0.1,1,0.42534,0.39198,0.81732,218,2.76054,0.25,0.1251,0.6255,5,2D1U,2.0,False,0.299,24,True,right,0.1668,0.3577,1.1156,0.7579,1.7823,2.5825,0.8002,A,0.13
219,0.5004,0.1,2,0.20016,0.2919,0.64218,219,1.9599,-0.35,-0.17514,0.32526,5,1D2U,2.0,False,1.358,25,True,right,-0.0834,1.3031,1.7612,0.4581,0.1782,0.728,0.5499,A,0.13
220,0.5004,1.2,2,0.40032,0.30024,0.63384,220,2.47698,0.29,0.14178,0.64218,5,2D1U,2.0,True,0.409,24,False,right,0.1668,1.6194,2.394,0.7746,0.2525,1.0528,0.8003,A,0.135
221,0.5004,1.2,1,0.27522,0.417,0.50874,221,2.00994,-0.39,-0.19182,0.30858,5,1D2U,1.0,False,0.112,26,True,left,-0.0834,0.2106,0.6523,0.4417,1.1356,1.6855,0.5499,A,0.135
222,0.5004,0.1,2,0.43368,0.21684,0.82566,222,2.61876,0.29,0.14178,0.64218,5,2D1U,1.0,False,0.417,24,False,left,0.1668,1.8409,2.615,0.7742,0.2821,1.082,0.7999,A,0.13
223,0.5004,0.1,1,0.30024,0.25854,0.60048,223,1.94322,-0.43,-0.21684,0.28356,5,1D2U,2.0,True,0.433,26,False,right,-0.0834,0.2295,0.6462,0.4167,1.2209,1.771,0.5501,A,0.13
224,0.5004,1.2,1,0.21684,0.40032,0.69222,224,2.47698,0.33,0.1668,0.6672,5,2D1U,2.0,False,0.114,24,False,right,0.1668,0.1531,0.953,0.7999,1.4945,2.2945,0.8,A,0.135
225,0.5004,1.2,2,0.39198,0.417,0.834,225,2.42694,-0.43,-0.21684,0.28356,5,1D2U,2.0,False,0.649,26,False,right,-0.0834,1.6828,2.0996,0.4168,0.3666,0.9159,0.5493,A,0.135
226,0.5004,0.1,2,0.23352,0.35028,0.63384,226,2.40192,0.37,0.18348,0.68388,5,2D1U,1.0,False,0.535,24,False,left,0.1668,1.4529,2.2703,0.8174,0.0868,0.8864,0.7996,A,0.13
227,0.5004,0.1,1,0.24186,0.2502,0.89238,227,2.59374,0.41,0.2085,0.7089,5,2D1U,1.0,True,0.424,24,False,left,-0.0834,0.1734,1.0155,0.8421,1.8819,2.4312,0.5493,A,0.13
228,0.5004,1.2,1,0.43368,0.2085,0.69222,228,2.5437,0.41,0.2085,0.7089,5,2D1U,1.0,True,0.567,24,False,left,0.1668,0.3696,1.2112,0.8416,1.7532,2.5529,0.7998,A,0.135
229,0.5004,1.2,2,0.3336,0.35862,0.77562,229,2.23512,-0.47,-0.23352,0.26688,5,1D2U,1.0,True,0.392,26,False,left,-0.0834,1.5647,1.9647,0.4,0.3057,0.8565,0.5508,A,0.135
230,0.5004,0.1,1,0.28356,0.34194,0.47538,230,2.28516,0.37,0.18348,0.68388,5,2D1U,1.0,True,0.4,25,True,left,0.1668,0.2198,1.0362,0.8164,1.3613,2.1611,0.7997,A,0.13
231,0.5004,0.1,1,0.42534,0.42534,0.4587,231,2.07666,-0.47,-0.23352,0.26688,5,1D2U,2.0,True,0.459,26,False,right,-0.0834,0.3574,0.7583,0.4009,1.1916,1.7416,0.5499,A,0.13
232,0.5004,1.2,1,0.36696,0.31692,0.72558,232,2.19342,-0.43,-0.21684,0.28356,5,1D2U,2.0,True,0.114,27,True,right,0.1668,0.2973,0.714,0.4167,1.2893,2.088,0.7987,A,0.135
233,0.5004,1.2,1,0.42534,0.3336,0.56712,233,2.11002,-0.43,-0.21684,0.28356,5,1D2U,2.0,True,0.299,27,True,right,-0.0834,0.361,0.7779,0.4169,1.3193,1.8692,0.55,A,0.135
234,0.5004,0.1,2,0.42534,0.417,0.5004,234,2.15172,-0.39,-0.19182,0.30858,5,1D2U,1.0,True,0.383,27,False,left,0.1668,1.5062,1.9482,0.442,0.2735,1.0733,0.7999,A,0.13
235,0.5004,0.1,2,0.26688,0.24186,0.72558,235,2.4186,0.37,0.18348,0.68388,5,2D1U,2.0,True,0.425,25,True,right,-0.0834,1.4469,2.2636,0.8168,0.2386,0.7878,0.5492,A,0.13
236,0.5004,1.2,2,0.42534,0.35862,0.64218,236,2.59374,0.33,0.1668,0.6672,5,2D1U,1.0,False,1.609,25,False,left,0.1668,1.6478,2.448,0.8002,0.273,1.073,0.8,A,0.135
237,0.5004,1.2,2,0.35028,0.40866,0.55044,237,2.49366,0.37,0.18348,0.68388,5,2D1U,2.0,True,0.709,26,True,right,-0.0834,1.355,2.1719,0.8169,0.3222,0.8711,0.5489,A,0.135
238,0.5004,0.1,2,0.32526,0.3336,0.73392,238,2.20176,-0.39,-0.19182,0.30858,5,1D2U,1.0,True,0.375,27,False,left,0.1668,1.6433,2.0848,0.4415,0.1759,0.9765,0.8006,A,0.13
239,0.5004,0.1,1,0.3753,0.35862,0.89238,239,2.81058,0.37,0.18348,0.68388,5,2D1U,1.0,True,0.383,26,True,left,-0.0834,0.3086,1.1253,0.8167,1.9921,2.5422,0.5501,A,0.13
240,0.5004,1.2,1,0.2085,0.22518,0.44202,240,1.70136,-0.35,-0.17514,0.32526,5,1D2U,1.0,False,0.775,27,False,left,0.1668,0.1408,0.5991,0.4583,0.8909,1.6913,0.8004,A,0.135
241,0.5004,1.2,1,0.43368,0.43368,0.40866,241,2.44362,0.33,0.1668,0.6672,5,2D1U,1.0,True,0.391,27,True,left,-0.0834,0.3683,1.1689,0.8006,1.5523,2.1025,0.5502,A,0.135
242,0.5004,0.1,1,0.36696,0.417,0.7923,242,2.74386,0.33,0.1668,0.6672,5,2D1U,2.0,False,0.317,27,True,right,0.1668,0.2985,1.0985,0.8001,1.7402,2.5401,0.7999,A,0.13
243,0.5004,0.1,1,0.27522,0.35862,0.77562,243,2.59374,0.37,0.18348,0.68388,5,2D1U,1.0,True,0.525,28,True,left,-0.0834,0.2087,1.0254,0.8167,1.7757,2.3251,0.5495,A,0.13
244,0.5004,1.2,1,0.24186,0.2085,0.417,244,1.67634,-0.39,-0.19182,0.30858,5,1D2U,2.0,True,0.409,28,True,right,0.1668,0.1723,0.6137,0.4414,0.8803,1.6805,0.8002,A,0.135
245,0.5004,1.2,2,0.23352,0.30024,0.5838,245,2.30184,0.37,0.18348,0.68388,5,2D1U,2.0,True,0.367,28,True,right,-0.0834,1.2747,2.0913,0.8166,0.208,0.7579,0.5499,A,0.135
246,0.5004,0.1,2,0.26688,0.35862,0.81732,246,2.2518,-0.39,-0.19182,0.30858,5,1D2U,1.0,True,0.424,28,True,left,0.1668,1.6679,2.1093,0.4414,0.1168,0.9175,0.8007,A,0.13
247,0.5004,0.1,2,0.31692,0.26688,0.46704,247,2.21844,0.33,0.1668,0.6672,5,2D1U,2.0,True,0.584,29,True,right,-0.0834,1.2441,2.0438,0.7998,0.2928,0.8434,0.5506,A,0.13
248,0.5004,1.2,2,0.2919,0.32526,0.65052,248,2.09334,-0.35,-0.17514,0.32526,5,1D2U,1.0,True,0.4,29,True,left,0.1668,1.5241,1.9829,0.4587,0.1412,0.9409,0.7997,A,0.135
249,0.5004,1.2,1,0.44202,0.43368,0.52542,249,2.56872,0.33,0.1668,0.6672,5,2D1U,1.0,True,0.95,29,True,left,-0.0834,0.3753,1.1758,0.8005,1.6754,2.2255,0.5502,A,0.135
250,0.5004,0.1,1,0.30024,0.3753,0.68388,250,2.18508,-0.35,-0.17514,0.32526,5,1D2U,2.0,True,0.216,29,True,right,0.1668,0.2311,0.6896,0.4586,1.2229,2.0229,0.7999,A,0.13
251,0.5004,0.1,1,0.43368,0.35028,0.43368,251,2.36022,0.29,0.14178,0.64218,5,2D1U,2.0,False,0.592,29,False,right,-0.0834,0.3686,1.143,0.7744,1.5519,2.1017,0.5498,A,0.13
252,0.5004,1.2,1,0.25854,0.22518,0.76728,252,2.4186,0.33,0.1668,0.6672,5,2D1U,2.0,False,0.509,30,True,right,0.1668,0.1883,0.9886,0.8003,1.6055,2.4056,0.8001,A,0.135
253,0.5004,1.2,1,0.3336,0.417,0.47538,253,2.06832,-0.31,-0.15846,0.34194,5,1D2U,2.0,True,2.401,29,False,right,-0.0834,0.2655,0.7408,0.4752,1.1903,1.7409,0.5506,A,0.135
254,0.5004,0.1,1,0.44202,0.21684,0.52542,254,2.36856,0.37,0.18348,0.68388,5,2D1U,1.0,True,0.384,30,False,left,0.1668,0.3776,1.1944,0.8168,1.5686,2.3694,0.8008,A,0.13
255,0.5004,0.1,2,0.28356,0.40866,0.75894,255,2.2935,-0.31,-0.15846,0.34194,5,1D2U,1.0,True,0.384,29,False,left,-0.0834,1.4984,1.9735,0.4751,0.257,0.8065,0.5496,A,0.13
256,0.5004,1.2,2,0.32526,0.2502,0.85068,256,2.61042,0.37,0.18348,0.68388,5,2D1U,2.0,True,0.416,30,False,right,0.1668,1.7544,2.5704,0.816,0.1714,0.9709,0.7995,A,0.135
257,0.5004,1.2,2,0.2919,0.43368,0.7923,257,2.68548,0.33,0.1668,0.6672,5,2D1U,2.0,True,0.518,31,True,right,-0.0834,1.5403,2.3401,0.7998,0.2654,0.8147,0.5493,A,0.135
258,0.5004,0.1,2,0.3753,0.43368,0.77562,258,2.7522,0.33,0.1668,0.6672,5,2D1U,2.0,True,1.35,31,True,right,0.1668,1.737,2.5374,0.8004,0.2286,1.0288,0.8002,A,0.13
259,0.5004,0.1,1,0.35862,0.22518,0.46704,259,1.9182,-0.27,-0.13344,0.36696,5,1D2U,2.0,True,0.608,29,False,right,-0.0834,0.2871,0.7872,0.5001,1.2289,1.7787,0.5498,A,0.13
260,0.5004,1.2,2,0.30858,0.31692,0.60882,260,2.3769,0.29,0.14178,0.64218,5,2D1U,2.0,True,0.625,31,False,right,0.1668,1.4996,2.2745,0.7749,0.1578,0.9577,0.7999,A,0.135
261,0.5004,1.2,2,0.31692,0.40032,0.51708,261,2.3769,0.29,0.14178,0.64218,5,2D1U,2.0,True,0.259,31,False,right,-0.0834,1.2883,2.0636,0.7752,0.2889,0.8377,0.5489,A,0.135
262,0.5004,0.1,2,0.39198,0.24186,0.44202,262,1.94322,-0.27,-0.13344,0.36696,5,1D2U,2.0,False,0.625,29,False,right,0.1668,1.4154,1.9155,0.5001,0.2403,1.0405,0.8001,A,0.13
263,0.5004,0.1,2,0.31692,0.3753,0.6672,263,2.20176,-0.31,-0.15846,0.34194,5,1D2U,1.0,True,0.508,30,True,left,-0.0834,1.4435,1.9186,0.4751,0.2938,0.8437,0.55,A,0.13
264,0.5004,1.2,2,0.30024,0.3753,0.70056,264,2.21844,-0.31,-0.15846,0.34194,5,1D2U,1.0,True,0.434,30,True,left,0.1668,1.5846,2.0594,0.4748,0.1512,0.9514,0.8001,A,0.135
265,0.5004,1.2,2,0.2502,0.2085,0.7089,265,2.2935,0.25,0.1251,0.6255,5,2D1U,1.0,False,0.192,31,False,left,-0.0834,1.4136,2.1717,0.7581,0.2216,0.7717,0.5502,A,0.135
266,0.5004,0.1,2,0.27522,0.2085,0.46704,266,2.09334,0.29,0.14178,0.64218,5,2D1U,2.0,True,0.426,32,True,right,0.1668,1.3272,2.1022,0.7749,0.1274,0.9273,0.7999,A,0.13
267,0.5004,0.1,2,0.25854,0.35028,0.71724,267,2.46864,0.29,0.14178,0.64218,5,2D1U,2.0,True,0.4,32,True,right,-0.0834,1.43,2.2053,0.7753,0.2302,0.7804,0.5501,A,0.13
268,0.5004,1.2,1,0.23352,0.44202,0.8757,268,2.4186,-0.27,-0.13344,0.36696,5,1D2U,2.0,True,0.425,31,True,right,0.1668,0.1643,0.6641,0.4998,1.3892,2.1884,0.7992,A,0.135
269,0.5004,1.2,2,0.2085,0.26688,0.47538,269,2.07666,0.25,0.1251,0.6255,5,2D1U,2.0,True,0.375,33,True,right,-0.0834,1.1399,1.8987,0.7589,0.1814,0.7315,0.5501,A,0.135
270,0.5004,0.1,1,0.28356,0.43368,0.73392,270,2.31852,-0.27,-0.13344,0.36696,5,1D2U,2.0,True,0.4,31,True,right,0.1668,0.2135,0.7127,0.4992,1.2967,2.0967,0.8,A,0.13
271,0.5004,0.1,2,0.38364,0.23352,0.5838,271,2.085,-0.23,-0.11676,0.38364,5,1D2U,1.0,True,0.567,31,False,left,-0.0834,1.4229,1.9395,0.5166,0.3563,0.9063,0.55,A,0.13
272,0.5004,1.2,1,0.24186,0.30024,0.81732,272,2.24346,-0.23,-0.11676,0.38364,5,1D2U,2.0,True,0.375,31,False,right,0.1668,0.1727,0.69,0.5174,1.3567,2.1567,0.8,A,0.135
273,0.5004,1.2,1,0.30858,0.38364,0.74226,273,2.34354,-0.19,-0.09174,0.40866,5,1D2U,2.0,True,0.46,31,False,right,-0.0834,0.24,0.7811,0.5411,1.4983,2.0483,0.5501,A,0.135
274,0.5004,0.1,1,0.34194,0.32526,0.7923,274,2.5854,0.25,0.1251,0.6255,5,2D1U,1.0,True,0.424,33,True,left,0.1668,0.2745,1.0329,0.7584,1.6744,2.4745,0.8001,A,0.13
275,0.5004,0.1,1,0.32526,0.3753,0.72558,275,2.53536,0.21,0.10842,0.60882,5,2D1U,1.0,True,0.316,33,False,left,-0.0834,0.2594,1.0011,0.7417,1.7011,2.2511,0.55,A,0.13
276,0.5004,1.2,1,0.40032,0.26688,0.68388,276,2.26014,-0.19,-0.09174,0.40866,5,1D2U,2.0,True,0.292,31,False,right,0.1668,0.3348,0.8762,0.5414,1.4095,2.2096,0.8001,A,0.135
277,0.5004,1.2,1,0.26688,0.42534,0.51708,277,2.13504,-0.15,-0.07506,0.42534,5,1D2U,1.0,False,0.267,31,False,left,-0.0834,0.1974,0.7556,0.5582,1.2477,1.7978,0.55,A,0.135
278,0.5004,0.1,1,0.30858,0.31692,0.69222,278,2.22678,-0.19,-0.09174,0.40866,5,1D2U,2.0,True,0.112,32,True,right,0.1668,0.2412,0.7827,0.5415,1.325,2.1249,0.7999,A,0.13
279,0.5004,0.1,1,0.22518,0.36696,0.42534,279,2.1267,0.21,0.10842,0.60882,5,2D1U,1.0,True,0.393,33,False,left,-0.0834,0.1558,0.8972,0.7414,1.2975,1.847,0.5495,A,0.13
280,0.5004,1.2,2,0.35862,0.417,0.49206,280,2.17674,-0.19,-0.09174,0.40866,5,1D2U,1.0,True,0.125,32,True,left,0.1668,1.4369,1.9785,0.5416,0.2111,1.0119,0.8009,A,0.135
281,0.5004,1.2,1,0.39198,0.35862,0.88404,281,2.56038,-0.15,-0.07506,0.42534,5,1D2U,1.0,False,0.317,33,True,left,-0.0834,0.3278,0.8859,0.5581,1.7443,2.2942,0.5498,A,0.135
282,0.5004,0.1,2,0.2085,0.3336,0.57546,282,2.20176,0.17,0.0834,0.5838,5,2D1U,2.0,True,0.113,33,False,right,0.1668,1.3689,2.0855,0.7166,0.0606,0.861,0.8004,A,0.13
283,0.5004,0.1,1,0.2919,0.43368,0.49206,283,2.30184,0.17,0.0834,0.5838,5,2D1U,1.0,True,0.325,33,False,left,-0.0834,0.2221,0.9397,0.7176,1.4056,1.9562,0.5505,A,0.13
284,0.5004,1.2,1,0.36696,0.38364,0.7923,284,2.61042,0.13,0.06672,0.56712,5,2D1U,1.0,True,0.366,33,False,left,0.1668,0.3022,1.0021,0.6998,1.6437,2.4431,0.7994,A,0.135
285,0.5004,1.2,2,0.30024,0.38364,0.76728,285,2.51868,0.13,0.06672,0.56712,5,2D1U,1.0,False,0.225,33,False,left,-0.0834,1.5232,2.2237,0.7005,0.273,0.8238,0.5508,A,0.135
286,0.5004,0.1,2,0.30024,0.22518,0.80064,286,2.23512,-0.19,-0.09174,0.40866,5,1D2U,1.0,True,0.358,34,True,left,0.1668,1.6845,2.2255,0.541,0.1505,0.9506,0.8001,A,0.13
287,0.5004,0.1,2,0.3753,0.2919,0.59214,287,2.1684,-0.19,-0.09174,0.40866,5,1D2U,1.0,True,0.333,34,True,left,-0.0834,1.4278,1.9692,0.5414,0.3523,0.9025,0.5502,A,0.13
288,0.5004,1.2,2,0.40032,0.22518,0.47538,288,2.18508,0.17,0.0834,0.5838,5,2D1U,1.0,False,0.182,34,True,left,0.1668,1.4609,2.1769,0.716,0.2518,1.0515,0.7997,A,0.135
289,0.5004,1.2,2,0.40866,0.20016,0.6672,289,2.20176,-0.15,-0.07506,0.42534,5,1D2U,1.0,True,0.317,35,True,left,-0.0834,1.5295,2.0884,0.5589,0.38,0.9297,0.5497,A,0.135
290,0.5004,0.1,1,0.34194,0.44202,0.5004,290,2.39358,0.21,0.10842,0.60882,5,2D1U,1.0,True,0.433,34,False,left,0.1668,0.2729,1.0149,0.742,1.3645,2.1645,0.8001,A,0.13
291,0.5004,0.1,2,0.32526,0.30858,0.68388,291,2.24346,-0.15,-0.07506,0.42534,5,1D2U,1.0,True,0.459,35,True,left,-0.0834,1.4694,2.0273,0.5578,0.3023,0.8523,0.5501,A,0.13
292,0.5004,1.2,2,0.35028,0.44202,0.4587,292,2.36022,0.21,0.10842,0.60882,5,2D1U,1.0,False,0.233,34,False,left,0.1668,1.3897,2.1308,0.7411,0.1974,0.9979,0.8005,A,0.135
293,0.5004,1.2,1,0.31692,0.30858,0.60048,293,2.35188,0.25,0.1251,0.6255,5,2D1U,1.0,True,0.408,34,False,left,-0.0834,0.2474,1.0058,0.7584,1.5808,2.1305,0.5497,A,0.135
294,0.5004,0.1,1,0.2085,0.40866,0.60048,294,2.16006,-0.11,-0.05838,0.44202,5,1D2U,2.0,True,0.325,35,False,right,0.1668,0.1387,0.714,0.5753,1.1637,1.9639,0.8001,A,0.13
295,0.5004,0.1,2,0.2085,0.26688,0.82566,295,2.24346,-0.11,-0.05838,0.44202,5,1D2U,1.0,True,0.485,35,False,left,-0.0834,1.4904,2.0654,0.575,0.1814,0.7314,0.55,A,0.13
296,0.5004,1.2,1,0.30024,0.35862,0.61716,296,2.40192,0.25,0.1251,0.6255,5,2D1U,2.0,False,0.292,34,False,right,0.1668,0.2285,0.9871,0.7586,1.4535,2.2535,0.8,A,0.135
297,0.5004,1.2,1,0.2919,0.38364,0.69222,297,2.51034,0.29,0.14178,0.64218,5,2D1U,1.0,True,0.484,34,False,left,-0.0834,0.2275,1.0032,0.7757,1.6698,2.2197,0.5499,A,0.135
298,0.5004,0.1,1,0.39198,0.25854,0.70056,298,2.31852,-0.07,-0.03336,0.46704,5,1D2U,2.0,True,0.325,35,False,right,0.1668,0.3251,0.9254,0.6003,1.476,2.276,0.8,A,0.13
299,0.5004,0.1,1,0.21684,0.35028,0.8757,299,2.5854,0.29,0.14178,0.64218,5,2D1U,1.0,True,0.509,34,False,left,-0.0834,0.1514,0.9265,0.775,1.776,2.3262,0.5502,A,0.13
300,0.5004,1.2,1,0.38364,0.32526,0.63384,300,2.31018,-0.07,-0.03336,0.46704,5,1D2U,2.0,True,0.167,35,False,right,0.1668,0.3181,0.918,0.5999,1.4022,2.2023,0.8001,A,0.135
301,0.5004,1.2,1,0.31692,0.2502,0.40032,301,1.95156,-0.03,-0.01668,0.48372,5,1D2U,2.0,True,0.609,35,False,right,-0.0834,0.252,0.8686,0.6166,1.2436,1.794,0.5504,A,0.135
302,0.5004,0.1,1,0.23352,0.45036,0.51708,302,2.32686,0.25,0.1251,0.6255,5,2D1U,2.0,False,0.116,35,True,right,0.1668,0.1641,0.9234,0.7593,1.2896,2.09,0.8004,A,0.13
303,0.5004,0.1,2,0.2919,0.40866,0.48372,303,2.1684,-0.03,-0.01668,0.48372,5,1D2U,1.0,True,0.526,35,False,left,-0.0834,1.2313,1.8488,0.6175,0.2653,0.8146,0.5493,A,0.13
304,0.5004,1.2,1,0.27522,0.22518,0.61716,304,2.1267,0.01,0.00834,0.50874,5,1D2U,2.0,False,0.425,35,False,right,0.1668,0.2095,0.8521,0.6425,1.3187,2.1185,0.7998,A,0.135
305,0.5004,1.2,1,0.32526,0.30858,0.7506,305,2.39358,0.01,0.00834,0.50874,5,1D2U,2.0,False,0.433,35,False,right,-0.0834,0.2607,0.903,0.6422,1.6282,2.1779,0.5497,A,0.135
306,0.5004,0.1,1,0.39198,0.22518,0.60048,306,2.36022,0.29,0.14178,0.64218,5,2D1U,2.0,False,0.192,36,True,right,0.1668,0.322,1.0976,0.7756,1.5474,2.3467,0.7992,A,0.13
307,0.5004,0.1,1,0.34194,0.27522,0.45036,307,2.23512,0.33,0.1668,0.6672,5,2D1U,1.0,True,0.441,36,False,left,-0.0834,0.2747,1.0743,0.7996,1.4993,2.0494,0.55,A,0.13
308,0.5004,1.2,2,0.21684,0.43368,0.75894,308,2.43528,0.05,0.02502,0.52542,5,1D2U,1.0,False,0.35,35,False,left,0.1668,1.557,2.2152,0.6582,0.0655,0.8651,0.7996,A,0.135
309,0.5004,1.2,2,0.21684,0.30858,0.50874,309,2.20176,0.33,0.1668,0.6672,5,2D1U,1.0,False,0.333,36,False,left,-0.0834,1.1818,1.9818,0.8001,0.1904,0.7401,0.5497,A,0.135
310,0.5004,0.1,1,0.25854,0.25854,0.86736,310,2.41026,0.05,0.02502,0.52542,5,1D2U,1.0,True,0.343,35,False,left,0.1668,0.1868,0.8454,0.6586,1.5617,2.3616,0.7999,A,0.13
311,0.5004,0.1,1,0.25854,0.3753,0.74226,311,2.38524,0.01,0.00834,0.50874,5,1D2U,1.0,True,0.475,36,True,left,-0.0834,0.1877,0.8294,0.6417,1.5463,2.096,0.5497,A,0.13
312,0.5004,1.2,2,0.44202,0.3753,0.43368,312,2.43528,0.37,0.18348,0.68388,5,2D1U,2.0,True,0.4,36,False,right,0.1668,1.4553,2.2725,0.8172,0.2898,1.0895,0.7997,A,0.135
313,0.5004,1.2,1,0.32526,0.40032,0.71724,313,2.42694,-0.03,-0.01668,0.48372,5,1D2U,1.0,False,1.391,36,False,left,-0.0834,0.261,0.8783,0.6174,1.57,2.1198,0.5498,A,0.135
314,0.5004,0.1,1,0.44202,0.45036,0.85068,314,2.92734,0.37,0.18348,0.68388,5,2D1U,1.0,True,0.374,36,False,left,0.1668,0.3724,1.1891,0.8167,1.8886,2.6887,0.8,A,0.13
315,0.5004,0.1,2,0.23352,0.2502,0.55878,315,2.00994,-0.07,-0.03336,0.46704,5,1D2U,1.0,True,0.441,36,False,left,-0.0834,1.2453,1.8461,0.6008,0.2037,0.7539,0.5502,A,0.13
316,0.5004,1.2,1,0.3336,0.40866,0.65052,316,2.56038,0.33,0.1668,0.6672,5,2D1U,1.0,True,0.3,37,True,left,0.1668,0.2631,1.0635,0.8004,1.563,2.3627,0.7997,A,0.135
317,0.5004,1.2,1,0.3753,0.2502,0.84234,317,2.63544,0.33,0.1668,0.6672,5,2D1U,1.0,True,0.442,37,True,left,-0.0834,0.31,1.1103,0.8003,1.9263,2.4771,0.5508,A,0.135
318,0.5004,0.1,1,0.35028,0.3336,0.49206,318,2.14338,-0.07,-0.03336,0.46704,5,1D2U,1.0,False,0.391,36,False,left,0.1668,0.2798,0.8793,0.5995,1.2211,2.0217,0.8006,A,0.13
319,0.5004,0.1,1,0.30024,0.32526,0.82566,319,2.59374,0.29,0.14178,0.64218,5,2D1U,1.0,True,0.292,37,False,left,-0.0834,0.2309,1.0059,0.775,1.8058,2.3558,0.55,A,0.13
320,0.5004,1.2,2,0.26688,0.2085,0.85068,320,2.46864,0.29,0.14178,0.64218,5,2D1U,1.0,False,0.467,37,False,left,0.1668,1.7024,2.4891,0.7867,0.1196,0.9195,0.8,A,0.135
321,0.5004,1.2,2,0.22518,0.2502,0.5004,321,2.14338,0.33,0.1668,0.6672,5,2D1U,2.0,True,0.383,38,True,right,-0.0834,1.1849,1.9857,0.8008,0.2023,0.7517,0.5493,A,0.135
322,0.5004,0.1,1,0.42534,0.35862,0.43368,322,2.16006,-0.11,-0.05838,0.44202,5,1D2U,2.0,True,0.357,36,False,right,0.1668,0.3542,0.9292,0.575,1.2118,2.0126,0.8008,A,0.13
323,0.5004,0.1,2,0.43368,0.32526,0.40032,323,2.32686,0.33,0.1668,0.6672,5,2D1U,2.0,True,0.367,38,True,right,-0.0834,1.2942,2.0945,0.8003,0.4116,0.9616,0.55,A,0.13
324,0.5004,1.2,1,0.3336,0.2085,0.81732,324,2.502,0.29,0.14178,0.64218,5,2D1U,2.0,False,0.666,39,True,right,0.1668,0.264,1.0395,0.7755,1.7061,2.5063,0.8002,A,0.135
325,0.5004,1.2,2,0.40032,0.31692,0.42534,325,2.085,-0.11,-0.05838,0.44202,5,1D2U,2.0,False,0.409,36,False,right,-0.0834,1.2815,1.857,0.5755,0.3738,0.9234,0.5497,A,0.135
326,0.5004,0.1,1,0.35028,0.32526,0.6672,326,2.51034,0.33,0.1668,0.6672,5,2D1U,1.0,True,0.766,40,True,left,0.1668,0.2825,1.0819,0.7994,1.5986,2.3984,0.7999,A,0.13
327,0.5004,0.1,2,0.36696,0.26688,0.72558,327,2.52702,0.33,0.1668,0.6672,5,2D1U,2.0,True,0.416,40,True,right,-0.0834,1.5485,2.3483,0.7998,0.3404,0.8905,0.5501,A,0.13
328,0.5004,1.2,1,0.25854,0.417,0.51708,328,2.11836,-0.15,-0.07506,0.42534,5,1D2U,2.0,True,0.292,36,False,right,0.1668,0.1952,0.7529,0.5577,1.1195,1.92,0.8005,A,0.135
329,0.5004,1.2,2,0.20016,0.36696,0.65886,329,2.15172,-0.15,-0.07506,0.42534,5,1D2U,1.0,True,0.501,36,False,left,-0.0834,1.3168,1.8752,0.5583,0.1747,0.7252,0.5505,A,0.135
330,0.5004,0.1,2,0.417,0.44202,0.76728,330,2.76888,0.29,0.14178,0.64218,5,2D1U,2.0,True,0.392,41,True,right,0.1668,1.7658,2.5411,0.7752,0.266,1.0659,0.7999,A,0.13
331,0.5004,0.1,1,0.40032,0.28356,0.55878,331,2.38524,0.29,0.14178,0.64218,5,2D1U,2.0,False,0.192,41,True,right,-0.0834,0.3307,1.1059,0.7752,1.6395,2.1897,0.5502,A,0.13
332,0.5004,1.2,2,0.25854,0.42534,0.71724,332,2.34354,-0.11,-0.05838,0.44202,5,1D2U,2.0,False,0.716,37,True,right,0.1668,1.556,2.131,0.5751,0.1058,0.9058,0.8,A,0.135
333,0.5004,1.2,1,0.27522,0.23352,0.74226,333,2.17674,-0.15,-0.07506,0.42534,5,1D2U,1.0,False,0.549,38,True,left,-0.0834,0.2048,0.7632,0.5584,1.4788,2.0292,0.5503,A,0.135
334,0.5004,0.1,1,0.20016,0.21684,0.50874,334,2.09334,0.33,0.1668,0.6672,5,2D1U,1.0,True,0.409,42,True,left,0.1668,0.1307,0.9307,0.8,1.289,2.0883,0.7993,A,0.13
335,0.5004,0.1,2,0.35028,0.30024,0.55878,335,2.11836,-0.19,-0.09174,0.40866,5,1D2U,1.0,True,0.442,38,False,left,-0.0834,1.3636,1.9051,0.5415,0.3213,0.8714,0.5501,A,0.13
336,0.5004,1.2,2,0.28356,0.39198,0.78396,336,2.6271,0.33,0.1668,0.6672,5,2D1U,1.0,False,0.114,42,True,left,0.1668,1.6524,2.4518,0.7994,0.1358,0.9361,0.8003,A,0.135
337,0.5004,1.2,2,0.24186,0.28356,0.80064,337,2.23512,-0.19,-0.09174,0.40866,5,1D2U,1.0,True,0.317,38,False,left,-0.0834,1.4967,2.0384,0.5417,0.2134,0.7631,0.5497,A,0.135
338,0.5004,0.1,2,0.22518,0.2085,0.48372,338,2.10168,0.37,0.18348,0.68388,5,2D1U,1.0,False,0.367,42,False,left,0.1668,1.2939,2.1105,0.8166,0.0775,0.8772,0.7998,A,0.13
339,0.5004,0.1,1,0.35862,0.31692,0.82566,339,2.42694,-0.15,-0.07506,0.42534,5,1D2U,1.0,False,0.417,39,True,left,-0.0834,0.2875,0.8457,0.5581,1.6458,2.1959,0.5501,A,0.13
340,0.5004,1.2,2,0.3753,0.40032,0.88404,340,2.86896,0.41,0.2085,0.7089,5,2D1U,2.0,True,0.367,42,False,right,0.1668,1.8408,2.6823,0.8415,0.2238,1.0241,0.8003,A,0.135
341,0.5004,1.2,2,0.22518,0.36696,0.5838,341,2.38524,0.41,0.2085,0.7089,5,2D1U,1.0,False,0.275,42,False,left,-0.0834,1.2653,2.1075,0.8422,0.1995,0.7492,0.5498,A,0.135
342,0.5004,0.1,2,0.3336,0.32526,0.417,342,2.30184,0.45,0.22518,0.72558,5,2D1U,2.0,True,1.184,42,False,right,0.1668,1.3346,2.1928,0.8583,0.1846,0.9848,0.8002,A,0.13
343,0.5004,0.1,1,0.23352,0.31692,0.81732,343,2.27682,-0.19,-0.09174,0.40866,5,1D2U,2.0,True,0.45,40,True,right,-0.0834,0.1687,0.7102,0.5414,1.5024,2.0526,0.5503,A,0.13
344,0.5004,1.2,2,0.40866,0.25854,0.40866,344,2.30184,0.45,0.22518,0.72558,5,2D1U,1.0,False,0.114,42,False,left,0.1668,1.4033,2.2618,0.8585,0.2614,1.0615,0.8001,A,0.135
345,0.5004,1.2,1,0.23352,0.27522,0.48372,345,1.90152,-0.19,-0.09174,0.40866,5,1D2U,2.0,True,0.408,40,True,right,-0.0834,0.1657,0.707,0.5413,1.1648,1.7151,0.5503,A,0.135
346,0.5004,0.1,1,0.34194,0.40866,0.5004,346,2.49366,0.49,0.24186,0.74226,5,2D1U,1.0,True,0.126,42,False,left,0.1668,0.2765,1.1529,0.8764,1.5026,2.3019,0.7992,A,0.13
347,0.5004,0.1,2,0.24186,0.3336,0.76728,347,2.26848,-0.15,-0.07506,0.42534,5,1D2U,1.0,True,0.375,41,True,left,-0.0834,1.4637,2.0227,0.559,0.2142,0.7639,0.5496,A,0.13
348,0.5004,1.2,1,0.34194,0.45036,0.53376,348,2.56872,0.49,0.24186,0.74226,5,2D1U,1.0,True,0.114,42,False,left,0.1668,0.2727,1.1477,0.8751,1.5315,2.3303,0.7988,A,0.135
349,0.5004,1.2,2,0.30024,0.30024,0.85902,349,2.38524,-0.15,-0.07506,0.42534,5,1D2U,1.0,True,0.392,41,True,left,-0.0834,1.6178,2.1751,0.5573,0.2752,0.8252,0.55,A,0.135
350,0.5004,0.1,1,0.24186,0.3336,0.56712,350,2.36856,0.45,0.22518,0.72558,5,2D1U,1.0,True,0.114,43,True,left,0.1668,0.1713,1.0296,0.8583,1.4463,2.2457,0.7994,A,0.13
351,0.5004,0.1,1,0.40866,0.417,0.5421,351,2.59374,0.45,0.22518,0.72558,5,2D1U,1.0,True,0.367,43,True,left,-0.0834,0.3408,1.199,0.8582,1.7157,2.2657,0.55,A,0.13
352,0.5004,1.2,2,0.27522,0.2919,0.42534,352,1.93488,-0.11,-0.05838,0.44202,5,1D2U,2.0,False,0.326,41,False,right,0.1668,1.2863,1.8613,0.575,0.1274,0.9276,0.8002,A,0.135
353,0.5004,1.2,1,0.21684,0.39198,0.73392,353,2.55204,0.41,0.2085,0.7089,5,2D1U,2.0,False,0.4,43,False,right,-0.0834,0.1451,0.9869,0.8418,1.6952,2.2453,0.55,A,0.135
354,0.5004,0.1,2,0.32526,0.39198,0.46704,354,2.11002,-0.15,-0.07506,0.42534,5,1D2U,2.0,False,0.775,42,True,right,0.1668,1.3726,1.9309,0.5583,0.1728,0.9726,0.7999,A,0.13
355,0.5004,0.1,1,0.2502,0.26688,0.57546,355,2.0016,-0.19,-0.09174,0.40866,5,1D2U,2.0,True,0.367,42,False,right,-0.0834,0.181,0.7225,0.5415,1.2725,1.8219,0.5494,A,0.13
356,0.5004,1.2,2,0.44202,0.26688,0.4587,356,2.07666,-0.19,-0.09174,0.40866,5,1D2U,1.0,True,0.342,42,False,left,0.1668,1.4799,2.0212,0.5413,0.2887,1.0884,0.7997,A,0.135
357,0.5004,1.2,1,0.39198,0.21684,0.85902,357,2.69382,0.45,0.22518,0.72558,5,2D1U,1.0,True,0.591,44,True,left,-0.0834,0.321,1.1797,0.8587,2.0128,2.5627,0.5499,A,0.135
358,0.5004,0.1,2,0.24186,0.2919,0.64218,358,2.10168,-0.15,-0.07506,0.42534,5,1D2U,2.0,False,0.35,43,True,right,0.1668,1.4643,2.0223,0.558,0.0892,0.8894,0.8003,A,0.13
359,0.5004,0.1,2,0.22518,0.30024,0.65052,359,2.40192,0.45,0.22518,0.72558,5,2D1U,2.0,True,0.335,44,True,right,-0.0834,1.3291,2.187,0.8579,0.1958,0.7457,0.5498,A,0.13
360,0.5004,1.2,1,0.28356,0.31692,0.57546,360,2.38524,0.41,0.2085,0.7089,5,2D1U,1.0,True,0.265,45,True,left,0.1668,0.2162,1.0571,0.8409,1.4828,2.2823,0.7996,A,0.135
361,0.5004,1.2,2,0.43368,0.3753,0.55044,361,2.26848,-0.19,-0.09174,0.40866,5,1D2U,1.0,True,0.258,44,True,left,-0.0834,1.4402,1.9817,0.5415,0.4068,0.9568,0.55,A,0.135
362,0.5004,0.1,2,0.27522,0.25854,0.7089,362,2.15172,-0.19,-0.09174,0.40866,5,1D2U,1.0,True,0.114,44,True,left,0.1668,1.5696,2.1112,0.5416,0.1277,0.9272,0.7995,A,0.13
363,0.5004,0.1,1,0.24186,0.30024,0.47538,363,1.94322,-0.15,-0.07506,0.42534,5,1D2U,2.0,True,0.433,45,True,right,-0.0834,0.1779,0.7368,0.5589,1.1867,1.7366,0.5499,A,0.13
364,0.5004,1.2,1,0.22518,0.45036,0.85068,364,2.73552,0.41,0.2085,0.7089,5,2D1U,1.0,True,0.767,45,True,left,0.1668,0.1614,1.0031,0.8417,1.7037,2.5031,0.7994,A,0.135
365,0.5004,1.2,2,0.26688,0.27522,0.71724,365,2.18508,-0.15,-0.07506,0.42534,5,1D2U,2.0,False,0.525,45,True,right,-0.0834,1.4446,2.0032,0.5585,0.2437,0.7941,0.5504,A,0.135
366,0.5004,0.1,2,0.25854,0.417,0.8757,366,2.4603,-0.19,-0.09174,0.40866,5,1D2U,2.0,False,0.593,46,True,right,0.1668,1.7125,2.2542,0.5416,0.1043,0.9044,0.8001,A,0.13
367,0.5004,0.1,1,0.31692,0.44202,0.64218,367,2.5854,0.37,0.18348,0.68388,5,2D1U,2.0,False,0.291,45,False,right,-0.0834,0.2531,1.0694,0.8163,1.6868,2.2367,0.5498,A,0.13
368,0.5004,1.2,2,0.40866,0.22518,0.76728,368,2.28516,-0.23,-0.11676,0.38364,5,1D2U,1.0,True,0.667,46,False,left,0.1668,1.7608,2.2774,0.5166,0.2616,1.0608,0.7992,A,0.135
369,0.5004,1.2,2,0.22518,0.25854,0.42534,369,2.11836,0.41,0.2085,0.7089,5,2D1U,2.0,True,0.942,46,True,right,-0.0834,1.1062,1.9483,0.8421,0.1976,0.7476,0.55,A,0.135
370,0.5004,0.1,2,0.31692,0.30858,0.55044,370,2.05998,-0.23,-0.11676,0.38364,5,1D2U,1.0,True,0.625,46,False,left,0.1668,1.4517,1.9684,0.5167,0.1685,0.9684,0.7999,A,0.13
371,0.5004,0.1,1,0.2919,0.30858,0.80064,371,2.61042,0.41,0.2085,0.7089,5,2D1U,2.0,False,0.392,46,True,right,-0.0834,0.2234,1.0661,0.8427,1.8407,2.3911,0.5504,A,0.13
372,0.5004,1.2,1,0.38364,0.40866,0.60882,372,2.31018,-0.19,-0.09174,0.40866,5,1D2U,1.0,False,0.409,47,True,left,0.1668,0.3143,0.8563,0.542,1.3143,2.1143,0.8,A,0.135
373,0.5004,1.2,1,0.32526,0.40032,0.68388,373,2.63544,0.45,0.22518,0.72558,5,2D1U,1.0,True,0.242,46,False,left,-0.0834,0.2558,1.1145,0.8587,1.7725,2.3224,0.5499,A,0.135
374,0.5004,0.1,1,0.43368,0.35862,0.55878,374,2.23512,-0.23,-0.11676,0.38364,5,1D2U,2.0,True,0.391,48,True,right,0.1668,0.3636,0.8804,0.5169,1.2893,2.089,0.7997,A,0.13
375,0.5004,0.1,1,0.28356,0.39198,0.6255,375,2.18508,-0.23,-0.11676,0.38364,5,1D2U,2.0,True,0.333,48,True,right,-0.0834,0.2147,0.7317,0.517,1.3309,1.8821,0.5512,A,0.13
376,0.5004,1.2,1,0.2919,0.44202,0.47538,376,2.43528,0.45,0.22518,0.72558,5,2D1U,1.0,True,0.114,46,False,left,0.1668,0.2203,1.0796,0.8593,1.4045,2.2046,0.8,A,0.135
377,0.5004,1.2,2,0.40866,0.39198,0.417,377,2.42694,0.41,0.2085,0.7089,5,2D1U,1.0,False,1.292,47,True,left,-0.0834,1.2809,2.123,0.8421,0.3813,0.9313,0.55,A,0.135
378,0.5004,0.1,1,0.24186,0.31692,0.5004,378,1.96824,-0.19,-0.09174,0.40866,5,1D2U,2.0,True,0.374,49,True,right,0.1668,0.1716,0.7135,0.5418,1.0639,1.8639,0.8,A,0.13
379,0.5004,0.1,1,0.40032,0.25854,0.63384,379,2.20176,-0.19,-0.09174,0.40866,5,1D2U,1.0,False,0.217,49,True,left,-0.0834,0.3321,0.8733,0.5411,1.4819,2.0321,0.5502,A,0.13
380,0.5004,1.2,1,0.3753,0.35862,0.74226,380,2.70216,0.45,0.22518,0.72558,5,2D1U,1.0,True,0.951,48,True,left,0.1668,0.3064,1.1647,0.8583,1.7558,2.5558,0.8,A,0.135
381,0.5004,1.2,2,0.22518,0.31692,0.82566,381,2.2518,-0.23,-0.11676,0.38364,5,1D2U,1.0,True,0.601,50,True,left,-0.0834,1.5075,2.0243,0.5168,0.1996,0.7491,0.5494,A,0.135
382,0.5004,0.1,2,0.21684,0.30858,0.6255,382,2.03496,-0.23,-0.11676,0.38364,5,1D2U,1.0,True,0.458,50,True,left,0.1668,1.4224,1.939,0.5166,0.0636,0.8641,0.8006,A,0.13
383,0.5004,0.1,1,0.39198,0.39198,0.85902,383,2.86896,0.45,0.22518,0.72558,5,2D1U,1.0,True,0.418,48,True,left,-0.0834,0.328,1.1863,0.8583,2.0198,2.5698,0.55,A,0.13
384,0.5004,1.2,1,0.31692,0.30858,0.6255,384,2.16006,-0.19,-0.09174,0.40866,5,1D2U,1.0,False,0.45,51,True,left,0.1668,0.2489,0.7905,0.5416,1.2658,2.0653,0.7995,A,0.135
385,0.5004,1.2,1,0.23352,0.39198,0.64218,385,2.15172,-0.23,-0.11676,0.38364,5,1D2U,2.0,True,0.783,52,True,right,-0.0834,0.1698,0.6862,0.5164,1.3031,1.853,0.5499,A,0.135
386,0.5004,0.1,1,0.38364,0.27522,0.43368,386,2.30184,0.41,0.2085,0.7089,5,2D1U,1.0,True,0.341,49,True,left,0.1668,0.3184,1.1606,0.8423,1.4437,2.2441,0.8004,A,0.13
387,0.5004,0.1,1,0.3753,0.45036,0.40866,387,2.11836,-0.23,-0.11676,0.38364,5,1D2U,2.0,True,0.385,52,True,right,-0.0834,0.3069,0.8237,0.5168,1.2077,1.7582,0.5504,A,0.13
388,0.5004,1.2,2,0.38364,0.43368,0.63384,388,2.36022,-0.19,-0.09174,0.40866,5,1D2U,1.0,True,0.267,53,True,left,0.1668,1.5956,2.1376,0.5419,0.2291,1.0294,0.8002,A,0.135
389,0.5004,1.2,1,0.27522,0.42534,0.57546,389,2.18508,-0.19,-0.09174,0.40866,5,1D2U,2.0,True,0.459,53,True,right,-0.0834,0.2046,0.746,0.5413,1.2967,1.8465,0.5498,A,0.135
390,0.5004,0.1,1,0.22518,0.2502,0.52542,390,2.2101,0.41,0.2085,0.7089,5,2D1U,2.0,False,0.391,49,True,right,0.1668,0.1612,1.0029,0.8417,1.3781,2.1777,0.7996,A,0.13
391,0.5004,0.1,1,0.417,0.22518,0.59214,391,2.4603,0.45,0.22518,0.72558,5,2D1U,2.0,False,0.35,50,True,right,-0.0834,0.352,1.2101,0.8581,1.7772,2.3269,0.5498,A,0.13
392,0.5004,1.2,1,0.30858,0.42534,0.68388,392,2.34354,-0.15,-0.07506,0.42534,5,1D2U,1.0,False,0.358,53,False,left,0.1668,0.2429,0.8012,0.5583,1.3349,2.1347,0.7999,A,0.135
393,0.5004,1.2,1,0.31692,0.20016,0.60048,393,2.36022,0.49,0.24186,0.74226,5,2D1U,1.0,True,0.375,50,False,left,-0.0834,0.2533,1.1281,0.8748,1.7031,2.2536,0.5506,A,0.135
394,0.5004,0.1,2,0.26688,0.22518,0.55878,394,2.2935,0.49,0.24186,0.74226,5,2D1U,2.0,True,0.317,50,False,right,0.1668,1.4085,2.2828,0.8743,0.116,0.9163,0.8003,A,0.13
395,0.5004,0.1,2,0.2502,0.25854,0.59214,395,2.32686,0.45,0.22518,0.72558,5,2D1U,2.0,True,0.112,51,True,right,-0.0834,1.2981,2.1562,0.8581,0.2233,0.7723,0.549,A,0.13
396,0.5004,1.2,1,0.45036,0.35862,0.70056,396,2.73552,0.45,0.22518,0.72558,5,2D1U,2.0,False,0.158,51,True,right,0.1668,0.3798,1.2381,0.8583,1.788,2.5882,0.8003,A,0.135
397,0.5004,1.2,1,0.35028,0.35862,0.65886,397,2.27682,-0.19,-0.09174,0.40866,5,1D2U,2.0,True,0.333,54,True,right,-0.0834,0.2793,0.8213,0.542,1.4546,2.0045,0.5499,A,0.135
398,0.5004,0.1,1,0.21684,0.22518,0.5004,398,1.85148,-0.19,-0.09174,0.40866,5,1D2U,2.0,True,0.358,54,True,right,0.1668,0.1456,0.6875,0.542,1.037,1.837,0.8001,A,0.13
399,0.5004,0.1,1,0.39198,0.23352,0.834,399,2.70216,0.49,0.24186,0.74226,5,2D1U,1.0,True,0.525,52,True,left,-0.0834,0.3234,1.1982,0.8748,2.0059,2.5564,0.5504,A,0.13
400,0.5004,1.2,2,0.40866,0.417,0.60882,400,2.36022,-0.15,-0.07506,0.42534,5,1D2U,2.0,False,0.183,55,True,right,0.1668,1.5989,2.1576,0.5586,0.2577,1.0578,0.8002,A,0.135
401,0.5004,1.2,1,0.35028,0.25854,0.834,401,2.35188,-0.19,-0.09174,0.40866,5,1D2U,2.0,True,0.433,56,True,right,-0.0834,0.2798,0.822,0.5422,1.6299,2.1804,0.5505,A,0.135
402,0.5004,0.1,1,0.24186,0.43368,0.55044,402,2.46864,0.49,0.24186,0.74226,5,2D1U,2.0,False,0.243,52,True,right,0.1668,0.1762,1.0516,0.8754,1.4517,2.2514,0.7996,A,0.13
403,0.5004,0.1,2,0.45036,0.40866,0.88404,403,3.01074,0.53,0.26688,0.76728,5,2D1U,2.0,True,0.624,52,False,right,-0.0834,1.7888,2.6889,0.9001,0.422,0.9725,0.5505,A,0.13
404,0.5004,1.2,2,0.35862,0.34194,0.8757,404,2.84394,0.53,0.26688,0.76728,5,2D1U,2.0,True,0.301,52,False,right,0.1668,1.8152,2.7154,0.9002,0.2073,1.007,0.7996,A,0.135
405,0.5004,1.2,2,0.27522,0.32526,0.89238,405,2.40192,-0.19,-0.09174,0.40866,5,1D2U,1.0,True,0.476,56,True,left,-0.0834,1.6257,2.1674,0.5417,0.251,0.8008,0.5499,A,0.135
406,0.5004,0.1,2,0.31692,0.34194,0.5004,406,2.40192,0.49,0.24186,0.74226,5,2D1U,2.0,True,0.692,53,True,right,0.1668,1.3984,2.2741,0.8756,0.1656,0.9657,0.8001,A,0.13
407,0.5004,0.1,1,0.3336,0.2085,0.86736,407,2.65212,0.49,0.24186,0.74226,5,2D1U,1.0,True,0.4,53,True,left,-0.0834,0.267,1.1371,0.8702,1.9797,2.5294,0.5496,A,0.13
408,0.5004,1.2,1,0.3336,0.30024,0.63384,408,2.19342,-0.15,-0.07506,0.42534,5,1D2U,1.0,False,0.842,57,True,left,0.1668,0.2645,0.8228,0.5583,1.3059,2.1062,0.8003,A,0.135
409,0.5004,1.2,2,0.31692,0.31692,0.81732,409,2.67714,0.45,0.22518,0.72558,5,2D1U,2.0,True,0.416,53,False,right,-0.0834,1.5899,2.4483,0.8584,0.2898,0.8398,0.5499,A,0.135
410,0.5004,0.1,1,0.30024,0.43368,0.57546,410,2.53536,0.45,0.22518,0.72558,5,2D1U,1.0,True,0.217,53,False,left,0.1668,0.2308,1.0894,0.8586,1.5139,2.3136,0.7997,A,0.13
411,0.5004,0.1,2,0.35028,0.42534,0.6672,411,2.35188,-0.19,-0.09174,0.40866,5,1D2U,1.0,True,0.45,58,True,left,-0.0834,1.4736,2.0159,0.5423,0.3238,0.8742,0.5504,A,0.13
412,0.5004,1.2,2,0.30024,0.3753,0.80898,412,2.39358,-0.19,-0.09174,0.40866,5,1D2U,1.0,True,0.293,58,True,left,0.1668,1.6881,2.2302,0.5421,0.1468,0.947,0.8002,A,0.135
413,0.5004,1.2,1,0.31692,0.43368,0.80064,413,2.47698,-0.15,-0.07506,0.42534,5,1D2U,1.0,False,0.384,59,True,left,-0.0834,0.2468,0.8053,0.5586,1.5798,2.1298,0.55,A,0.135
414,0.5004,0.1,2,0.24186,0.3336,0.40032,414,2.18508,0.41,0.2085,0.7089,5,2D1U,2.0,True,0.133,53,False,right,0.1668,1.2214,2.0631,0.8416,0.088,0.8881,0.8001,A,0.13
415,0.5004,0.1,1,0.38364,0.27522,0.69222,415,2.26014,-0.19,-0.09174,0.40866,5,1D2U,1.0,False,0.5,60,True,left,-0.0834,0.3138,0.8547,0.5409,1.5221,2.0716,0.5495,A,0.13
416,0.5004,1.2,2,0.30024,0.25854,0.46704,416,2.23512,0.41,0.2085,0.7089,5,2D1U,2.0,True,0.291,53,False,right,0.1668,1.3478,2.1896,0.8418,0.1482,0.9476,0.7994,A,0.135
417,0.5004,1.2,2,0.28356,0.35862,0.86736,417,2.69382,0.37,0.18348,0.68388,5,2D1U,2.0,True,0.391,53,False,right,-0.0834,1.6041,2.421,0.8168,0.2543,0.8041,0.5498,A,0.135
418,0.5004,0.1,1,0.38364,0.2919,0.56712,418,2.1267,-0.23,-0.11676,0.38364,5,1D2U,2.0,True,0.433,60,False,right,0.1668,0.3201,0.8368,0.5167,1.2538,2.0533,0.7995,A,0.13
419,0.5004,0.1,1,0.2502,0.21684,0.60882,419,1.9599,-0.23,-0.11676,0.38364,5,1D2U,2.0,True,0.492,60,False,right,-0.0834,0.1856,0.7024,0.5167,1.2858,1.8355,0.5497,A,0.13
420,0.5004,1.2,2,0.31692,0.26688,0.80064,420,2.56872,0.37,0.18348,0.68388,5,2D1U,2.0,True,0.333,53,False,right,0.1668,1.7001,2.5167,0.8166,0.1668,0.9661,0.7993,A,0.135
421,0.5004,1.2,2,0.20016,0.31692,0.72558,421,2.41026,0.33,0.1668,0.6672,5,2D1U,2.0,True,0.258,53,False,right,-0.0834,1.3798,2.1801,0.8004,0.1716,0.7213,0.5497,A,0.135
422,0.5004,0.1,2,0.40866,0.34194,0.48372,422,2.14338,-0.19,-0.09174,0.40866,5,1D2U,1.0,True,0.358,61,True,left,0.1668,1.4765,2.018,0.5415,0.2596,1.0599,0.8003,A,0.13
423,0.5004,0.1,2,0.38364,0.30024,0.64218,423,2.23512,-0.19,-0.09174,0.40866,5,1D2U,1.0,True,0.383,61,True,left,-0.0834,1.4806,2.0222,0.5415,0.3557,0.9056,0.5499,A,0.13
424,0.5004,1.2,1,0.3336,0.22518,0.88404,424,2.61042,0.33,0.1668,0.6672,5,2D1U,2.0,False,0.4,53,False,right,0.1668,0.2648,1.0642,0.7994,1.7977,2.5978,0.8001,A,0.135
425,0.5004,1.2,2,0.3753,0.34194,0.5838,425,2.48532,0.37,0.18348,0.68388,5,2D1U,2.0,True,0.492,54,True,right,-0.0834,1.4146,2.2314,0.8168,0.3481,0.8977,0.5496,A,0.135
426,0.5004,0.1,1,0.36696,0.40866,0.47538,426,2.17674,-0.15,-0.07506,0.42534,5,1D2U,1.0,False,0.342,61,False,left,0.1668,0.2977,0.8566,0.5588,1.1812,1.9809,0.7997,A,0.13
427,0.5004,0.1,1,0.43368,0.34194,0.44202,427,2.40192,0.37,0.18348,0.68388,5,2D1U,1.0,True,0.367,54,True,left,-0.0834,0.3645,1.1811,0.8166,1.5979,2.1477,0.5498,A,0.13
428,0.5004,1.2,2,0.22518,0.25854,0.67554,428,2.06832,-0.19,-0.09174,0.40866,5,1D2U,1.0,True,0.551,62,True,left,0.1668,1.4832,2.025,0.5417,0.075,0.875,0.8,A,0.135
429,0.5004,1.2,1,0.42534,0.36696,0.4587,429,2.16006,-0.19,-0.09174,0.40866,5,1D2U,1.0,False,0.599,62,True,left,-0.0834,0.355,0.8963,0.5413,1.3289,1.8797,0.5508,A,0.135
430,0.5004,0.1,2,0.40032,0.32526,0.7923,430,2.68548,0.33,0.1668,0.6672,5,2D1U,2.0,True,0.883,55,True,right,0.1668,1.7722,2.5726,0.8004,0.2472,1.0463,0.799,A,0.13
431,0.5004,0.1,1,0.39198,0.21684,0.45036,431,1.94322,-0.23,-0.11676,0.38364,5,1D2U,2.0,True,0.475,62,False,right,-0.0834,0.3271,0.8439,0.5168,1.2692,1.8192,0.5501,A,0.13
432,0.5004,1.2,1,0.23352,0.21684,0.43368,432,1.76808,-0.23,-0.11676,0.38364,5,1D2U,1.0,False,0.114,62,False,left,0.1668,0.1673,0.6849,0.5176,0.9674,1.7681,0.8007,A,0.135
433,0.5004,1.2,2,0.43368,0.24186,0.57546,433,2.4186,0.33,0.1668,0.6672,5,2D1U,2.0,True,0.41,55,True,right,-0.0834,1.4663,2.2664,0.8001,0.4079,0.9581,0.5502,A,0.135
434,0.5004,0.1,1,0.43368,0.25854,0.5004,434,2.3352,0.29,0.14178,0.64218,5,2D1U,1.0,True,0.368,55,False,left,0.1668,0.365,1.1395,0.7745,1.4902,2.2897,0.7995,A,0.13
435,0.5004,0.1,2,0.25854,0.36696,0.90072,435,2.6688,0.29,0.14178,0.64218,5,2D1U,2.0,True,0.425,55,False,right,-0.0834,1.6176,2.393,0.7754,0.2351,0.7845,0.5494,A,0.13
436,0.5004,1.2,1,0.22518,0.27522,0.6672,436,2.03496,-0.27,-0.13344,0.36696,5,1D2U,2.0,True,0.341,62,False,right,0.1668,0.1556,0.6554,0.4998,1.1727,1.9729,0.8002,A,0.135
437,0.5004,1.2,2,0.23352,0.24186,0.84234,437,2.44362,0.25,0.1251,0.6255,5,2D1U,2.0,True,0.442,55,False,right,-0.0834,1.5367,2.295,0.7583,0.2115,0.761,0.5495,A,0.135
438,0.5004,0.1,2,0.26688,0.21684,0.50874,438,2.11836,0.25,0.1251,0.6255,5,2D1U,2.0,True,1.15,55,False,right,0.1668,1.3563,2.1152,0.7589,0.1148,0.9146,0.7998,A,0.13
439,0.5004,0.1,1,0.27522,0.27522,0.5421,439,1.9599,-0.27,-0.13344,0.36696,5,1D2U,2.0,True,0.375,62,False,right,-0.0834,0.206,0.7059,0.4999,1.2233,1.7731,0.5499,A,0.13
440,0.5004,1.2,1,0.32526,0.38364,0.81732,440,2.41026,-0.23,-0.11676,0.38364,5,1D2U,2.0,True,0.113,63,True,right,0.1668,0.2617,0.7779,0.5162,1.4448,2.2445,0.7997,A,0.135
441,0.5004,1.2,1,0.32526,0.21684,0.59214,441,2.01828,-0.23,-0.11676,0.38364,5,1D2U,2.0,True,0.525,63,True,right,-0.0834,0.2551,0.7719,0.5167,1.3394,1.8892,0.5498,A,0.135
442,0.5004,0.1,1,0.40032,0.417,0.65052,442,2.57706,0.21,0.10842,0.60882,5,2D1U,2.0,False,0.114,55,False,right,0.1668,0.3363,1.0784,0.7421,1.5779,2.3785,0.8006,A,0.13
443,0.5004,0.1,2,0.40032,0.32526,0.76728,443,2.61876,0.25,0.1251,0.6255,5,2D1U,2.0,True,0.391,56,True,right,-0.0834,1.6229,2.381,0.7582,0.3732,0.9229,0.5497,A,0.13
444,0.5004,1.2,2,0.22518,0.34194,0.51708,444,2.2101,0.25,0.1251,0.6255,5,2D1U,1.0,False,0.425,56,True,left,0.1668,1.3272,2.0857,0.7585,0.0767,0.8765,0.7998,A,0.135
445,0.5004,1.2,2,0.39198,0.21684,0.71724,445,2.23512,-0.19,-0.09174,0.40866,5,1D2U,1.0,True,0.567,63,False,left,-0.0834,1.5635,2.1063,0.5427,0.364,0.9144,0.5504,A,0.135
446,0.5004,0.1,2,0.32526,0.2502,0.85902,446,2.57706,0.29,0.14178,0.64218,5,2D1U,2.0,True,0.526,56,False,right,0.1668,1.764,2.5388,0.7748,0.172,0.972,0.8,A,0.13
447,0.5004,0.1,1,0.35028,0.26688,0.40866,447,2.1684,0.29,0.14178,0.64218,5,2D1U,1.0,True,0.393,56,False,left,-0.0834,0.2819,1.0571,0.7752,1.4404,1.9902,0.5498,A,0.13
448,0.5004,1.2,1,0.36696,0.44202,0.49206,448,2.2101,-0.19,-0.09174,0.40866,5,1D2U,1.0,False,1.066,63,False,left,0.1668,0.2963,0.8379,0.5416,1.1794,1.9794,0.8,A,0.135
449,0.5004,1.2,2,0.22518,0.31692,0.51708,449,1.94322,-0.23,-0.11676,0.38364,5,1D2U,2.0,False,0.469,64,True,right,-0.0834,1.203,1.7194,0.5165,0.2027,0.7521,0.5493,A,0.135
450,0.5004,0.1,2,0.34194,0.32526,0.417,450,2.2101,0.25,0.1251,0.6255,5,2D1U,1.0,False,0.416,57,True,left,0.1668,1.3402,2.0983,0.7581,0.1899,0.9899,0.8,A,0.13
451,0.5004,0.1,1,0.2919,0.28356,0.7923,451,2.51034,0.29,0.14178,0.64218,5,2D1U,1.0,True,0.425,58,True,left,-0.0834,0.2283,1.0032,0.7749,1.7696,2.3199,0.5502,A,0.13
452,0.5004,1.2,1,0.43368,0.39198,0.68388,452,2.65212,0.29,0.14178,0.64218,5,2D1U,1.0,True,0.384,58,True,left,0.1668,0.3671,1.1421,0.775,1.6753,2.4749,0.7996,A,0.135
453,0.5004,1.2,1,0.44202,0.2919,0.65052,453,2.2518,-0.27,-0.13344,0.36696,5,1D2U,1.0,False,0.49,64,False,left,-0.0834,0.3728,0.8725,0.4997,1.4969,2.0477,0.5508,A,0.135
454,0.5004,0.1,2,0.31692,0.28356,0.7089,454,2.15172,-0.31,-0.15846,0.34194,5,1D2U,1.0,True,0.392,64,False,left,0.1668,1.6099,2.0847,0.4748,0.1681,0.9681,0.8,A,0.13
455,0.5004,0.1,2,0.35028,0.3336,0.55878,455,2.36856,0.25,0.1251,0.6255,5,2D1U,2.0,True,0.482,59,True,right,-0.0834,1.3625,2.1208,0.7583,0.3212,0.8703,0.5491,A,0.13
456,0.5004,1.2,1,0.2502,0.24186,0.82566,456,2.16006,-0.31,-0.15846,0.34194,5,1D2U,2.0,True,0.375,64,False,right,0.1668,0.1806,0.6554,0.4748,1.3311,2.131,0.7999,A,0.135
457,0.5004,1.2,1,0.38364,0.3753,0.7089,457,2.59374,0.25,0.1251,0.6255,5,2D1U,1.0,True,0.551,59,True,left,-0.0834,0.3129,1.071,0.7581,1.7545,2.3045,0.55,A,0.135
458,0.5004,0.1,2,0.42534,0.21684,0.85068,458,2.60208,0.21,0.10842,0.60882,5,2D1U,2.0,True,0.424,59,False,right,0.1668,1.8581,2.5996,0.7415,0.2745,1.0746,0.8001,A,0.13
459,0.5004,0.1,1,0.36696,0.21684,0.84234,459,2.53536,0.21,0.10842,0.60882,5,2D1U,2.0,False,0.458,59,False,right,-0.0834,0.2956,1.0383,0.7427,1.8554,2.405,0.5496,A,0.13
460,0.5004,1.2,1,0.43368,0.22518,0.60882,460,2.13504,-0.27,-0.13344,0.36696,5,1D2U,2.0,True,0.526,65,True,right,0.1668,0.3686,0.8693,0.5008,1.3277,2.1277,0.8,A,0.135
461,0.5004,1.2,2,0.40032,0.417,0.5004,461,2.44362,0.25,0.1251,0.6255,5,2D1U,2.0,True,0.41,60,True,right,-0.0834,1.3596,2.1175,0.758,0.3758,0.9253,0.5495,A,0.135
462,0.5004,0.1,2,0.30858,0.40032,0.63384,462,2.2101,-0.27,-0.13344,0.36696,5,1D2U,1.0,True,0.392,65,True,left,0.1668,1.5254,2.0249,0.4995,0.1586,0.9587,0.8001,A,0.13
463,0.5004,0.1,2,0.24186,0.3336,0.72558,463,2.18508,-0.23,-0.11676,0.38364,5,1D2U,1.0,True,0.541,65,False,left,-0.0834,1.4212,1.9367,0.5154,0.2125,0.7618,0.5493,A,0.13
464,0.5004,1.2,1,0.39198,0.2919,0.53376,464,2.10168,-0.23,-0.11676,0.38364,5,1D2U,2.0,True,0.467,65,False,right,0.1668,0.3254,0.8424,0.5171,1.2258,2.0257,0.8,A,0.135
465,0.5004,1.2,2,0.3336,0.35028,0.86736,465,2.67714,0.25,0.1251,0.6255,5,2D1U,2.0,True,0.567,60,True,right,-0.0834,1.6567,2.4144,0.7577,0.306,0.8562,0.5502,A,0.135
466,0.5004,0.1,2,0.42534,0.2085,0.69222,466,2.43528,0.21,0.10842,0.60882,5,2D1U,2.0,True,0.416,61,True,right,0.1668,1.7012,2.4433,0.7421,0.2766,1.076,0.7994,A,0.13
467,0.5004,0.1,1,0.22518,0.30858,0.5421,467,1.98492,-0.19,-0.09174,0.40866,5,1D2U,2.0,True,0.44,65,False,right,-0.0834,0.1553,0.6975,0.5422,1.2139,1.7639,0.55,A,0.13
468,0.5004,1.2,1,0.23352,0.28356,0.46704,468,2.09334,0.21,0.10842,0.60882,5,2D1U,1.0,True,0.475,61,True,left,0.1668,0.1644,0.9067,0.7423,1.2232,2.0233,0.8002,A,0.135
469,0.5004,1.2,1,0.35028,0.25854,0.82566,469,2.51868,0.17,0.0834,0.5838,5,2D1U,1.0,True,0.509,61,False,left,-0.0834,0.2854,1.002,0.7167,1.802,2.3521,0.55,A,0.135
470,0.5004,0.1,1,0.26688,0.20016,0.65052,470,2.20176,0.17,0.0834,0.5838,5,2D1U,2.0,False,0.399,61,False,right,0.1668,0.1989,0.9153,0.7164,1.415,2.2154,0.8004,A,0.13
471,0.5004,0.1,1,0.32526,0.34194,0.77562,471,2.35188,-0.19,-0.09174,0.40866,5,1D2U,2.0,True,0.542,65,False,right,-0.0834,0.2557,0.7979,0.5421,1.5477,2.0976,0.5499,A,0.13
472,0.5004,1.2,1,0.35862,0.30024,0.8757,472,2.4603,-0.15,-0.07506,0.42534,5,1D2U,2.0,True,0.425,65,False,right,0.1668,0.2934,0.852,0.5586,1.5772,2.3766,0.7994,A,0.135
473,0.5004,1.2,1,0.32526,0.43368,0.49206,473,2.36022,0.21,0.10842,0.60882,5,2D1U,1.0,True,1.608,62,True,left,-0.0834,0.2594,1.0008,0.7414,1.4679,2.0175,0.5496,A,0.135
474,0.5004,0.1,1,0.2502,0.2502,0.88404,474,2.31018,-0.15,-0.07506,0.42534,5,1D2U,2.0,True,0.384,65,False,right,0.1668,0.1786,0.7366,0.5581,1.4706,2.2705,0.7999,A,0.13
475,0.5004,0.1,2,0.3753,0.36696,0.85068,475,2.53536,-0.11,-0.05838,0.44202,5,1D2U,2.0,False,0.45,65,False,right,-0.0834,1.6794,2.2544,0.575,0.3467,0.8961,0.5494,A,0.13
476,0.5004,1.2,1,0.40866,0.35862,0.57546,476,2.26848,-0.15,-0.07506,0.42534,5,1D2U,2.0,True,0.492,66,True,right,0.1668,0.3429,0.9009,0.5579,1.3262,2.1259,0.7997,A,0.135
477,0.5004,1.2,2,0.21684,0.3336,0.63384,477,2.11002,-0.15,-0.07506,0.42534,5,1D2U,1.0,True,0.433,66,True,left,-0.0834,1.3109,1.8694,0.5586,0.1944,0.7436,0.5492,A,0.135
478,0.5004,0.1,2,0.27522,0.20016,0.84234,478,2.42694,0.21,0.10842,0.60882,5,2D1U,1.0,False,0.484,62,True,left,0.1668,1.6971,2.4441,0.7471,0.1224,0.9219,0.7995,A,0.13
479,0.5004,0.1,2,0.24186,0.40032,0.7089,479,2.47698,0.25,0.1251,0.6255,5,2D1U,2.0,True,0.384,62,False,right,-0.0834,1.406,2.1642,0.7582,0.2144,0.7643,0.55,A,0.13
480,0.5004,1.2,2,0.31692,0.30024,0.88404,480,2.6271,0.25,0.1251,0.6255,5,2D1U,2.0,True,0.251,62,False,right,0.1668,1.779,2.5377,0.7587,0.1624,0.9629,0.8005,A,0.135
481,0.5004,1.2,2,0.27522,0.44202,0.7089,481,2.36856,-0.11,-0.05838,0.44202,5,1D2U,1.0,True,0.592,67,True,left,-0.0834,1.4434,2.0181,0.5747,0.2516,0.8012,0.5496,A,0.135
482,0.5004,0.1,1,0.2085,0.35028,0.52542,482,2.19342,0.21,0.10842,0.60882,5,2D1U,1.0,True,0.483,63,True,left,0.1668,0.1414,0.8831,0.7417,1.2581,2.0575,0.7994,A,0.13
483,0.5004,0.1,2,0.32526,0.38364,0.48372,483,2.13504,-0.11,-0.05838,0.44202,5,1D2U,2.0,False,0.392,67,True,right,-0.0834,1.2696,1.8442,0.5746,0.3032,0.8525,0.5492,A,0.13
484,0.5004,1.2,2,0.26688,0.38364,0.43368,484,2.00994,-0.15,-0.07506,0.42534,5,1D2U,1.0,True,0.351,68,True,left,0.1668,1.2833,1.8413,0.558,0.1163,0.9164,0.8001,A,0.135
485,0.5004,1.2,2,0.35862,0.40866,0.71724,485,2.59374,0.21,0.10842,0.60882,5,2D1U,2.0,True,0.35,63,True,right,-0.0834,1.532,2.2736,0.7416,0.3317,0.8819,0.5502,A,0.135
486,0.5004,0.1,1,0.44202,0.43368,0.5421,486,2.34354,-0.15,-0.07506,0.42534,5,1D2U,2.0,True,0.317,68,True,right,0.1668,0.3735,0.9317,0.5582,1.3234,2.1234,0.8,A,0.13
487,0.5004,0.1,1,0.44202,0.27522,0.7089,487,2.51034,0.17,0.0834,0.5838,5,2D1U,2.0,False,0.375,63,False,right,-0.0834,0.3739,1.0905,0.7166,1.7729,2.3236,0.5507,A,0.13
488,0.5004,1.2,1,0.26688,0.35862,0.6672,488,2.23512,-0.11,-0.05838,0.44202,5,1D2U,2.0,True,0.366,69,True,right,0.1668,0.1973,0.7726,0.5753,1.2892,2.0895,0.8003,A,0.135
489,0.5004,1.2,1,0.2502,0.36696,0.85902,489,2.5854,0.21,0.10842,0.60882,5,2D1U,2.0,False,0.35,64,True,right,-0.0834,0.1786,0.9202,0.7416,1.754,2.3032,0.5492,A,0.135
490,0.5004,0.1,2,0.2085,0.39198,0.5421,490,2.26848,0.25,0.1251,0.6255,5,2D1U,2.0,True,0.416,64,False,right,0.1668,1.3298,2.0881,0.7583,0.0551,0.8546,0.7994,A,0.13
491,0.5004,0.1,1,0.35862,0.43368,0.45036,491,2.18508,-0.11,-0.05838,0.44202,5,1D2U,2.0,True,0.434,69,True,right,-0.0834,0.2926,0.8674,0.5748,1.2926,1.8419,0.5492,A,0.13
492,0.5004,1.2,1,0.3336,0.30858,0.73392,492,2.502,0.25,0.1251,0.6255,5,2D1U,2.0,False,0.425,64,False,right,0.1668,0.2637,1.0225,0.7588,1.606,2.4058,0.7999,A,0.135
493,0.5004,1.2,2,0.36696,0.32526,0.57546,493,2.23512,-0.07,-0.03336,0.46704,5,1D2U,2.0,False,0.367,69,False,right,-0.0834,1.3999,2.0001,0.6002,0.3419,0.892,0.5501,A,0.135
494,0.5004,0.1,2,0.26688,0.417,0.76728,494,2.59374,0.29,0.14178,0.64218,5,2D1U,2.0,True,0.459,64,False,right,0.1668,1.6196,2.3944,0.7748,0.1193,0.9192,0.7998,A,0.13
495,0.5004,0.1,2,0.30858,0.43368,0.6255,495,2.31018,-0.11,-0.05838,0.44202,5,1D2U,2.0,False,0.4,70,True,right,-0.0834,1.3898,1.9649,0.5751,0.2818,0.8315,0.5497,A,0.13
496,0.5004,1.2,2,0.25854,0.44202,0.45036,496,2.2935,0.29,0.14178,0.64218,5,2D1U,2.0,True,0.433,64,False,right,0.1668,1.2944,2.07,0.7756,0.1107,0.9112,0.8005,A,0.135
497,0.5004,1.2,1,0.39198,0.35862,0.89238,497,2.76888,0.25,0.1251,0.6255,5,2D1U,2.0,False,0.517,65,True,right,-0.0834,0.3219,1.0801,0.7581,1.9469,2.497,0.55,A,0.135
498,0.5004,0.1,2,0.43368,0.3336,0.78396,498,2.69382,0.29,0.14178,0.64218,5,2D1U,2.0,True,0.35,66,True,right,0.1668,1.7989,2.5736,0.7748,0.2824,1.0823,0.7999,A,0.13
499,0.5004,0.1,2,0.35862,0.35862,0.72558,499,2.36856,-0.15,-0.07506,0.42534,5,1D2U,2.0,False,0.334,70,False,right,-0.0834,1.543,2.1015,0.5585,0.3345,0.8847,0.5502,A,0.13
500,0.5004,1.2,2,0.43368,0.40032,0.69222,500,2.6688,0.29,0.14178,0.64218,5,2D1U,1.0,False,0.367,66,True,left,0.1668,1.7062,2.4808,0.7746,0.2815,1.0813,0.7998,A,0.135
501,0.5004,1.2,2,0.24186,0.43368,0.45036,501,2.03496,-0.19,-0.09174,0.40866,5,1D2U,1.0,True,0.317,70,False,left,-0.0834,1.1479,1.6899,0.542,0.2146,0.7646,0.55,A,0.135
502,0.5004,0.1,1,0.35028,0.3753,0.82566,502,2.4603,-0.19,-0.09174,0.40866,5,1D2U,2.0,True,0.125,70,False,right,0.1668,0.2798,0.8211,0.5413,1.4964,2.2958,0.7994,A,0.13
503,0.5004,0.1,2,0.35862,0.40032,0.834,503,2.51868,-0.15,-0.07506,0.42534,5,1D2U,1.0,True,0.832,71,True,left,-0.0834,1.6504,2.2089,0.5585,0.3337,0.8837,0.5501,A,0.13
504,0.5004,1.2,1,0.35862,0.34194,0.64218,504,2.51034,0.33,0.1668,0.6672,5,2D1U,1.0,True,0.4,66,False,left,0.1668,0.2923,1.0927,0.8004,1.5847,2.3846,0.7999,A,0.135
505,0.5004,1.2,2,0.32526,0.32526,0.60882,505,2.18508,-0.15,-0.07506,0.42534,5,1D2U,2.0,False,0.383,71,True,right,-0.0834,1.3896,1.9473,0.5576,0.2973,0.8479,0.5506,A,0.135
506,0.5004,0.1,2,0.27522,0.30024,0.77562,506,2.51868,0.33,0.1668,0.6672,5,2D1U,2.0,True,1.492,66,False,right,0.1668,1.6311,2.4302,0.7991,0.1226,0.9222,0.7996,A,0.13
507,0.5004,0.1,1,0.45036,0.2919,0.834,507,2.71884,0.29,0.14178,0.64218,5,2D1U,1.0,True,0.491,67,True,left,-0.0834,0.3817,1.1569,0.7752,1.9642,2.5148,0.5506,A,0.13
508,0.5004,1.2,2,0.417,0.36696,0.63384,508,2.32686,-0.19,-0.09174,0.40866,5,1D2U,1.0,True,0.483,72,True,left,0.1668,1.6364,2.178,0.5416,0.2698,1.0696,0.7999,A,0.135
509,0.5004,1.2,2,0.30024,0.417,0.56712,509,2.19342,-0.19,-0.09174,0.40866,5,1D2U,2.0,False,0.483,72,True,right,-0.0834,1.324,1.8657,0.5417,0.2742,0.8245,0.5503,A,0.135
510,0.5004,0.1,2,0.28356,0.3336,0.43368,510,2.19342,0.29,0.14178,0.64218,5,2D1U,2.0,True,0.159,67,True,right,0.1668,1.3025,2.0771,0.7746,0.136,0.9361,0.8002,A,0.13
511,0.5004,0.1,2,0.2085,0.22518,0.8757,511,2.19342,-0.23,-0.11676,0.38364,5,1D2U,1.0,True,0.674,72,False,left,-0.0834,1.5403,2.0574,0.5171,0.1824,0.7318,0.5494,A,0.13
512,0.5004,1.2,2,0.21684,0.32526,0.68388,512,2.11002,-0.23,-0.11676,0.38364,5,1D2U,1.0,True,0.483,72,False,left,0.1668,1.4816,1.9981,0.5166,0.0646,0.8649,0.8003,A,0.135
513,0.5004,1.2,2,0.42534,0.20016,0.55044,513,2.085,-0.19,-0.09174,0.40866,5,1D2U,1.0,True,0.542,73,True,left,-0.0834,1.4304,1.9723,0.5419,0.3966,0.9473,0.5507,A,0.135
514,0.5004,0.1,1,0.38364,0.30024,0.72558,514,2.53536,0.25,0.1251,0.6255,5,2D1U,1.0,True,0.475,67,False,left,0.1668,0.3116,1.071,0.7594,1.6454,2.4454,0.8,A,0.13
515,0.5004,0.1,1,0.44202,0.3336,0.49206,515,2.17674,-0.19,-0.09174,0.40866,5,1D2U,2.0,True,0.467,73,True,right,-0.0834,0.3704,0.9126,0.5422,1.3797,1.9295,0.5498,A,0.13
516,0.5004,1.2,2,0.26688,0.35028,0.5838,516,2.32686,0.25,0.1251,0.6255,5,2D1U,1.0,False,0.342,67,False,left,0.1668,1.4308,2.1893,0.7585,0.1141,0.9144,0.8003,A,0.135
517,0.5004,1.2,2,0.31692,0.3753,0.56712,517,2.40192,0.29,0.14178,0.64218,5,2D1U,1.0,False,0.459,68,True,left,-0.0834,1.3369,2.1124,0.7756,0.287,0.8377,0.5507,A,0.135
518,0.5004,0.1,2,0.24186,0.30024,0.60048,518,2.06832,-0.15,-0.07506,0.42534,5,1D2U,1.0,True,0.467,73,False,left,0.1668,1.4208,1.9789,0.5581,0.087,0.8876,0.8005,A,0.13
519,0.5004,0.1,2,0.39198,0.30858,0.50874,519,2.3769,0.33,0.1668,0.6672,5,2D1U,2.0,True,0.375,68,False,right,-0.0834,1.3532,2.1536,0.8004,0.3612,0.912,0.5507,A,0.13
520,0.5004,1.2,1,0.36696,0.38364,0.43368,520,2.11002,-0.15,-0.07506,0.42534,5,1D2U,2.0,True,0.208,73,False,right,0.1668,0.2973,0.8556,0.5583,1.139,1.939,0.8,A,0.135
521,0.5004,1.2,1,0.30024,0.2502,0.59214,521,2.085,-0.11,-0.05838,0.44202,5,1D2U,2.0,True,0.399,73,False,right,-0.0834,0.2347,0.8099,0.5751,1.3764,1.9258,0.5494,A,0.135
522,0.5004,0.1,1,0.417,0.3753,0.85068,522,2.81058,0.33,0.1668,0.6672,5,2D1U,1.0,True,0.3,68,False,left,0.1668,0.3485,1.1484,0.7999,1.8486,2.6485,0.7999,A,0.13
523,0.5004,0.1,2,0.32526,0.31692,0.68388,523,2.26848,-0.11,-0.05838,0.44202,5,1D2U,2.0,False,0.408,73,False,right,-0.0834,1.465,2.0406,0.5756,0.2988,0.848,0.5492,A,0.13
524,0.5004,1.2,1,0.22518,0.40032,0.88404,524,2.43528,-0.15,-0.07506,0.42534,5,1D2U,2.0,True,0.2,74,True,right,0.1668,0.1594,0.7171,0.5577,1.4502,2.2511,0.8009,A,0.135
525,0.5004,1.2,2,0.36696,0.44202,0.7089,525,2.66046,0.29,0.14178,0.64218,5,2D1U,1.0,False,0.382,69,True,left,-0.0834,1.5298,2.3052,0.7754,0.3373,0.888,0.5507,A,0.135
526,0.5004,0.1,1,0.39198,0.30024,0.42534,526,2.0433,-0.15,-0.07506,0.42534,5,1D2U,2.0,True,0.275,74,True,right,0.1668,0.3262,0.8853,0.5591,1.1604,1.9602,0.7999,A,0.13
527,0.5004,0.1,1,0.36696,0.40032,0.68388,527,2.39358,-0.11,-0.05838,0.44202,5,1D2U,1.0,False,0.45,75,True,left,-0.0834,0.3031,0.8781,0.575,1.5356,2.0864,0.5508,A,0.13
528,0.5004,1.2,2,0.23352,0.45036,0.7506,528,2.60208,0.33,0.1668,0.6672,5,2D1U,1.0,False,0.451,70,True,left,0.1668,1.5641,2.3634,0.7993,0.0807,0.8807,0.8001,A,0.135
529,0.5004,1.2,1,0.417,0.43368,0.5421,529,2.57706,0.37,0.18348,0.68388,5,2D1U,1.0,True,0.567,70,False,left,-0.0834,0.3515,1.1679,0.8163,1.6844,2.2348,0.5504,A,0.135
530,0.5004,0.1,2,0.34194,0.39198,0.60882,530,2.52702,0.37,0.18348,0.68388,5,2D1U,2.0,True,0.616,70,False,right,0.1668,1.5289,2.3456,0.8167,0.1874,0.9871,0.7998,A,0.13
531,0.5004,0.1,2,0.3336,0.2085,0.72558,531,2.43528,0.33,0.1668,0.6672,5,2D1U,2.0,True,0.55,71,True,right,-0.0834,1.5157,2.3155,0.7998,0.3063,0.8571,0.5508,A,0.13
532,0.5004,1.2,2,0.3753,0.40032,0.73392,532,2.43528,-0.15,-0.07506,0.42534,5,1D2U,1.0,True,0.45,76,True,left,0.1668,1.6939,2.2525,0.5586,0.2271,1.0273,0.8002,A,0.135
533,0.5004,1.2,2,0.3753,0.2502,0.56712,533,2.11836,-0.15,-0.07506,0.42534,5,1D2U,1.0,True,0.458,76,True,left,-0.0834,1.3953,1.9538,0.5585,0.3453,0.8946,0.5493,A,0.135
534,0.5004,0.1,2,0.35028,0.26688,0.48372,534,2.0433,-0.11,-0.05838,0.44202,5,1D2U,1.0,True,0.5,77,True,left,0.1668,1.4192,1.9935,0.5743,0.2029,1.0024,0.7995,A,0.13
535,0.5004,0.1,1,0.2919,0.25854,0.55878,535,2.27682,0.33,0.1668,0.6672,5,2D1U,1.0,True,0.492,71,True,left,-0.0834,0.2226,1.0224,0.7999,1.5565,2.1057,0.5492,A,0.13
536,0.5004,1.2,2,0.23352,0.39198,0.40866,536,2.17674,0.29,0.14178,0.64218,5,2D1U,1.0,False,0.449,71,False,left,0.1668,1.2268,2.0019,0.775,0.0854,0.8848,0.7995,A,0.135
537,0.5004,1.2,1,0.3336,0.35862,0.71724,537,2.35188,-0.11,-0.05838,0.44202,5,1D2U,1.0,False,0.467,77,True,left,-0.0834,0.2635,0.8384,0.5749,1.5301,2.0797,0.5497,A,0.135
538,0.5004,0.1,1,0.2085,0.36696,0.67554,538,2.4186,0.33,0.1668,0.6672,5,2D1U,1.0,True,0.4,72,True,left,0.1668,0.1454,0.9451,0.7997,1.4699,2.2699,0.8,A,0.13
539,0.5004,0.1,2,0.42534,0.22518,0.80898,539,2.38524,-0.15,-0.07506,0.42534,5,1D2U,1.0,True,0.484,78,True,left,-0.0834,1.6923,2.2514,0.5591,0.4009,0.9518,0.5509,A,0.13
540,0.5004,1.2,2,0.2919,0.21684,0.71724,540,2.15172,-0.15,-0.07506,0.42534,5,1D2U,1.0,True,0.475,78,True,left,0.1668,1.591,2.1497,0.5586,0.1414,0.9414,0.8,A,0.135
541,0.5004,1.2,2,0.23352,0.24186,0.52542,541,2.1684,0.33,0.1668,0.6672,5,2D1U,2.0,True,0.55,72,True,right,-0.0834,1.2145,2.0147,0.8002,0.2066,0.7562,0.5496,A,0.135
542,0.5004,0.1,1,0.43368,0.38364,0.55044,542,2.31018,-0.11,-0.05838,0.44202,5,1D2U,2.0,True,0.458,79,True,right,0.1668,0.3658,0.9411,0.5752,1.3415,2.1408,0.7994,A,0.13
543,0.5004,0.1,1,0.417,0.417,0.59214,543,2.36856,-0.11,-0.05838,0.44202,5,1D2U,2.0,True,0.384,79,True,right,-0.0834,0.3462,0.9212,0.5751,1.4877,2.0371,0.5494,A,0.13
544,0.5004,1.2,1,0.28356,0.35028,0.61716,544,2.39358,0.29,0.14178,0.64218,5,2D1U,1.0,True,0.359,73,True,left,0.1668,0.2204,0.9949,0.7746,1.4609,2.2616,0.8006,A,0.135
545,0.5004,1.2,2,0.34194,0.43368,0.61716,545,2.36022,-0.07,-0.03336,0.46704,5,1D2U,1.0,True,0.559,79,False,left,-0.0834,1.4123,2.0121,0.5998,0.3123,0.8617,0.5494,A,0.135
546,0.5004,0.1,1,0.42534,0.30024,0.40866,546,2.27682,0.29,0.14178,0.64218,5,2D1U,1.0,True,0.433,73,True,left,0.1668,0.3571,1.1323,0.7752,1.3901,2.1908,0.8007,A,0.13
547,0.5004,0.1,1,0.27522,0.40866,0.82566,547,2.47698,-0.07,-0.03336,0.46704,5,1D2U,2.0,True,0.475,79,False,right,-0.0834,0.207,0.8071,0.6001,1.6074,2.1569,0.5495,A,0.13
548,0.5004,1.2,2,0.39198,0.31692,0.6255,548,2.31852,-0.03,-0.01668,0.48372,5,1D2U,1.0,True,0.474,79,False,left,0.1668,1.6029,2.2198,0.6169,0.245,1.0443,0.7993,A,0.135
549,0.5004,1.2,2,0.23352,0.22518,0.69222,549,2.13504,-0.03,-0.01668,0.48372,5,1D2U,1.0,True,0.516,79,False,left,-0.0834,1.3817,1.9989,0.6172,0.2064,0.7568,0.5503,A,0.135
550,0.5004,0.1,2,0.35028,0.42534,0.70056,550,2.60208,0.25,0.1251,0.6255,5,2D1U,2.0,True,0.392,73,False,right,0.1668,1.6307,2.3892,0.7586,0.1974,0.9976,0.8002,A,0.13
551,0.5004,0.1,1,0.23352,0.35028,0.65886,551,2.2518,0.01,0.00834,0.50874,5,1D2U,1.0,True,0.467,79,False,left,-0.0834,0.163,0.8048,0.6418,1.4383,1.9882,0.5499,A,0.13
552,0.5004,1.2,1,0.40866,0.44202,0.81732,552,2.65212,-0.03,-0.01668,0.48372,5,1D2U,1.0,False,0.441,80,True,left,0.1668,0.3384,0.9551,0.6167,1.6217,2.4217,0.8001,A,0.135
553,0.5004,1.2,1,0.40866,0.45036,0.86736,553,2.85228,0.25,0.1251,0.6255,5,2D1U,1.0,True,0.451,73,False,left,-0.0834,0.3443,1.1034,0.759,1.945,2.4952,0.5502,A,0.135
554,0.5004,0.1,1,0.43368,0.23352,0.88404,554,2.51868,-0.07,-0.03336,0.46704,5,1D2U,1.0,False,0.443,80,False,left,0.1668,0.3645,0.9644,0.5999,1.6978,2.4975,0.7998,A,0.13
555,0.5004,0.1,1,0.40866,0.2502,0.63384,555,2.23512,-0.11,-0.05838,0.44202,5,1D2U,1.0,False,0.458,80,False,left,-0.0834,0.3386,0.9139,0.5753,1.5223,2.0721,0.5498,A,0.13
556,0.5004,1.2,1,0.39198,0.31692,0.5838,556,2.40192,0.21,0.10842,0.60882,5,2D1U,2.0,False,0.467,73,False,right,0.1668,0.3285,1.07,0.7415,1.5034,2.3033,0.8,A,0.135
557,0.5004,1.2,1,0.38364,0.38364,0.47538,557,2.36856,0.25,0.1251,0.6255,5,2D1U,1.0,True,0.449,74,True,left,-0.0834,0.318,1.0764,0.7584,1.5262,2.0761,0.55,A,0.135
558,0.5004,0.1,2,0.417,0.26688,0.7089,558,2.31852,-0.15,-0.07506,0.42534,5,1D2U,1.0,True,0.367,80,False,left,0.1668,1.7055,2.2636,0.5581,0.2637,1.063,0.7993,A,0.13
559,0.5004,0.1,2,0.30024,0.35028,0.76728,559,2.34354,-0.15,-0.07506,0.42534,5,1D2U,1.0,True,0.443,80,False,left,-0.0834,1.5233,2.0817,0.5584,0.2732,0.8238,0.5506,A,0.13
560,0.5004,1.2,2,0.417,0.3753,0.47538,560,2.2101,-0.11,-0.05838,0.44202,5,1D2U,2.0,False,0.358,81,True,right,0.1668,1.4751,2.0511,0.576,0.2673,1.0673,0.8001,A,0.135
561,0.5004,1.2,2,0.44202,0.23352,0.48372,561,2.085,-0.15,-0.07506,0.42534,5,1D2U,2.0,False,0.834,82,True,right,-0.0834,1.3838,1.9426,0.5588,0.4172,0.9673,0.5501,A,0.135
562,0.5004,0.1,2,0.45036,0.42534,0.65052,562,2.65212,0.25,0.1251,0.6255,5,2D1U,2.0,True,0.358,74,True,right,0.1668,1.6851,2.4428,0.7577,0.3012,1.1004,0.7992,A,0.13
563,0.5004,0.1,1,0.417,0.40032,0.81732,563,2.74386,0.21,0.10842,0.60882,5,2D1U,1.0,True,0.333,75,True,left,-0.0834,0.3474,1.0892,0.7418,1.8809,2.4312,0.5503,A,0.13
564,0.5004,1.2,1,0.23352,0.30024,0.82566,564,2.26848,-0.19,-0.09174,0.40866,5,1D2U,2.0,True,0.25,82,False,right,0.1668,0.163,0.7037,0.5407,1.3796,2.1794,0.7998,A,0.135
565,0.5004,1.2,2,0.27522,0.22518,0.44202,565,1.85148,-0.19,-0.09174,0.40866,5,1D2U,2.0,False,0.492,82,False,right,-0.0834,1.1768,1.7188,0.5421,0.2522,0.8016,0.5495,A,0.135
566,0.5004,0.1,1,0.2919,0.35028,0.65886,566,2.18508,-0.23,-0.11676,0.38364,5,1D2U,2.0,True,0.358,82,False,right,0.1668,0.2233,0.7402,0.5168,1.2483,2.0482,0.7999,A,0.13
567,0.5004,0.1,1,0.22518,0.32526,0.86736,567,2.30184,-0.23,-0.11676,0.38364,5,1D2U,2.0,True,0.334,82,False,right,-0.0834,0.1544,0.6705,0.5161,1.513,2.0627,0.5497,A,0.13
568,0.5004,1.2,1,0.2085,0.26688,0.6255,568,2.2101,0.21,0.10842,0.60882,5,2D1U,2.0,False,0.4,75,True,right,0.1668,0.1388,0.8807,0.7419,1.3559,2.1555,0.7997,A,0.135
569,0.5004,1.2,2,0.34194,0.39198,0.65886,569,2.30184,-0.19,-0.09174,0.40866,5,1D2U,1.0,True,0.583,83,True,left,-0.0834,1.4583,1.9998,0.5415,0.3164,0.8659,0.5495,A,0.135
570,0.5004,0.1,2,0.26688,0.30024,0.5004,570,2.19342,0.25,0.1251,0.6255,5,2D1U,2.0,True,0.208,76,True,right,0.1668,1.346,2.105,0.759,0.113,0.9127,0.7997,A,0.13
571,0.5004,0.1,1,0.43368,0.2919,0.70056,571,2.3352,-0.19,-0.09174,0.40866,5,1D2U,2.0,True,0.425,83,True,right,-0.0834,0.3641,0.9058,0.5418,1.5807,2.1308,0.5501,A,0.13
572,0.5004,1.2,2,0.42534,0.43368,0.61716,572,2.60208,0.25,0.1251,0.6255,5,2D1U,1.0,False,0.114,76,True,left,0.1668,1.6279,2.3864,0.7585,0.2784,1.078,0.7996,A,0.135
573,0.5004,1.2,2,0.23352,0.21684,0.47538,573,1.85148,-0.15,-0.07506,0.42534,5,1D2U,1.0,True,0.442,83,False,left,-0.0834,1.1674,1.7256,0.5582,0.2091,0.7588,0.5498,A,0.135
574,0.5004,0.1,1,0.42534,0.2919,0.7506,574,2.61042,0.29,0.14178,0.64218,5,2D1U,1.0,True,0.467,76,False,left,0.1668,0.3553,1.13,0.7748,1.7305,2.5301,0.7996,A,0.13
575,0.5004,0.1,2,0.45036,0.31692,0.42534,575,2.3352,0.29,0.14178,0.64218,5,2D1U,2.0,True,0.358,76,False,right,-0.0834,1.3361,2.1116,0.7756,0.428,0.9778,0.5498,A,0.13
576,0.5004,1.2,2,0.35028,0.23352,0.64218,576,2.35188,0.25,0.1251,0.6255,5,2D1U,2.0,True,0.608,77,True,right,0.1668,1.5775,2.3356,0.7581,0.2016,1.0026,0.8011,A,0.135
577,0.5004,1.2,2,0.26688,0.25854,0.6255,577,2.07666,-0.15,-0.07506,0.42534,5,1D2U,2.0,False,0.367,83,False,right,-0.0834,1.3514,1.9098,0.5584,0.2434,0.793,0.5496,A,0.135
578,0.5004,0.1,1,0.417,0.30024,0.44202,578,2.06832,-0.19,-0.09174,0.40866,5,1D2U,2.0,True,0.342,84,True,right,0.1668,0.3468,0.8892,0.5424,1.1805,1.9805,0.8,A,0.13
579,0.5004,0.1,1,0.3753,0.2502,0.55044,579,2.30184,0.25,0.1251,0.6255,5,2D1U,1.0,True,0.375,77,True,left,-0.0834,0.311,1.0696,0.7586,1.5945,2.1438,0.5493,A,0.13
580,0.5004,1.2,1,0.38364,0.43368,0.52542,580,2.45196,0.21,0.10842,0.60882,5,2D1U,1.0,True,0.141,77,False,left,0.1668,0.3179,1.0602,0.7422,1.4349,2.2347,0.7999,A,0.135
581,0.5004,1.2,2,0.3336,0.30858,0.84234,581,2.39358,-0.19,-0.09174,0.40866,5,1D2U,1.0,True,0.45,84,True,left,-0.0834,1.6321,2.1738,0.5417,0.307,0.8567,0.5497,A,0.135
582,0.5004,0.1,1,0.2085,0.417,0.43368,582,2.1684,0.21,0.10842,0.60882,5,2D1U,2.0,False,0.292,77,False,right,0.1668,0.1389,0.8804,0.7416,1.1637,1.9637,0.8,A,0.13
583,0.5004,0.1,2,0.32526,0.23352,0.73392,583,2.21844,-0.15,-0.07506,0.42534,5,1D2U,1.0,True,0.491,85,True,left,-0.0834,1.5194,2.0776,0.5582,0.3022,0.8524,0.5502,A,0.13
584,0.5004,1.2,2,0.28356,0.3753,0.60048,584,2.18508,-0.15,-0.07506,0.42534,5,1D2U,2.0,False,0.125,85,True,right,0.1668,1.4693,2.0275,0.5582,0.1352,0.9358,0.8006,A,0.135
585,0.5004,1.2,1,0.36696,0.40032,0.5838,585,2.47698,0.25,0.1251,0.6255,5,2D1U,1.0,True,0.468,78,True,left,-0.0834,0.2965,1.0545,0.758,1.6133,2.1628,0.5494,A,0.135
586,0.5004,0.1,2,0.30858,0.45036,0.44202,586,2.32686,0.25,0.1251,0.6255,5,2D1U,2.0,True,0.375,78,True,right,0.1668,1.335,2.0939,0.7589,0.16,0.9601,0.8001,A,0.13
587,0.5004,0.1,1,0.39198,0.3753,0.75894,587,2.63544,0.21,0.10842,0.60882,5,2D1U,1.0,True,0.167,79,True,left,-0.0834,0.3201,1.0615,0.7414,1.795,2.345,0.55,A,0.13
588,0.5004,1.2,2,0.32526,0.2502,0.80898,588,2.2935,-0.19,-0.09174,0.40866,5,1D2U,2.0,False,0.867,86,True,right,0.1668,1.7199,2.2609,0.541,0.1785,0.9782,0.7997,A,0.135
589,0.5004,1.2,2,0.21684,0.36696,0.50874,589,1.97658,-0.23,-0.11676,0.38364,5,1D2U,2.0,False,0.7,86,False,right,-0.0834,1.1852,1.702,0.5168,0.193,0.7435,0.5505,A,0.135
590,0.5004,0.1,1,0.35028,0.31692,0.86736,590,2.40192,-0.27,-0.13344,0.36696,5,1D2U,2.0,True,0.342,86,False,right,0.1668,0.2842,0.7848,0.5006,1.501,2.3008,0.7998,A,0.13
591,0.5004,0.1,1,0.20016,0.44202,0.60048,591,2.11002,-0.27,-0.13344,0.36696,5,1D2U,2.0,True,0.5,86,False,right,-0.0834,0.1304,0.6298,0.4994,1.2055,1.7555,0.5499,A,0.13
592,0.5004,1.2,1,0.27522,0.2502,0.47538,592,2.11002,0.21,0.10842,0.60882,5,2D1U,2.0,False,0.408,79,True,right,0.1668,0.2049,0.9465,0.7416,1.2716,2.0716,0.8001,A,0.135
593,0.5004,1.2,1,0.23352,0.27522,0.85068,593,2.24346,-0.23,-0.11676,0.38364,5,1D2U,2.0,True,0.441,87,True,right,-0.0834,0.1641,0.6803,0.5162,1.5062,2.0557,0.5494,A,0.135
594,0.5004,0.1,2,0.3336,0.28356,0.72558,594,2.22678,-0.23,-0.11676,0.38364,5,1D2U,2.0,False,0.534,87,True,right,0.1668,1.6445,2.1613,0.5168,0.1865,0.9865,0.8,A,0.13
595,0.5004,0.1,1,0.39198,0.34194,0.60048,595,2.4603,0.25,0.1251,0.6255,5,2D1U,2.0,False,0.525,80,True,right,-0.0834,0.3241,1.0829,0.7587,1.6577,2.2078,0.5501,A,0.13
596,0.5004,1.2,1,0.21684,0.21684,0.6672,596,2.24346,0.29,0.14178,0.64218,5,2D1U,1.0,True,0.417,80,False,left,0.1668,0.146,0.9204,0.7744,1.4377,2.2377,0.8,A,0.135
597,0.5004,1.2,1,0.28356,0.34194,0.56712,597,2.05998,-0.27,-0.13344,0.36696,5,1D2U,2.0,True,1.9,88,True,right,-0.0834,0.2191,0.7184,0.4994,1.2607,1.8108,0.5501,A,0.135
598,0.5004,0.1,2,0.21684,0.24186,0.70056,598,2.02662,-0.27,-0.13344,0.36696,5,1D2U,1.0,True,0.542,88,True,left,0.1668,1.5027,2.0025,0.4998,0.0695,0.8693,0.7998,A,0.13
599,0.5004,0.1,1,0.28356,0.2502,0.88404,599,2.30184,-0.23,-0.11676,0.38364,5,1D2U,2.0,True,0.499,89,True,right,-0.0834,0.2123,0.7295,0.5172,1.5875,2.1378,0.5502,A,0.13
