,Unnamed: 0,standardDur,audNoise,order,preDur,postDur,isiDur,trial_num,totalDur,delta_dur_percents,deltaDurS,testDurS,intensities,current_stair,responses,is_correct,response_rts,stair_num_reversal,stair_is_reversal,response_keys,conflictDur,recordedOnsetVisualTest,recordedOffsetVisualTest,recordedDurVisualTest,recordedOnsetVisualStandard,recordedOffsetVisualStandard,recordedDurVisualStandard,modalityPostCue
0,0,0.49644,1.2,1,0.39716,0.27304,0.81086,0,2.02714,-0.9,-0.4468,0.04964,5,3D1U,1.0,False,1.219,0,False,left,0.0,0.4002,0.4501,0.0499,1.267,1.7663,0.4993,V
1,1,0.49644,0.1,2,0.24822,0.20685,0.53781,1,1.53896,-0.9,-0.4468,0.04964,5,1D3U,1.0,True,1.484,0,False,left,0.0,1.2946,1.3445,0.05,0.2532,0.7529,0.4997,V
2,2,0.49644,1.2,1,0.36406,0.2234,0.7033,2,1.83684,-0.9,-0.4468,0.04964,5,1D3U,1.0,False,1.475,0,False,left,0.0,0.3663,0.4161,0.0498,1.1242,1.6249,0.5007,A
3,3,0.49644,0.1,2,0.34751,0.4137,0.75294,3,2.96211,0.9,0.4468,0.95152,5,lapse_rate,2.0,True,6.592,0,False,right,0.0,1.6072,2.5656,0.9584,0.3495,0.8492,0.4997,V
4,4,0.49644,0.1,1,0.27304,0.23167,0.53781,4,1.5886,-0.9,-0.4468,0.04964,5,3D1U,2.0,True,3.609,0,False,right,0.0,0.2765,0.3267,0.0502,0.868,1.3676,0.4996,V
5,5,0.49644,1.2,1,0.31441,0.37233,0.47162,5,1.70444,-0.9,-0.4468,0.04964,5,1D2U,2.0,True,0.641,0,False,right,0.0,0.316,0.3657,0.0497,0.8411,1.3412,0.5002,A
6,6,0.49644,0.1,2,0.2234,0.40543,0.61228,6,1.78719,-0.9,-0.4468,0.04964,5,2D1U,1.0,True,1.209,0,False,left,0.0,1.3381,1.3881,0.0499,0.2215,0.7209,0.4994,A
7,7,0.49644,1.2,1,0.30614,0.35579,0.75294,7,1.96095,-0.9,-0.4468,0.04964,5,1D3U,1.0,False,1.841,0,False,left,0.0,0.3095,0.3597,0.0502,1.1184,1.6182,0.4998,A
8,8,0.49644,0.1,1,0.26477,0.43853,0.87705,8,2.12643,-0.9,-0.4468,0.04964,5,1D2U,2.0,True,0.968,0,False,right,0.0,0.2641,0.3144,0.0503,1.1975,1.6978,0.5003,V
9,9,0.49644,1.2,2,0.2565,0.24822,0.69502,9,1.82857,-0.74,-0.37233,0.13239,5,3D1U,2.0,False,2.016,0,False,right,0.0,1.4543,1.5875,0.1333,0.2539,0.7541,0.5003,V
10,10,0.49644,0.1,2,0.4468,0.38888,0.76949,10,2.234,-0.74,-0.37233,0.13239,5,2D1U,1.0,True,0.575,0,False,left,0.0,1.7255,1.8582,0.1327,0.4497,0.9499,0.5003,V
11,11,0.49644,0.1,2,0.36406,0.33096,0.60401,11,2.74699,0.9,0.4468,0.95152,5,lapse_rate,2.0,True,0.459,0,False,right,0.0,1.4744,2.4317,0.9573,0.3654,0.8648,0.4994,A
12,12,0.49644,1.2,2,0.31441,0.38888,0.86878,12,2.2009,-0.74,-0.37233,0.13239,5,3D1U,1.0,True,0.516,0,False,left,0.0,1.6931,1.8262,0.1331,0.3177,0.8179,0.5002,V
13,13,0.49644,0.1,2,0.35579,0.33096,0.67847,13,1.99405,-0.74,-0.37233,0.13239,5,1D2U,1.0,True,0.508,0,False,left,0.0,1.5441,1.6781,0.134,0.3608,0.8612,0.5004,V
14,14,0.49644,1.2,2,0.29787,0.28132,0.7033,14,1.98578,-0.58,-0.28959,0.20685,5,2D1U,1.0,True,1.325,0,False,left,0.0,1.5069,1.715,0.2081,0.2985,0.7982,0.4997,A
15,15,0.49644,1.2,1,0.42198,0.33924,0.40543,15,2.61461,0.9,0.4468,0.95152,5,lapse_rate,1.0,True,2.059,0,False,left,0.0,0.4243,1.3828,0.9585,1.791,2.291,0.5001,A
16,16,0.49644,0.1,1,0.24822,0.2234,0.82741,16,1.84511,-0.9,-0.4468,0.04964,5,1D3U,2.0,True,0.426,0,False,right,0.0,0.2508,0.3008,0.05,1.1341,1.6339,0.4998,A
17,17,0.49644,1.2,2,0.28959,0.4137,0.62883,17,1.8782,-0.9,-0.4468,0.04964,5,1D3U,2.0,False,2.275,0,False,right,0.0,1.4282,1.4783,0.0502,0.2946,0.7951,0.5004,A
18,18,0.49644,0.1,1,0.37233,0.33924,0.80258,18,2.30018,-0.42,-0.20685,0.28959,5,2D1U,2.0,True,0.601,0,False,right,0.0,0.3752,0.6668,0.2916,1.4746,1.9748,0.5001,V
19,19,0.49644,0.1,1,0.38061,0.31441,0.48817,19,2.63115,0.9,0.4468,0.95152,5,lapse_rate,2.0,False,0.759,0,False,right,0.0,0.3844,1.343,0.9586,1.8347,2.3346,0.4999,A
20,20,0.49644,1.2,1,0.42198,0.23167,0.83568,20,2.11816,-0.74,-0.37233,0.13239,5,1D2U,2.0,True,0.791,0,False,right,0.0,0.4263,0.5597,0.1334,1.4014,1.9015,0.5001,A
21,21,0.49644,0.1,1,0.24822,0.37233,0.57918,21,1.90302,-0.58,-0.28959,0.20685,5,3D1U,2.0,True,0.483,0,False,right,0.0,0.253,0.4612,0.2082,1.044,1.5445,0.5005,V
22,22,0.49644,1.2,2,0.34751,0.26477,0.42198,22,1.90303,-0.26,-0.13239,0.37233,5,2D1U,2.0,False,2.367,0,False,right,0.0,1.275,1.6499,0.3749,0.3499,0.8496,0.4997,A
23,23,0.49644,0.1,2,0.40543,0.38061,0.71984,23,2.20917,-0.58,-0.28959,0.20685,5,1D2U,1.0,True,0.375,0,False,left,0.0,1.63,1.8385,0.2084,0.405,0.9047,0.4997,V
24,24,0.49644,0.1,2,0.43025,0.2234,0.78604,24,2.88765,0.9,0.4468,0.95152,5,lapse_rate,2.0,True,0.441,0,False,right,0.0,1.7278,2.6858,0.958,0.4363,0.9361,0.4998,V
25,25,0.49644,1.2,1,0.34751,0.26477,0.55436,25,1.71272,-0.9,-0.4468,0.04964,5,1D3U,2.0,True,2.627,0,False,right,0.0,0.3487,0.3988,0.05,0.957,1.4572,0.5002,A
26,26,0.49644,0.1,1,0.38888,0.33096,0.53781,26,2.04368,-0.42,-0.20685,0.28959,5,3D1U,2.0,True,0.501,0,False,right,0.0,0.3925,0.6847,0.2922,1.2267,1.7259,0.4992,A
27,27,0.49644,0.1,1,0.42198,0.4137,0.51299,27,1.89475,-0.9,-0.4468,0.04964,5,lapse_rate,2.0,True,0.423,0,False,right,0.0,0.4248,0.4748,0.0499,0.9914,1.4911,0.4996,A
28,28,0.49644,1.2,2,0.36406,0.2234,0.74467,28,2.03542,-0.58,-0.28959,0.20685,5,1D2U,1.0,True,0.909,0,False,left,0.0,1.6156,1.8239,0.2083,0.3657,0.8651,0.4994,V
29,29,0.49644,0.1,1,0.39716,0.40543,0.55436,29,1.90303,-0.9,-0.4468,0.04964,5,1D3U,2.0,True,0.426,0,False,right,0.0,0.4006,0.4507,0.0501,1.0091,1.5094,0.5003,V
30,30,0.49644,1.2,1,0.39716,0.4137,0.79431,30,2.47394,-0.26,-0.13239,0.37233,5,3D1U,1.0,False,1.383,0,False,left,0.0,0.3964,0.7725,0.3761,1.5726,2.0716,0.4989,A
31,31,0.49644,0.1,2,0.33924,0.42198,0.88533,31,2.51532,-0.26,-0.13239,0.37233,5,2D1U,1.0,True,1.648,0,False,left,0.0,1.7325,2.1076,0.3751,0.3409,0.8409,0.5,V
32,32,0.49644,1.2,2,0.42198,0.4468,0.7033,32,2.35811,-0.42,-0.20685,0.28959,5,1D2U,1.0,True,2.209,0,False,left,0.0,1.6366,1.9282,0.2916,0.4279,0.9277,0.4999,V
33,33,0.49644,0.1,2,0.40543,0.2565,0.8936,33,2.4243,-0.26,-0.13239,0.37233,5,3D1U,1.0,True,1.376,0,False,left,0.0,1.8044,2.1793,0.3749,0.4036,0.9042,0.5006,V
34,34,0.49644,1.2,2,0.40543,0.28959,0.59573,34,2.23399,-0.1,-0.04964,0.4468,5,2D1U,2.0,False,2.916,0,False,right,0.0,1.5081,1.9574,0.4493,0.408,0.9079,0.4999,V
35,35,0.49644,1.2,2,0.33924,0.38061,0.81913,35,2.98694,0.9,0.4468,0.95152,5,lapse_rate,1.0,False,2.066,0,False,left,0.0,1.6704,2.6285,0.9581,0.3451,0.8453,0.5001,V
36,36,0.49644,0.1,1,0.39716,0.26477,0.54609,36,1.7541,-0.9,-0.4468,0.04964,5,1D3U,2.0,True,1.441,0,False,right,0.0,0.4031,0.4536,0.0504,1.0037,1.5034,0.4997,A
37,37,0.49644,1.2,2,0.34751,0.35579,0.80258,37,2.95384,0.9,0.4468,0.95152,5,lapse_rate,2.0,True,0.717,0,False,right,0.0,1.6603,2.6186,0.9583,0.3518,0.8518,0.5,V
38,38,0.49644,1.2,2,0.32269,0.33096,0.76949,38,2.36638,-0.1,-0.04964,0.4468,5,3D1U,2.0,False,0.825,0,False,right,0.0,1.5982,2.0482,0.4499,0.3235,0.823,0.4995,V
39,39,0.49644,0.1,2,0.23995,0.38061,0.79431,39,2.35811,-0.1,-0.04964,0.4468,5,2D1U,2.0,False,0.617,0,False,right,0.0,1.5373,1.9866,0.4493,0.2377,0.7374,0.4997,V
40,40,0.49644,1.2,2,0.33924,0.36406,0.4137,40,1.90303,-0.42,-0.20685,0.28959,5,1D2U,2.0,False,1.659,0,False,right,0.0,1.2604,1.5525,0.2921,0.3437,0.8433,0.4996,A
41,41,0.49644,0.1,2,0.4468,0.2565,0.69502,41,1.98577,-0.82,-0.4137,0.09101,5,1D3U,1.0,True,0.567,1,True,left,0.0,1.6499,1.7413,0.0915,0.4494,0.9491,0.4996,V
42,42,0.49644,1.2,2,0.23167,0.24822,0.61228,42,2.00231,-0.18,-0.09101,0.4137,5,2D1U,1.0,True,2.9,1,True,left,0.0,1.3499,1.7659,0.4161,0.2328,0.7325,0.4997,V
43,43,0.49644,0.1,2,0.31441,0.20685,0.47162,43,1.93612,-0.1,-0.04964,0.4468,5,3D1U,1.0,True,1.316,0,False,left,0.0,1.2887,1.7393,0.4506,0.314,0.8141,0.5001,V
44,44,0.49644,1.2,1,0.27304,0.26477,0.62883,44,1.9113,-0.5,-0.24822,0.24822,5,1D2U,2.0,True,2.492,1,True,right,0.0,0.2761,0.5263,0.2502,1.1597,1.6595,0.4998,V
45,45,0.49644,0.1,1,0.34751,0.38061,0.45507,45,2.63115,0.9,0.4468,0.95152,5,lapse_rate,1.0,True,0.408,0,False,left,0.0,0.3514,1.3101,0.9588,1.7683,2.2685,0.5002,A
46,46,0.49644,0.1,1,0.2565,0.43025,0.42198,46,1.69618,-0.82,-0.4137,0.09101,5,1D3U,2.0,True,0.358,1,True,right,0.0,0.2557,0.3476,0.0918,0.7719,1.2724,0.5006,A
47,47,0.49644,1.2,1,0.35579,0.35579,0.90187,47,2.63943,0.06,0.0331,0.52954,5,3D1U,1.0,True,0.949,0,False,left,0.0,0.3595,0.8935,0.5341,1.8018,2.3012,0.4994,V
48,48,0.49644,1.2,2,0.27304,0.43025,0.61228,48,1.86165,-0.9,-0.4468,0.04964,5,lapse_rate,1.0,True,1.004,0,False,left,0.0,1.3896,1.4397,0.0501,0.273,0.7726,0.4995,V
49,49,0.49644,0.1,1,0.36406,0.43853,0.86878,49,2.41603,-0.5,-0.24822,0.24822,5,1D2U,2.0,True,0.391,1,True,right,0.0,0.3671,0.6171,0.25,1.4917,1.9919,0.5002,V
50,50,0.49644,1.2,1,0.31441,0.40543,0.75294,50,2.39947,-0.14,-0.06619,0.43025,5,2D1U,1.0,False,0.742,2,True,left,0.0,0.3197,0.7529,0.4333,1.5116,2.0123,0.5007,V
51,51,0.49644,0.1,1,0.2565,0.23995,0.69502,51,1.77892,-0.82,-0.4137,0.09101,5,1D3U,2.0,True,0.4,1,True,right,0.0,0.2611,0.3527,0.0916,1.0531,1.5528,0.4997,A
52,52,0.49644,1.2,1,0.2565,0.23995,0.54609,52,2.06852,0.06,0.0331,0.52954,5,3D1U,2.0,False,1.399,0,False,right,0.0,0.2613,0.7945,0.5332,1.3447,1.8446,0.4999,A
53,53,0.49644,1.2,1,0.19858,0.33924,0.76949,53,1.85339,-0.9,-0.4468,0.04964,5,lapse_rate,2.0,True,0.924,0,False,right,0.0,0.199,0.2494,0.0504,1.0245,1.5242,0.4996,V
54,54,0.49644,0.1,2,0.28132,0.29787,0.85223,54,2.06025,-0.74,-0.37233,0.13239,5,1D3U,1.0,True,0.926,1,False,left,0.0,1.6376,1.771,0.1334,0.2792,0.779,0.4999,A
55,55,0.49644,1.2,1,0.26477,0.28959,0.60401,55,2.08506,-0.14,-0.06619,0.43025,5,2D1U,1.0,False,1.171,2,True,left,0.0,0.2632,0.6965,0.4333,1.3048,1.8043,0.4994,V
56,56,0.49644,0.1,2,0.27304,0.36406,0.58746,56,1.99404,-0.46,-0.23167,0.27304,5,1D2U,1.0,True,0.508,2,True,left,0.0,1.3692,1.6443,0.2751,0.2777,0.777,0.4994,A
57,57,0.49644,0.1,2,0.32269,0.2234,0.4137,57,1.50587,-0.9,-0.4468,0.04964,5,lapse_rate,1.0,True,0.669,0,False,left,0.0,1.2371,1.2872,0.0501,0.3205,0.8203,0.4998,A
58,58,0.49644,1.2,1,0.33924,0.34751,0.68675,58,2.00233,-0.74,-0.37233,0.13239,5,1D3U,1.0,False,1.692,1,False,left,0.0,0.3381,0.4714,0.1333,1.1628,1.6632,0.5004,V
59,59,0.49644,0.1,2,0.29787,0.26477,0.71984,59,2.05196,-0.46,-0.23167,0.27304,5,1D2U,1.0,True,0.492,2,True,left,0.0,1.5211,1.7972,0.2761,0.2964,0.7968,0.5003,A
60,60,0.49644,1.2,2,0.42198,0.43025,0.47162,60,2.43257,0.22,0.10756,0.61228,5,3D1U,2.0,True,0.476,0,False,right,0.0,1.3968,2.0135,0.6167,0.4216,0.9215,0.4999,V
61,61,0.49644,0.1,2,0.4137,0.2565,0.88533,61,2.46567,-0.18,-0.09101,0.4137,5,2D1U,1.0,True,1.292,3,True,left,0.0,1.811,2.2277,0.4167,0.4188,0.9191,0.5003,V
62,62,0.49644,1.2,2,0.39716,0.2565,0.58746,62,2.68908,0.9,0.4468,0.95152,5,lapse_rate,2.0,True,0.509,0,False,right,0.0,1.4928,2.4512,0.9584,0.4011,0.9008,0.4997,A
63,63,0.49644,1.2,2,0.26477,0.28959,0.46335,63,2.12643,0.22,0.10756,0.61228,5,3D1U,1.0,False,0.467,0,False,left,0.0,1.2359,1.853,0.6171,0.2694,0.7701,0.5007,A
64,64,0.49644,0.1,2,0.29787,0.26477,0.66193,64,2.0106,-0.42,-0.20685,0.28959,5,1D2U,1.0,True,0.425,2,False,left,0.0,1.4704,1.7624,0.292,0.3039,0.8042,0.5002,V
65,65,0.49644,1.2,2,0.39716,0.33924,0.4468,65,2.10989,-0.14,-0.06619,0.43025,5,2D1U,1.0,True,0.491,4,True,left,0.0,1.3484,1.7817,0.4333,0.3984,0.8981,0.4997,V
66,66,0.49644,0.1,1,0.23995,0.36406,0.65365,66,1.86166,-0.78,-0.38888,0.10756,5,1D3U,2.0,True,0.392,2,True,right,0.0,0.2389,0.3475,0.1087,1.0059,1.5055,0.4996,A
67,67,0.49644,1.2,2,0.27304,0.23167,0.8605,67,2.30845,-0.1,-0.04964,0.4468,5,2D1U,2.0,False,0.783,4,False,right,0.0,1.643,2.093,0.4501,0.2764,0.7764,0.5,V
68,68,0.49644,0.1,1,0.38061,0.33096,0.71984,68,2.03541,-0.78,-0.38888,0.10756,5,1D3U,2.0,True,0.436,2,True,right,0.0,0.3791,0.4873,0.1083,1.2129,1.713,0.5,V
69,69,0.49644,1.2,1,0.20685,0.24822,0.80258,69,2.04368,-0.42,-0.20685,0.28959,5,1D2U,2.0,True,0.483,2,False,right,0.0,0.2112,0.5032,0.292,1.3109,1.8115,0.5006,V
70,70,0.49644,0.1,1,0.31441,0.4468,0.4799,70,1.78719,-0.9,-0.4468,0.04964,5,lapse_rate,2.0,True,0.476,0,False,right,0.0,0.3179,0.3681,0.0502,0.851,1.3514,0.5004,V
71,71,0.49644,0.1,2,0.4468,0.34751,0.47162,71,2.44912,0.38,0.1903,0.68675,5,3D1U,1.0,False,1.734,0,False,left,0.0,1.4294,2.1191,0.6897,0.452,0.9531,0.5011,V
72,72,0.49644,1.2,2,0.35579,0.2234,0.43025,72,1.55552,-0.9,-0.4468,0.04964,5,lapse_rate,1.0,True,4.595,0,False,left,0.0,1.2891,1.3384,0.0492,0.3551,0.855,0.4999,V
73,73,0.49644,1.2,2,0.38888,0.28959,0.40543,73,1.88648,-0.38,-0.1903,0.30614,5,1D2U,1.0,True,0.991,2,False,left,0.0,1.3015,1.6095,0.308,0.3931,0.8922,0.4991,A
74,74,0.49644,0.1,1,0.26477,0.23995,0.60401,74,2.37466,0.54,0.27304,0.76949,5,3D1U,1.0,True,0.342,0,False,left,0.0,0.2701,1.045,0.7748,1.6532,2.153,0.4998,V
75,75,0.49644,1.2,1,0.4468,0.39716,0.86878,75,2.65598,-0.1,-0.04964,0.4468,5,2D1U,2.0,True,0.592,4,False,right,0.0,0.4491,0.8992,0.4501,1.7739,2.2736,0.4997,V
76,76,0.49644,0.1,2,0.23167,0.28959,0.6702,76,1.79546,-0.78,-0.38888,0.10756,5,1D3U,1.0,True,0.512,2,True,left,0.0,1.4063,1.5144,0.1081,0.2311,0.7316,0.5005,V
77,77,0.49644,1.2,1,0.33924,0.2234,0.4799,77,2.30847,0.54,0.27304,0.76949,5,3D1U,1.0,True,0.734,0,False,left,0.0,0.3385,1.1139,0.7753,1.5974,2.0971,0.4996,A
78,78,0.49644,0.1,2,0.23995,0.20685,0.82741,78,2.24227,-0.06,-0.0331,0.47162,5,2D1U,2.0,False,0.825,4,False,right,0.0,1.5717,2.0462,0.4745,0.238,0.7382,0.5002,V
79,79,0.49644,1.2,2,0.29787,0.33096,0.81913,79,2.07679,-0.74,-0.37233,0.13239,5,1D3U,2.0,False,1.909,3,True,right,0.0,1.6206,1.7538,0.1332,0.2954,0.7955,0.5001,V
80,80,0.49644,0.1,1,0.38061,0.43025,0.8605,80,2.47394,-0.38,-0.1903,0.30614,5,1D2U,2.0,True,1.282,2,False,right,0.0,0.3797,0.6881,0.3084,1.555,2.0545,0.4995,A
81,81,0.49644,1.2,1,0.36406,0.4137,0.7033,81,2.02714,-0.9,-0.4468,0.04964,5,lapse_rate,2.0,True,2.675,0,False,right,0.0,0.3635,0.4139,0.0504,1.1217,1.6219,0.5001,V
82,82,0.49644,1.2,2,0.43853,0.23995,0.82741,82,2.77182,0.54,0.27304,0.76949,5,3D1U,2.0,True,0.85,0,False,right,0.0,1.7774,2.5516,0.7742,0.4436,0.9442,0.5006,A
83,83,0.49644,0.1,1,0.42198,0.36406,0.43025,83,1.82029,-0.78,-0.38888,0.10756,5,1D3U,2.0,True,0.11,4,True,right,0.0,0.4205,0.529,0.1085,0.9622,1.4624,0.5002,A
84,84,0.49644,1.2,1,0.33096,0.2565,0.69502,84,2.10988,-0.34,-0.17376,0.33096,5,1D2U,2.0,True,1.524,2,False,right,0.0,0.3329,0.6659,0.3329,1.3658,1.8662,0.5004,V
85,85,0.49644,0.1,2,0.23995,0.27304,0.64538,85,2.12643,-0.06,-0.0331,0.47162,5,2D1U,2.0,False,2.031,4,False,right,0.0,1.3891,1.8639,0.4748,0.2394,0.739,0.4995,A
86,86,0.49644,0.1,1,0.21513,0.28132,0.83568,86,1.87821,-0.9,-0.4468,0.04964,5,lapse_rate,2.0,True,0.383,0,False,right,0.0,0.2189,0.2691,0.0503,1.1108,1.6107,0.4999,A
87,87,0.49644,1.2,2,0.27304,0.39716,0.52127,87,2.41603,0.46,0.23167,0.72812,5,3D1U,1.0,False,0.534,1,True,left,0.0,1.3008,2.0337,0.7329,0.2757,0.7759,0.5002,V
88,88,0.49644,1.2,1,0.4468,0.42198,0.57091,88,2.88765,0.9,0.4468,0.95152,5,lapse_rate,1.0,True,0.692,0,False,left,0.0,0.4509,1.4094,0.9585,1.9844,2.484,0.4996,V
89,89,0.49644,0.1,2,0.23995,0.23995,0.80258,89,2.22572,-0.1,-0.04964,0.4468,5,2D1U,1.0,True,0.9,5,True,left,0.0,1.5525,2.0023,0.4499,0.2436,0.7438,0.5001,V
90,90,0.49644,1.2,1,0.38888,0.40543,0.88533,90,2.28364,-0.78,-0.38888,0.10756,5,1D3U,1.0,False,0.459,4,True,left,0.0,0.3908,0.4985,0.1077,1.3908,1.8908,0.5,V
91,91,0.49644,0.1,2,0.33924,0.4137,0.4799,91,2.06024,-0.34,-0.17376,0.33096,5,1D2U,1.0,True,0.543,2,False,left,0.0,1.3265,1.6595,0.333,0.343,0.8429,0.4999,A
92,92,0.49644,0.1,1,0.28132,0.33924,0.7033,92,2.77182,0.9,0.4468,0.95152,5,lapse_rate,1.0,True,0.35,0,False,left,0.0,0.286,1.244,0.9581,1.9527,2.4533,0.5006,V
93,93,0.49644,1.2,2,0.43025,0.38061,0.6371,93,2.29191,-0.3,-0.14893,0.34751,5,1D2U,1.0,True,1.009,2,False,left,0.0,1.5753,1.9254,0.3501,0.4337,0.9338,0.5002,V
94,94,0.49644,0.1,2,0.38888,0.23167,0.87705,94,2.74698,0.5,0.24822,0.75294,5,3D1U,2.0,True,0.799,2,True,right,0.0,1.7781,2.5367,0.7586,0.3948,0.8947,0.4999,A
95,95,0.49644,1.2,1,0.38888,0.42198,0.6371,95,2.03541,-0.82,-0.4137,0.09101,5,1D3U,1.0,False,0.659,4,False,left,0.0,0.3908,0.483,0.0922,1.1245,1.6239,0.4994,V
96,96,0.49644,0.1,1,0.2234,0.28959,0.61228,96,2.09333,-0.06,-0.0331,0.47162,5,2D1U,1.0,False,0.817,6,True,left,0.0,0.2218,0.6965,0.4747,1.3134,1.8134,0.5,V
97,97,0.49644,1.2,1,0.21513,0.37233,0.76121,97,2.59805,0.5,0.24822,0.75294,5,3D1U,1.0,True,0.742,2,True,left,0.0,0.2175,0.9759,0.7583,1.7422,2.2422,0.5,V
98,98,0.49644,0.1,2,0.34751,0.4468,0.86878,98,2.63115,-0.06,-0.0331,0.47162,5,2D1U,2.0,False,1.773,6,True,right,0.0,1.7215,2.1963,0.4748,0.3461,0.8457,0.4996,V
99,99,0.49644,0.1,2,0.31441,0.38888,0.48817,99,2.63942,0.9,0.4468,0.95152,5,lapse_rate,2.0,True,0.342,0,False,right,0.0,1.3115,2.2704,0.9588,0.3201,0.8201,0.5,V
100,100,0.49644,1.2,2,0.39716,0.27304,0.87705,100,2.3912,-0.3,-0.14893,0.34751,5,1D2U,1.0,True,1.026,2,False,left,0.0,1.7794,2.1293,0.3499,0.396,0.896,0.5,A
101,101,0.49644,0.1,1,0.27304,0.29787,0.8605,101,1.99404,-0.86,-0.43025,0.06619,5,1D3U,2.0,True,0.409,4,False,right,0.0,0.2784,0.345,0.0666,1.2115,1.7116,0.5,A
102,102,0.49644,1.2,2,0.42198,0.20685,0.83568,102,2.02714,-0.86,-0.43025,0.06619,5,1D3U,1.0,True,0.925,4,False,left,0.0,1.7689,1.8361,0.0673,0.4273,0.9278,0.5005,A
103,103,0.49644,0.1,1,0.19858,0.24822,0.56264,103,1.87821,-0.26,-0.13239,0.37233,5,1D2U,1.0,False,2.158,2,False,left,0.0,0.1961,0.5718,0.3757,1.1383,1.6375,0.4992,V
104,104,0.49644,1.2,2,0.21513,0.32269,0.77776,104,2.56496,0.5,0.24822,0.75294,5,3D1U,2.0,True,3.758,2,True,right,0.0,1.501,2.2594,0.7584,0.218,0.7175,0.4994,A
105,105,0.49644,0.1,2,0.28959,0.24822,0.86878,105,2.34983,-0.1,-0.04964,0.4468,5,2D1U,2.0,False,1.483,7,True,right,0.0,1.6626,2.1123,0.4497,0.2874,0.7873,0.4999,V
106,106,0.49644,1.2,2,0.26477,0.39716,0.85223,106,2.96212,0.9,0.4468,0.95152,5,lapse_rate,2.0,True,0.501,0,False,right,0.0,1.6212,2.5791,0.9579,0.2626,0.7628,0.5002,V
107,107,0.49644,1.2,1,0.36406,0.43853,0.69502,107,2.34156,-0.3,-0.14893,0.34751,5,1D2U,1.0,False,0.45,3,True,left,0.0,0.3674,0.7179,0.3505,1.4178,1.918,0.5002,A
108,108,0.49644,0.1,1,0.40543,0.38061,0.71984,108,2.05196,-0.9,-0.4468,0.04964,5,lapse_rate,2.0,True,0.39,0,False,right,0.0,0.4084,0.4585,0.0501,1.1836,1.6834,0.4998,V
109,109,0.49644,0.1,1,0.34751,0.20685,0.64538,109,2.4243,0.46,0.23167,0.72812,5,3D1U,1.0,True,0.392,3,True,left,0.0,0.3526,1.086,0.7334,1.7359,2.2359,0.5,A
110,110,0.49644,1.2,1,0.38888,0.24822,0.67847,110,1.8782,-0.86,-0.43025,0.06619,5,1D3U,1.0,False,1.576,4,False,left,0.0,0.3935,0.4598,0.0663,1.1434,1.6432,0.4998,V
111,111,0.49644,0.1,1,0.43853,0.43853,0.45507,111,2.27537,-0.1,-0.04964,0.4468,5,2D1U,1.0,False,0.258,7,True,left,0.0,0.443,0.8931,0.4501,1.3511,1.8513,0.5002,A
112,112,0.49644,1.2,2,0.43025,0.28959,0.67847,112,2.22571,-0.34,-0.17376,0.33096,5,1D2U,1.0,True,0.809,3,False,left,0.0,1.6175,1.9511,0.3336,0.4338,0.9342,0.5004,A
113,113,0.49644,0.1,2,0.28132,0.24822,0.50472,113,2.25882,0.46,0.23167,0.72812,5,3D1U,2.0,True,0.55,3,True,right,0.0,1.2924,2.0259,0.7335,0.2841,0.7844,0.5003,V
114,114,0.49644,1.2,2,0.27304,0.40543,0.73639,114,1.96094,-0.9,-0.4468,0.04964,5,1D3U,1.0,True,0.765,4,False,left,0.0,1.5161,1.566,0.0499,0.2739,0.7742,0.5004,A
115,115,0.49644,1.2,2,0.31441,0.39716,0.60401,115,1.86166,-0.9,-0.4468,0.04964,5,lapse_rate,1.0,True,0.801,0,False,left,0.0,1.4239,1.4741,0.0501,0.3157,0.8158,0.5001,A
116,116,0.49644,0.1,1,0.28959,0.43025,0.69502,116,2.34155,-0.14,-0.06619,0.43025,5,2D1U,2.0,True,0.792,7,False,right,0.0,0.2921,0.7259,0.4338,1.4258,1.9257,0.4999,V
117,117,0.49644,1.2,1,0.39716,0.19858,0.6702,117,2.09334,-0.34,-0.17376,0.33096,5,1D2U,2.0,True,1.475,3,False,right,0.0,0.4001,0.7336,0.3335,1.4084,1.9085,0.5002,V
118,118,0.49644,0.1,2,0.33096,0.34751,0.46335,118,2.36638,0.46,0.23167,0.72812,5,3D1U,2.0,True,0.25,3,True,right,0.0,1.2993,2.0326,0.7333,0.3323,0.8323,0.5,A
119,119,0.49644,1.2,1,0.4137,0.38888,0.67847,119,2.02713,-0.9,-0.4468,0.04964,5,1D3U,2.0,True,0.826,4,False,right,0.0,0.414,0.4633,0.0494,1.1475,1.6472,0.4996,A
120,120,0.49644,0.1,1,0.43853,0.28132,0.79431,120,2.4574,-0.1,-0.04964,0.4468,5,2D1U,2.0,True,1.192,8,True,right,0.0,0.4446,0.8945,0.4499,1.6948,2.1947,0.4999,V
121,121,0.49644,0.1,1,0.39716,0.40543,0.40543,121,1.7541,-0.9,-0.4468,0.04964,5,lapse_rate,1.0,False,4.032,0,False,left,0.0,0.3984,0.4483,0.05,0.8567,1.3565,0.4998,A
122,122,0.49644,1.2,2,0.23167,0.23167,0.68675,122,2.11815,-0.06,-0.0331,0.47162,5,2D1U,2.0,False,1.666,8,False,right,0.0,1.4252,1.9002,0.475,0.2335,0.7338,0.5003,A
123,123,0.49644,0.1,2,0.26477,0.28132,0.76121,123,2.15125,-0.3,-0.14893,0.34751,5,1D2U,1.0,True,0.425,4,True,left,0.0,1.5282,1.8783,0.3501,0.262,0.7621,0.5001,V
124,124,0.49644,1.2,2,0.30614,0.38061,0.62056,124,1.85339,-0.9,-0.4468,0.04964,5,lapse_rate,1.0,True,1.516,0,False,left,0.0,1.4323,1.4829,0.0506,0.3073,0.8075,0.5001,A
125,125,0.49644,1.2,1,0.28132,0.23167,0.46335,125,1.52242,-0.9,-0.4468,0.04964,5,1D3U,2.0,True,1.217,4,False,right,0.0,0.2818,0.3318,0.0499,0.7984,1.2985,0.5001,V
126,126,0.49644,0.1,1,0.32269,0.34751,0.86878,126,2.74699,0.42,0.20685,0.71157,5,3D1U,1.0,True,0.317,3,False,left,0.0,0.3236,1.0406,0.717,1.9156,2.4155,0.4999,A
127,127,0.49644,1.2,1,0.23167,0.21513,0.55436,127,1.84511,-0.3,-0.14893,0.34751,5,1D2U,1.0,False,1.353,4,True,left,0.0,0.2308,0.5802,0.3493,1.1385,1.6387,0.5002,V
128,128,0.49644,0.1,2,0.38888,0.37233,0.82741,128,2.1347,-0.9,-0.4468,0.04964,5,lapse_rate,1.0,True,0.515,0,False,left,0.0,1.7203,1.7703,0.0501,0.3867,0.8871,0.5004,A
129,129,0.49644,0.1,1,0.20685,0.39716,0.77776,129,2.34983,-0.06,-0.0331,0.47162,5,2D1U,2.0,True,0.975,8,False,right,0.0,0.2072,0.6827,0.4755,1.4658,1.9659,0.5001,V
130,130,0.49644,1.2,2,0.23167,0.39716,0.40543,130,1.59689,-0.86,-0.43025,0.06619,5,1D3U,2.0,False,3.867,5,True,right,0.0,1.1448,1.2119,0.0671,0.2361,0.7364,0.5004,V
131,131,0.49644,0.1,1,0.43025,0.24822,0.53781,131,2.42429,0.42,0.20685,0.71157,5,3D1U,1.0,True,0.366,3,False,left,0.0,0.4345,1.1515,0.717,1.6927,2.1932,0.5004,A
132,132,0.49644,1.2,2,0.27304,0.43853,0.67847,132,1.93612,-0.9,-0.4468,0.04964,5,lapse_rate,1.0,True,0.975,0,False,left,0.0,1.4587,1.5089,0.0502,0.2753,0.7753,0.4999,V
133,133,0.49644,1.2,2,0.23167,0.26477,0.86878,133,2.57323,0.42,0.20685,0.71157,5,3D1U,1.0,False,0.759,3,False,left,0.0,1.6071,2.3238,0.7167,0.2324,0.7321,0.4998,A
134,134,0.49644,0.1,2,0.43025,0.2234,0.61228,134,2.09333,-0.34,-0.17376,0.33096,5,1D2U,1.0,True,0.5,5,True,left,0.0,1.5485,1.8817,0.3333,0.4315,0.9316,0.5001,A
135,135,0.49644,1.2,1,0.28132,0.19858,0.74467,135,1.77065,-0.9,-0.4468,0.04964,5,1D3U,1.0,False,0.85,6,True,left,0.0,0.2826,0.3326,0.05,1.083,1.582,0.499,V
136,136,0.49644,0.1,2,0.43853,0.28959,0.74467,136,2.4574,-0.02,-0.00827,0.48817,5,2D1U,1.0,True,1.5,8,False,left,0.0,1.6949,2.1866,0.4917,0.4451,0.945,0.4998,V
137,137,0.49644,1.2,1,0.24822,0.43853,0.85223,137,2.98694,0.9,0.4468,0.95152,5,lapse_rate,2.0,False,0.809,0,False,right,0.0,0.2508,1.2095,0.9586,2.0675,2.5677,0.5002,V
138,138,0.49644,1.2,2,0.32269,0.42198,0.65365,138,2.40775,0.02,0.00827,0.51299,5,2D1U,2.0,True,0.535,8,False,right,0.0,1.4849,2.0016,0.5167,0.3265,0.8268,0.5003,V
139,139,0.49644,0.1,2,0.21513,0.43025,0.43025,139,1.90303,-0.34,-0.17376,0.33096,5,1D2U,1.0,True,0.356,5,True,left,0.0,1.148,1.4814,0.3334,0.2144,0.7148,0.5003,V
140,140,0.49644,1.2,2,0.23167,0.35579,0.68675,140,2.49877,0.46,0.23167,0.72812,5,3D1U,2.0,True,2.892,4,True,right,0.0,1.4235,2.1569,0.7334,0.2317,0.7319,0.5001,V
141,141,0.49644,0.1,2,0.40543,0.20685,0.83568,141,1.99404,-0.9,-0.4468,0.04964,5,1D3U,1.0,True,0.637,6,False,left,0.0,1.7461,1.7959,0.0498,0.4042,0.904,0.4999,V
142,142,0.49644,1.2,2,0.31441,0.35579,0.79431,142,2.47394,0.02,0.00827,0.51299,5,2D1U,1.0,False,0.84,8,False,left,0.0,1.6186,2.1355,0.517,0.3185,0.8188,0.5002,A
143,143,0.49644,0.1,2,0.38061,0.42198,0.52127,143,1.86994,-0.9,-0.4468,0.04964,5,1D3U,1.0,True,0.36,6,False,left,0.0,1.4076,1.4573,0.0497,0.382,0.8822,0.5002,V
144,144,0.49644,1.2,1,0.28132,0.42198,0.54609,144,2.47395,0.46,0.23167,0.72812,5,3D1U,2.0,False,1.483,4,True,right,0.0,0.2844,1.018,0.7335,1.5681,2.0686,0.5005,A
145,145,0.49644,0.1,2,0.33924,0.43025,0.72812,145,2.74699,0.5,0.24822,0.75294,5,3D1U,2.0,True,0.324,4,False,right,0.0,1.5783,2.3366,0.7583,0.3449,0.8446,0.4997,V
146,146,0.49644,1.2,1,0.43853,0.33924,0.81913,146,2.44085,-0.3,-0.14893,0.34751,5,1D2U,2.0,True,0.875,6,True,right,0.0,0.4375,0.7876,0.3501,1.6125,2.1124,0.4999,A
147,147,0.49644,0.1,2,0.40543,0.4468,0.53781,147,2.23399,-0.3,-0.14893,0.34751,5,1D2U,1.0,True,0.533,6,True,left,0.0,1.4506,1.8006,0.3501,0.4087,0.9091,0.5004,V
148,148,0.49644,1.2,1,0.36406,0.23167,0.6702,148,1.81201,-0.9,-0.4468,0.04964,5,1D3U,2.0,True,2.059,6,False,right,0.0,0.3685,0.419,0.0506,1.0935,1.5937,0.5002,V
149,149,0.49644,0.1,1,0.29787,0.36406,0.81913,149,2.50704,0.06,0.0331,0.52954,5,2D1U,2.0,False,2.683,8,False,right,0.0,0.2996,0.8333,0.5337,1.6585,2.1582,0.4997,V
150,150,0.49644,1.2,2,0.38061,0.31441,0.62056,150,2.56496,0.5,0.24822,0.75294,5,3D1U,1.0,False,0.817,4,False,left,0.0,1.5095,2.268,0.7585,0.3849,0.8843,0.4994,V
151,151,0.49644,0.1,2,0.38061,0.33096,0.78604,151,2.36638,-0.26,-0.13239,0.37233,5,1D2U,1.0,True,0.35,6,False,left,0.0,1.6718,2.0471,0.3752,0.3803,0.8804,0.5001,V
152,152,0.49644,1.2,1,0.31441,0.38061,0.8936,152,2.85455,0.54,0.27304,0.76949,5,3D1U,1.0,True,0.349,4,False,left,0.0,0.3178,1.0932,0.7754,1.9929,2.4929,0.5,V
153,153,0.49644,0.1,1,0.2234,0.30614,0.7033,153,2.49877,0.54,0.27304,0.76949,5,3D1U,1.0,True,0.434,4,False,left,0.0,0.2249,0.9999,0.7751,1.7083,2.2086,0.5003,A
154,154,0.49644,1.2,1,0.31441,0.29787,0.52127,154,2.00232,-0.26,-0.13239,0.37233,5,1D2U,1.0,False,1.842,6,False,left,0.0,0.317,0.6919,0.3749,1.217,1.7166,0.4995,A
155,155,0.49644,0.1,1,0.28959,0.36406,0.80258,155,2.49876,0.1,0.04964,0.54609,5,2D1U,2.0,False,0.401,8,False,right,0.0,0.2879,0.8379,0.55,1.6464,2.1467,0.5003,V
156,156,0.49644,1.2,1,0.42198,0.20685,0.61228,156,1.80374,-0.86,-0.43025,0.06619,5,1D3U,1.0,False,1.832,7,True,left,0.0,0.4231,0.4901,0.067,1.1065,1.6067,0.5001,A
157,157,0.49644,0.1,2,0.39716,0.38888,0.43025,157,2.06024,-0.3,-0.14893,0.34751,5,1D2U,1.0,True,0.71,7,True,left,0.0,1.3324,1.6826,0.3502,0.3991,0.8993,0.5002,A
158,158,0.49644,1.2,1,0.33096,0.20685,0.59573,158,2.20089,0.14,0.06619,0.57091,5,2D1U,1.0,True,0.949,8,False,left,0.0,0.3286,0.9037,0.5751,1.5039,2.0034,0.4995,V
159,159,0.49644,0.1,2,0.33096,0.24822,0.78604,159,2.63115,0.54,0.27304,0.76949,5,3D1U,2.0,True,0.275,4,False,right,0.0,1.6244,2.4,0.7755,0.333,0.833,0.4999,A
160,160,0.49644,1.2,2,0.43853,0.43025,0.78604,160,2.9042,0.5,0.24822,0.75294,5,3D1U,1.0,False,1.976,5,True,left,0.0,1.7318,2.4903,0.7584,0.4408,0.9398,0.4991,V
161,161,0.49644,0.1,1,0.21513,0.31441,0.57918,161,1.6548,-0.9,-0.4468,0.04964,5,1D3U,2.0,True,0.382,8,True,right,0.0,0.2132,0.2633,0.0502,0.8461,1.3465,0.5004,V
162,162,0.49644,1.2,1,0.4468,0.42198,0.62883,162,2.56496,0.14,0.06619,0.57091,5,2D1U,2.0,False,0.834,8,False,right,0.0,0.4529,1.027,0.5741,1.6608,2.161,0.5001,A
163,163,0.49644,0.1,1,0.4468,0.32269,0.85223,163,2.88765,0.54,0.27304,0.76949,5,3D1U,1.0,True,0.751,6,True,left,0.0,0.4472,1.2221,0.7749,2.0804,2.5801,0.4996,A
164,164,0.49644,1.2,2,0.43025,0.2565,0.4799,164,2.43258,0.54,0.27304,0.76949,5,3D1U,1.0,False,1.016,6,True,left,0.0,1.419,2.194,0.775,0.4361,0.9362,0.5001,A
165,165,0.49644,0.1,1,0.26477,0.20685,0.79431,165,2.10988,-0.3,-0.14893,0.34751,5,1D2U,2.0,True,0.401,7,True,right,0.0,0.2649,0.615,0.3501,1.4154,1.9148,0.4994,V
166,166,0.49644,1.2,1,0.23167,0.38061,0.79431,166,1.95267,-0.9,-0.4468,0.04964,5,1D3U,1.0,False,0.701,8,True,left,0.0,0.2354,0.2859,0.0504,1.0858,1.5855,0.4998,V
167,167,0.49644,0.1,2,0.30614,0.32269,0.60401,167,2.31674,0.18,0.09101,0.58746,5,2D1U,1.0,False,2.366,8,False,left,0.0,1.4202,2.0119,0.5917,0.3119,0.8119,0.5,A
168,168,0.49644,1.2,2,0.28132,0.33096,0.51299,168,1.99404,-0.26,-0.13239,0.37233,5,1D2U,2.0,False,2.283,8,True,right,0.0,1.2971,1.6722,0.3751,0.2804,0.7804,0.5,A
169,169,0.49644,0.1,1,0.28132,0.23995,0.57091,169,1.93613,-0.3,-0.14893,0.34751,5,1D2U,2.0,True,0.342,9,True,right,0.0,0.2853,0.6352,0.35,1.2103,1.7103,0.5,V
170,170,0.49644,1.2,2,0.23995,0.30614,0.45507,170,1.54724,-0.9,-0.4468,0.04964,5,1D3U,2.0,False,0.884,8,False,right,0.0,1.2024,1.2524,0.05,0.2441,0.7434,0.4993,V
171,171,0.49644,0.1,2,0.23167,0.33924,0.57918,171,2.43257,0.58,0.28959,0.78604,5,3D1U,2.0,True,0.676,6,False,right,0.0,1.3162,2.1083,0.7921,0.2328,0.7332,0.5004,A
172,172,0.49644,1.2,2,0.4468,0.26477,0.82741,172,2.6477,0.22,0.10756,0.61228,5,2D1U,2.0,True,0.6,8,False,right,0.0,1.7808,2.3972,0.6165,0.4474,0.9472,0.4999,V
173,173,0.49644,0.1,2,0.21513,0.31441,0.57091,173,1.64653,-0.9,-0.4468,0.04964,5,1D3U,1.0,True,0.43,8,False,left,0.0,1.2915,1.342,0.0506,0.2169,0.7169,0.5,A
174,174,0.49644,1.2,1,0.38061,0.43025,0.71984,174,2.07678,-0.9,-0.4468,0.04964,5,1D3U,2.0,True,0.85,8,False,right,0.0,0.3829,0.4325,0.0496,1.1576,1.657,0.4994,V
175,175,0.49644,0.1,2,0.35579,0.33096,0.56264,175,2.53187,0.58,0.28959,0.78604,5,3D1U,2.0,True,2.11,6,False,right,0.0,1.422,2.214,0.792,0.355,0.855,0.5,V
176,176,0.49644,1.2,1,0.23167,0.38061,0.66193,176,2.11816,-0.3,-0.14893,0.34751,5,1D2U,2.0,True,0.833,9,True,right,0.0,0.231,0.5812,0.3503,1.2474,1.7478,0.5004,V
177,177,0.49644,0.1,1,0.4137,0.2565,0.40543,177,1.62171,-0.9,-0.4468,0.04964,5,1D3U,2.0,True,0.658,8,False,right,0.0,0.4167,0.4666,0.0499,0.8749,1.375,0.5001,V
178,178,0.49644,1.2,2,0.20685,0.26477,0.50472,178,2.08506,0.22,0.10756,0.61228,5,2D1U,2.0,True,0.49,8,False,right,0.0,1.2127,1.8296,0.6169,0.2044,0.7044,0.5,V
179,179,0.49644,0.1,1,0.28959,0.2234,0.57091,179,2.36638,0.58,0.28959,0.78604,5,3D1U,1.0,True,0.185,6,False,left,0.0,0.291,1.0826,0.7916,1.6577,2.1578,0.5001,A
180,180,0.49644,1.2,1,0.19858,0.32269,0.64538,180,2.43258,0.54,0.27304,0.76949,5,3D1U,1.0,True,1.875,7,True,left,0.0,0.2027,0.9785,0.7758,1.6283,2.1281,0.4998,V
181,181,0.49644,0.1,2,0.31441,0.2565,0.51299,181,1.95267,-0.26,-0.13239,0.37233,5,1D2U,1.0,True,0.533,10,True,left,0.0,1.3293,1.7038,0.3745,0.313,0.8125,0.4995,A
182,182,0.49644,1.2,2,0.19858,0.4468,0.48817,182,2.21745,0.18,0.09101,0.58746,5,2D1U,2.0,True,0.758,9,True,right,0.0,1.1885,1.7803,0.5917,0.1964,0.6969,0.5005,V
183,183,0.49644,0.1,2,0.24822,0.39716,0.62883,183,2.14298,-0.26,-0.13239,0.37233,5,1D2U,1.0,True,1.583,10,True,left,0.0,1.3795,1.7541,0.3746,0.2457,0.7461,0.5003,V
184,184,0.49644,1.2,1,0.20685,0.2565,0.52954,184,1.55552,-0.86,-0.43025,0.06619,5,1D3U,1.0,False,0.647,9,True,left,0.0,0.2076,0.2742,0.0667,0.8075,1.3077,0.5002,A
185,185,0.49644,0.1,2,0.26477,0.38061,0.43853,185,2.34984,0.54,0.27304,0.76949,5,3D1U,2.0,True,0.266,7,True,right,0.0,1.2056,1.9806,0.775,0.2634,0.7636,0.5002,V
186,186,0.49644,1.2,1,0.39716,0.26477,0.79431,186,2.54014,0.18,0.09101,0.58746,5,2D1U,1.0,True,0.858,9,True,left,0.0,0.4034,0.9952,0.5917,1.7949,2.2951,0.5003,A
187,187,0.49644,0.1,1,0.21513,0.28959,0.83568,187,2.40775,0.14,0.06619,0.57091,5,2D1U,1.0,True,1.109,9,False,left,0.0,0.2131,0.7879,0.5748,1.6296,2.1291,0.4995,A
188,188,0.49644,1.2,2,0.2234,0.35579,0.81913,188,2.28364,-0.22,-0.10756,0.38888,5,1D2U,1.0,True,0.566,10,False,left,0.0,1.5466,1.9388,0.3922,0.2218,0.7218,0.5,V
189,189,0.49644,0.1,1,0.2234,0.37233,0.67847,189,1.82028,-0.9,-0.4468,0.04964,5,1D3U,2.0,True,0.772,10,True,right,0.0,0.2226,0.2726,0.05,0.9562,1.4555,0.4993,A
190,190,0.49644,1.2,2,0.35579,0.35579,0.40543,190,2.38294,0.54,0.27304,0.76949,5,3D1U,2.0,True,0.557,7,True,right,0.0,1.264,2.0381,0.7741,0.3555,0.8549,0.4995,A
191,191,0.49644,0.1,2,0.30614,0.35579,0.67847,191,2.40775,0.14,0.06619,0.57091,5,2D1U,2.0,True,0.76,9,False,right,0.0,1.492,2.0679,0.5759,0.3091,0.8094,0.5003,V
192,192,0.49644,1.2,1,0.36406,0.43853,0.74467,192,2.58979,0.1,0.04964,0.54609,5,2D1U,2.0,False,0.651,9,False,right,0.0,0.3681,0.9186,0.5504,1.6687,2.1684,0.4997,V
193,193,0.49644,0.1,1,0.31441,0.24822,0.61228,193,2.24226,0.14,0.06619,0.57091,5,2D1U,2.0,False,1.083,10,True,right,0.0,0.3155,0.8902,0.5747,1.5072,2.0069,0.4997,V
194,194,0.49644,1.2,1,0.31441,0.43025,0.77776,194,2.0685,-0.9,-0.4468,0.04964,5,1D3U,2.0,True,23.275,10,True,right,0.0,0.3166,0.3667,0.0501,1.1502,1.6496,0.4994,V
195,195,0.49644,0.1,1,0.36406,0.23167,0.57918,195,2.42429,0.5,0.24822,0.75294,5,3D1U,1.0,True,0.393,7,False,left,0.0,0.3675,1.1261,0.7586,1.7092,2.2092,0.5,V
196,196,0.49644,1.2,2,0.28959,0.38888,0.55436,196,2.11815,-0.22,-0.10756,0.38888,5,1D2U,1.0,True,0.526,10,False,left,0.0,1.3475,1.7391,0.3916,0.2886,0.7893,0.5007,A
197,197,0.49644,0.1,1,0.36406,0.28132,0.69502,197,2.25054,-0.18,-0.09101,0.4137,5,1D2U,2.0,True,0.467,10,False,right,0.0,0.3645,0.7806,0.416,1.4812,1.9812,0.5001,V
198,198,0.49644,1.2,2,0.4137,0.23167,0.46335,198,1.6548,-0.9,-0.4468,0.04964,5,1D3U,1.0,True,0.606,10,True,left,0.0,1.3818,1.432,0.0502,0.4151,0.9151,0.5,A
199,199,0.49644,0.1,2,0.43853,0.29787,0.54609,199,1.84512,-0.86,-0.43025,0.06619,5,1D3U,1.0,True,0.384,11,True,left,0.0,1.4879,1.5553,0.0673,0.4386,0.9387,0.5,V
200,200,0.49644,1.2,1,0.2565,0.28132,0.71157,200,2.33329,0.18,0.09101,0.58746,5,2D1U,1.0,True,0.275,10,False,left,0.0,0.2566,0.8479,0.5913,1.5651,2.0656,0.5005,V
201,201,0.49644,0.1,2,0.21513,0.37233,0.48817,201,2.32501,0.5,0.24822,0.75294,5,3D1U,2.0,True,1.476,7,False,right,0.0,1.21,1.9687,0.7588,0.2183,0.7188,0.5005,V
202,202,0.49644,1.2,2,0.42198,0.32269,0.76121,202,2.06851,-0.86,-0.43025,0.06619,5,1D3U,2.0,False,1.209,11,True,right,0.0,1.6894,1.7559,0.0665,0.4229,0.9227,0.4998,V
203,203,0.49644,0.1,2,0.4137,0.20685,0.8605,203,2.39119,-0.18,-0.09101,0.4137,5,1D2U,1.0,True,0.5,10,False,left,0.0,1.7827,2.1992,0.4165,0.416,0.9158,0.4998,A
204,204,0.49644,1.2,2,0.23995,0.26477,0.6371,204,2.22572,0.18,0.09101,0.58746,5,2D1U,2.0,True,1.667,10,False,right,0.0,1.3813,1.9727,0.5914,0.2397,0.7401,0.5004,A
205,205,0.49644,0.1,1,0.42198,0.33924,0.72812,205,2.55669,0.14,0.06619,0.57091,5,2D1U,1.0,True,0.499,11,True,left,0.0,0.4257,1.0011,0.5754,1.7335,2.234,0.5005,V
206,206,0.49644,1.2,1,0.28959,0.28959,0.57091,206,2.39947,0.5,0.24822,0.75294,5,3D1U,1.0,True,0.525,7,False,left,0.0,0.2904,1.0489,0.7585,1.6237,2.1239,0.5002,A
207,207,0.49644,0.1,1,0.42198,0.21513,0.67847,207,2.54014,0.46,0.23167,0.72812,5,3D1U,1.0,True,0.359,7,False,left,0.0,0.4225,1.1561,0.7336,1.8394,2.3393,0.4999,A
208,208,0.49644,1.2,2,0.42198,0.35579,0.52954,208,2.234,-0.14,-0.06619,0.43025,5,1D2U,1.0,True,0.451,10,False,left,0.0,1.4613,1.8944,0.4331,0.4272,0.9279,0.5007,A
209,209,0.49644,0.1,2,0.33096,0.26477,0.53781,209,2.20089,0.14,0.06619,0.57091,5,2D1U,2.0,True,0.576,11,True,right,0.0,1.3754,1.9503,0.5749,0.3333,0.8338,0.5005,A
210,210,0.49644,1.2,1,0.43025,0.37233,0.77776,210,2.62287,0.1,0.04964,0.54609,5,2D1U,1.0,True,0.742,11,False,left,0.0,0.4353,0.9847,0.5494,1.7684,2.269,0.5006,V
211,211,0.49644,0.1,2,0.42198,0.28959,0.84396,211,2.10161,-0.9,-0.4468,0.04964,5,1D3U,1.0,True,0.433,12,True,left,0.0,1.7723,1.8223,0.0499,0.422,0.9225,0.5004,A
212,212,0.49644,1.2,1,0.26477,0.19858,0.53781,212,1.54724,-0.9,-0.4468,0.04964,5,1D3U,1.0,False,0.751,12,True,left,0.0,0.2692,0.3187,0.0496,0.86,1.3604,0.5003,V
213,213,0.49644,0.1,1,0.43853,0.23995,0.49644,213,2.39948,0.46,0.23167,0.72812,5,3D1U,1.0,True,0.342,7,False,left,0.0,0.443,1.1765,0.7335,1.6766,2.1766,0.5,A
214,214,0.49644,1.2,1,0.34751,0.43025,0.49644,214,2.20089,-0.14,-0.06619,0.43025,5,1D2U,1.0,False,0.292,10,False,left,0.0,0.3487,0.7816,0.433,1.2822,1.7821,0.4999,V
215,215,0.49644,0.1,2,0.27304,0.39716,0.75294,215,2.46567,0.1,0.04964,0.54609,5,2D1U,2.0,True,0.425,11,False,right,0.0,1.531,2.0802,0.5492,0.2732,0.7728,0.4996,V
216,216,0.49644,1.2,2,0.2234,0.39716,0.88533,216,2.05197,-0.9,-0.4468,0.04964,5,1D3U,1.0,True,1.542,12,False,left,0.0,1.6143,1.6646,0.0503,0.2234,0.7231,0.4997,V
217,217,0.49644,0.1,2,0.24822,0.28132,0.57918,217,1.6548,-0.9,-0.4468,0.04964,5,1D3U,1.0,True,0.451,12,False,left,0.0,1.3334,1.3827,0.0493,0.2494,0.7494,0.5,A
218,218,0.49644,1.2,1,0.23167,0.35579,0.64538,218,2.25882,0.06,0.0331,0.52954,5,2D1U,1.0,True,0.425,11,False,left,0.0,0.2354,0.7683,0.5329,1.4183,1.9182,0.4999,V
219,219,0.49644,0.1,1,0.35579,0.23167,0.52127,219,2.01887,-0.18,-0.09101,0.4137,5,1D2U,2.0,True,0.3,11,True,right,0.0,0.3548,0.7719,0.417,1.2969,1.7967,0.4998,A
220,220,0.49644,1.2,2,0.28132,0.23167,0.69502,220,2.43257,0.46,0.23167,0.72812,5,3D1U,2.0,True,0.558,7,False,right,0.0,1.4861,2.219,0.733,0.286,0.786,0.5,V
221,221,0.49644,0.1,1,0.36406,0.4468,0.54609,221,1.90303,-0.9,-0.4468,0.04964,5,1D3U,2.0,True,0.299,12,False,right,0.0,0.3677,0.418,0.0503,0.969,1.4673,0.4982,A
222,222,0.49644,1.2,1,0.37233,0.29787,0.79431,222,2.49049,0.06,0.0331,0.52954,5,2D1U,1.0,True,0.717,11,False,left,0.0,0.3776,0.9114,0.5338,1.7108,2.2114,0.5007,A
223,223,0.49644,0.1,1,0.4137,0.35579,0.55436,223,1.88648,-0.86,-0.43025,0.06619,5,1D3U,2.0,True,0.111,13,True,right,0.0,0.4178,0.4846,0.0668,1.0431,1.5431,0.5,A
224,224,0.49644,1.2,2,0.32269,0.40543,0.7033,224,1.99405,-0.86,-0.43025,0.06619,5,1D3U,1.0,True,1.5,13,True,left,0.0,1.5338,1.6006,0.0668,0.3254,0.8247,0.4993,A
225,225,0.49644,0.1,2,0.33096,0.21513,0.6371,225,2.09333,-0.18,-0.09101,0.4137,5,1D2U,2.0,False,0.426,11,True,right,0.0,1.4762,1.8931,0.4169,0.3345,0.834,0.4994,V
226,226,0.49644,1.2,1,0.43853,0.19858,0.88533,226,2.73045,0.42,0.20685,0.71157,5,3D1U,1.0,True,0.768,7,False,left,0.0,0.439,1.1552,0.7162,2.0473,2.5473,0.5,A
227,227,0.49644,0.1,1,0.36406,0.2234,0.53781,227,2.01059,-0.22,-0.10756,0.38888,5,1D2U,2.0,True,0.518,11,False,right,0.0,0.3687,0.7599,0.3912,1.302,1.802,0.4999,A
228,228,0.49644,1.2,1,0.23995,0.4468,0.64538,228,2.21745,-0.22,-0.10756,0.38888,5,1D2U,1.0,False,0.317,11,False,left,0.0,0.2407,0.6327,0.392,1.2821,1.7825,0.5003,A
229,229,0.49644,0.1,1,0.39716,0.33924,0.49644,229,1.79547,-0.86,-0.43025,0.06619,5,1D3U,2.0,True,0.375,13,True,right,0.0,0.4026,0.4693,0.0666,0.9691,1.4693,0.5002,V
230,230,0.49644,1.2,2,0.32269,0.42198,0.57091,230,2.32501,0.02,0.00827,0.51299,5,2D1U,2.0,True,0.366,11,False,right,0.0,1.401,1.9178,0.5169,0.3262,0.8252,0.499,A
231,231,0.49644,0.1,2,0.30614,0.23995,0.69502,231,2.44912,0.42,0.20685,0.71157,5,3D1U,2.0,True,0.533,7,False,right,0.0,1.5069,2.2239,0.7171,0.307,0.8068,0.4998,A
232,232,0.49644,1.2,2,0.33924,0.20685,0.42198,232,1.83684,-0.26,-0.13239,0.37233,5,1D2U,1.0,True,0.742,11,False,left,0.0,1.2677,1.6432,0.3755,0.3434,0.8427,0.4993,A
233,233,0.49644,0.1,1,0.39716,0.21513,0.47162,233,1.67136,-0.82,-0.4137,0.09101,5,1D3U,2.0,True,0.392,13,False,right,0.0,0.3969,0.4883,0.0914,0.9636,1.4629,0.4993,V
234,234,0.49644,1.2,2,0.37233,0.4468,0.43025,234,2.25881,0.02,0.00827,0.51299,5,2D1U,2.0,True,0.551,11,False,right,0.0,1.3068,1.8237,0.5169,0.3734,0.8734,0.4999,A
235,235,0.49644,0.1,1,0.28959,0.32269,0.43025,235,2.25054,0.42,0.20685,0.71157,5,3D1U,1.0,True,0.292,7,False,left,0.0,0.293,1.0099,0.7169,1.4431,1.943,0.4999,V
236,236,0.49644,1.2,1,0.28132,0.2565,0.8605,236,2.26709,-0.26,-0.13239,0.37233,5,1D2U,2.0,True,0.518,11,False,right,0.0,0.2867,0.6624,0.3757,1.5286,2.0283,0.4997,A
237,237,0.49644,0.1,1,0.39716,0.38888,0.85223,237,2.22572,-0.82,-0.4137,0.09101,5,1D3U,2.0,True,0.241,13,False,right,0.0,0.4028,0.4951,0.0922,1.3535,1.8532,0.4997,V
238,238,0.49644,1.2,1,0.28959,0.33924,0.90187,238,2.41602,-0.22,-0.10756,0.38888,5,1D2U,2.0,True,1.318,12,True,right,0.0,0.2917,0.6833,0.3916,1.5916,2.0911,0.4995,V
239,239,0.49644,0.1,2,0.35579,0.33096,0.64538,239,2.31674,-0.02,-0.00827,0.48817,5,2D1U,1.0,True,0.301,11,False,left,0.0,1.5075,1.9994,0.4919,0.3579,0.8581,0.5002,A
240,240,0.49644,1.2,2,0.24822,0.2565,0.79431,240,2.48222,0.38,0.1903,0.68675,5,3D1U,1.0,False,0.325,7,False,left,0.0,1.5483,2.2398,0.6915,0.2477,0.748,0.5003,A
241,241,0.49644,0.1,1,0.4137,0.24822,0.6702,241,1.91957,-0.82,-0.4137,0.09101,5,1D3U,2.0,True,0.425,13,False,right,0.0,0.4143,0.5059,0.0916,1.1805,1.681,0.5005,V
242,242,0.49644,1.2,1,0.26477,0.35579,0.71984,242,2.34983,0.02,0.00827,0.51299,5,2D1U,1.0,True,0.112,12,True,left,0.0,0.2673,0.7841,0.5168,1.509,2.0087,0.4997,A
243,243,0.49644,0.1,2,0.28132,0.21513,0.82741,243,2.20918,-0.22,-0.10756,0.38888,5,1D2U,1.0,True,1.383,12,True,left,0.0,1.6158,2.0068,0.391,0.2822,0.783,0.5008,V
244,244,0.49644,1.2,1,0.42198,0.23995,0.58746,244,2.15953,-0.18,-0.09101,0.4137,5,1D2U,1.0,False,0.942,12,False,left,0.0,0.421,0.8376,0.4166,1.4295,1.9296,0.5,V
245,245,0.49644,0.1,2,0.31441,0.4137,0.57918,245,1.91129,-0.78,-0.38888,0.10756,5,1D3U,1.0,True,0.881,13,False,left,0.0,1.3965,1.5051,0.1086,0.3133,0.8123,0.499,A
246,246,0.49644,1.2,2,0.4137,0.37233,0.45507,246,2.44911,0.42,0.20685,0.71157,5,3D1U,1.0,False,0.625,8,True,left,0.0,1.371,2.0876,0.7166,0.4122,0.9121,0.4999,V
247,247,0.49644,0.1,1,0.24822,0.43853,0.49644,247,2.40775,0.46,0.23167,0.72812,5,3D1U,1.0,True,0.111,8,False,left,0.0,0.2457,0.9786,0.7329,1.479,1.9792,0.5002,A
248,248,0.49644,1.2,2,0.38061,0.43025,0.57918,248,2.6146,0.46,0.23167,0.72812,5,3D1U,2.0,True,0.524,8,False,right,0.0,1.4693,2.203,0.7338,0.3864,0.8855,0.4991,A
249,249,0.49644,0.1,2,0.43025,0.19858,0.52127,249,2.15953,0.02,0.00827,0.51299,5,2D1U,2.0,True,0.499,12,True,right,0.0,1.4538,1.9706,0.5167,0.4288,0.9289,0.5001,V
250,250,0.49644,1.2,2,0.43025,0.31441,0.62056,250,2.25054,-0.22,-0.10756,0.38888,5,1D2U,1.0,True,0.351,13,True,left,0.0,1.554,1.946,0.392,0.4285,0.9287,0.5002,V
251,251,0.49644,0.1,1,0.32269,0.27304,0.57091,251,1.77064,-0.78,-0.38888,0.10756,5,1D3U,2.0,True,0.434,13,False,right,0.0,0.3273,0.4355,0.1083,1.0105,1.5111,0.5006,V
252,252,0.49644,1.2,2,0.23995,0.23995,0.40543,252,2.10989,0.46,0.23167,0.72812,5,3D1U,2.0,True,0.551,8,False,right,0.0,1.1532,1.8864,0.7332,0.2447,0.7446,0.4999,V
253,253,0.49644,0.1,1,0.24822,0.28132,0.59573,253,1.72927,-0.78,-0.38888,0.10756,5,1D3U,2.0,True,0.392,13,False,right,0.0,0.2483,0.3566,0.1083,0.9563,1.4564,0.5001,A
254,254,0.49644,1.2,2,0.2565,0.30614,0.80258,254,2.34983,-0.02,-0.00827,0.48817,5,2D1U,2.0,False,1.025,13,True,right,0.0,1.5662,2.0575,0.4913,0.2575,0.7576,0.5002,A
255,255,0.49644,0.1,2,0.36406,0.37233,0.52954,255,2.15125,-0.22,-0.10756,0.38888,5,1D2U,1.0,True,0.375,13,True,left,0.0,1.3984,1.7902,0.3918,0.365,0.8643,0.4993,A
256,256,0.49644,1.2,2,0.23167,0.31441,0.45507,256,1.91129,-0.18,-0.09101,0.4137,5,1D2U,1.0,True,0.642,14,True,left,0.0,1.1911,1.6077,0.4166,0.2327,0.7328,0.5002,A
257,257,0.49644,0.1,1,0.23167,0.23167,0.4137,257,1.50587,-0.74,-0.37233,0.13239,5,1D3U,2.0,True,0.942,13,False,right,0.0,0.2368,0.3697,0.1328,0.7868,1.2868,0.5,V
258,258,0.49644,1.2,1,0.23995,0.2565,0.57091,258,2.05197,-0.02,-0.00827,0.48817,5,2D1U,2.0,True,0.484,13,True,right,0.0,0.2384,0.7298,0.4914,1.3054,1.8047,0.4993,A
259,259,0.49644,0.1,1,0.28132,0.33924,0.49644,259,2.32501,0.42,0.20685,0.71157,5,3D1U,1.0,True,0.366,9,True,left,0.0,0.2823,0.9984,0.7162,1.4989,1.9987,0.4997,V
260,260,0.49644,1.2,2,0.27304,0.37233,0.4799,260,2.03541,-0.18,-0.09101,0.4137,5,1D2U,1.0,True,0.448,14,True,left,0.0,1.2556,1.6724,0.4168,0.2719,0.7723,0.5004,A
261,261,0.49644,0.1,1,0.38888,0.29787,0.42198,261,2.03542,-0.14,-0.06619,0.43025,5,1D2U,1.0,False,0.391,14,False,left,0.0,0.3906,0.8234,0.4328,1.2491,1.7486,0.4996,A
262,262,0.49644,1.2,2,0.33096,0.38888,0.67847,262,2.40774,0.02,0.00827,0.51299,5,2D1U,1.0,False,0.326,14,True,left,0.0,1.5152,2.031,0.5158,0.3317,0.8319,0.5002,V
263,263,0.49644,0.1,2,0.33096,0.4468,0.69502,263,2.68079,0.42,0.20685,0.71157,5,3D1U,2.0,True,0.35,9,True,right,0.0,1.5285,2.2452,0.7168,0.3287,0.8287,0.5,A
264,264,0.49644,1.2,1,0.31441,0.43025,0.78604,264,2.73871,0.42,0.20685,0.71157,5,3D1U,1.0,True,0.675,9,True,left,0.0,0.3205,1.0369,0.7164,1.8284,2.3284,0.5,A
265,265,0.49644,0.1,1,0.34751,0.4468,0.88533,265,2.30847,-0.74,-0.37233,0.13239,5,1D3U,2.0,True,0.366,13,False,right,0.0,0.3533,0.4865,0.1331,1.3782,1.878,0.4998,A
266,266,0.49644,1.2,1,0.31441,0.43025,0.47162,266,2.12642,-0.18,-0.09101,0.4137,5,1D2U,2.0,True,0.976,15,True,right,0.0,0.3192,0.7357,0.4165,1.2117,1.711,0.4993,V
267,267,0.49644,0.1,2,0.4468,0.4468,0.8605,267,2.78008,0.06,0.0331,0.52954,5,2D1U,1.0,False,0.367,14,False,left,0.0,1.8145,2.3467,0.5322,0.447,0.9482,0.5012,A
268,268,0.49644,1.2,2,0.40543,0.20685,0.82741,268,2.62288,0.38,0.1903,0.68675,5,3D1U,2.0,True,1.201,9,False,right,0.0,1.7403,2.4323,0.692,0.4074,0.9074,0.5,V
269,269,0.49644,0.1,2,0.20685,0.30614,0.4799,269,1.90303,-0.18,-0.09101,0.4137,5,1D2U,1.0,True,0.407,15,True,left,0.0,1.19,1.6062,0.4162,0.2062,0.7063,0.5001,A
270,270,0.49644,1.2,2,0.31441,0.30614,0.88533,270,2.43257,-0.14,-0.06619,0.43025,5,1D2U,1.0,True,0.375,16,True,left,0.0,1.7069,2.1402,0.4333,0.3151,0.8152,0.5,V
271,271,0.49644,0.1,1,0.20685,0.32269,0.76121,271,1.91958,-0.74,-0.37233,0.13239,5,1D3U,2.0,True,0.425,13,False,right,0.0,0.2109,0.3443,0.1335,1.111,1.6109,0.4998,V
272,272,0.49644,1.2,1,0.20685,0.21513,0.40543,272,1.86994,0.1,0.04964,0.54609,5,2D1U,1.0,True,0.44,14,False,left,0.0,0.208,0.7575,0.5495,1.1654,1.6658,0.5004,A
273,273,0.49644,0.1,1,0.38061,0.37233,0.6371,273,2.31673,-0.14,-0.06619,0.43025,5,1D2U,1.0,False,1.117,16,True,left,0.0,0.3816,0.815,0.4334,1.4567,1.9569,0.5002,A
274,274,0.49644,1.2,2,0.37233,0.29787,0.80258,274,2.65597,0.38,0.1903,0.68675,5,3D1U,2.0,True,0.35,9,False,right,0.0,1.6853,2.3773,0.692,0.3775,0.8775,0.5001,V
275,275,0.49644,0.1,2,0.2234,0.27304,0.47162,275,1.61343,-0.7,-0.34751,0.14893,5,1D3U,1.0,True,0.366,13,False,left,0.0,1.2036,1.3534,0.1499,0.2284,0.7286,0.5002,V
276,276,0.49644,1.2,2,0.42198,0.32269,0.52954,276,2.31674,0.1,0.04964,0.54609,5,2D1U,2.0,True,0.651,14,False,right,0.0,1.4608,2.0107,0.5499,0.4275,0.9273,0.4998,A
277,277,0.49644,0.1,1,0.28959,0.29787,0.4799,277,1.71273,-0.7,-0.34751,0.14893,5,1D3U,2.0,True,0.176,13,False,right,0.0,0.2916,0.4422,0.1506,0.9253,1.4255,0.5001,A
278,278,0.49644,1.2,2,0.36406,0.42198,0.55436,278,2.52359,0.38,0.1903,0.68675,5,3D1U,2.0,True,0.85,9,False,right,0.0,1.4203,2.112,0.6917,0.3619,0.8613,0.4994,V
279,279,0.49644,0.1,2,0.20685,0.42198,0.65365,279,2.19262,-0.18,-0.09101,0.4137,5,1D2U,1.0,True,0.284,17,True,left,0.0,1.3638,1.7809,0.4171,0.2057,0.7056,0.4999,V
280,280,0.49644,1.2,1,0.24822,0.31441,0.52954,280,2.11815,0.06,0.0331,0.52954,5,2D1U,1.0,True,0.459,15,True,left,0.0,0.248,0.781,0.533,1.3144,1.8145,0.5001,V
281,281,0.49644,0.1,2,0.4137,0.2565,0.59573,281,2.29191,0.06,0.0331,0.52954,5,2D1U,2.0,True,1.859,15,True,right,0.0,1.5173,2.0506,0.5333,0.4177,0.9177,0.5001,A
282,282,0.49644,1.2,1,0.39716,0.42198,0.46335,282,2.44913,0.34,0.17376,0.6702,5,3D1U,2.0,False,0.476,9,False,right,0.0,0.4024,1.0773,0.6749,1.5435,2.0441,0.5006,A
283,283,0.49644,0.1,2,0.35579,0.21513,0.55436,283,1.77065,-0.7,-0.34751,0.14893,5,1D3U,1.0,True,0.508,13,False,left,0.0,1.4173,1.5676,0.1503,0.359,0.8592,0.5002,V
284,284,0.49644,1.2,1,0.38888,0.39716,0.43025,284,2.12643,-0.18,-0.09101,0.4137,5,1D2U,2.0,True,0.475,17,True,right,0.0,0.3927,0.809,0.4163,1.2429,1.7425,0.4997,V
285,285,0.49644,0.1,2,0.21513,0.43853,0.72812,285,2.30847,-0.14,-0.06619,0.43025,5,1D2U,2.0,False,1.276,18,True,right,0.0,1.4498,1.8832,0.4334,0.2164,0.7167,0.5003,V
286,286,0.49644,1.2,1,0.19858,0.39716,0.8605,286,2.46567,0.02,0.00827,0.51299,5,2D1U,1.0,True,0.433,15,False,left,0.0,0.2005,0.7168,0.5164,1.5835,2.0835,0.5,A
287,287,0.49644,0.1,1,0.29787,0.2565,0.53781,287,2.00232,-0.18,-0.09101,0.4137,5,1D2U,2.0,True,0.417,19,True,right,0.0,0.3012,0.7179,0.4167,1.2596,1.7596,0.5001,A
288,288,0.49644,1.2,1,0.31441,0.24822,0.52954,288,2.27536,0.38,0.1903,0.68675,5,3D1U,1.0,True,0.693,10,True,left,0.0,0.3154,1.0074,0.692,1.54,2.0401,0.5001,A
289,289,0.49644,0.1,1,0.38061,0.28132,0.6371,289,2.30846,0.02,0.00827,0.51299,5,2D1U,2.0,False,0.442,15,False,right,0.0,0.3811,0.8982,0.5171,1.5395,2.0397,0.5002,A
290,290,0.49644,1.2,2,0.28132,0.20685,0.67847,290,2.19262,0.06,0.0331,0.52954,5,2D1U,2.0,True,0.484,16,True,right,0.0,1.4675,2.0015,0.534,0.2844,0.7845,0.5001,V
291,291,0.49644,0.1,1,0.28132,0.30614,0.40543,291,1.66309,-0.66,-0.33096,0.17376,5,1D3U,2.0,True,0.348,13,False,right,0.0,0.2854,0.4593,0.1739,0.8676,1.3676,0.5,A
292,292,0.49644,1.2,2,0.28959,0.26477,0.4468,292,1.9113,-0.18,-0.09101,0.4137,5,1D2U,2.0,False,1.457,19,True,right,0.0,1.2432,1.66,0.4168,0.2933,0.7927,0.4994,A
293,293,0.49644,0.1,1,0.2565,0.42198,0.68675,293,2.54842,0.38,0.1903,0.68675,5,3D1U,1.0,True,0.367,10,True,left,0.0,0.2549,0.9467,0.6919,1.6386,2.1385,0.4999,V
294,294,0.49644,1.2,2,0.21513,0.38888,0.88533,294,2.67253,0.38,0.1903,0.68675,5,3D1U,2.0,True,0.818,10,True,right,0.0,1.6067,2.2987,0.692,0.2144,0.7145,0.5001,V
295,295,0.49644,0.1,2,0.31441,0.35579,0.50472,295,1.84512,-0.66,-0.33096,0.17376,5,1D3U,1.0,True,0.433,13,False,left,0.0,1.325,1.5009,0.1759,0.3171,0.8163,0.4993,A
296,296,0.49644,1.2,2,0.43853,0.26477,0.61228,296,2.34156,0.06,0.0331,0.52954,5,2D1U,1.0,False,0.409,16,True,left,0.0,1.5571,2.0904,0.5333,0.44,0.9401,0.5001,V
297,297,0.49644,0.1,1,0.35579,0.39716,0.42198,297,2.06025,-0.22,-0.10756,0.38888,5,1D2U,2.0,True,0.431,19,False,right,0.0,0.3546,0.7469,0.3923,1.1714,1.6717,0.5003,V
298,298,0.49644,1.2,2,0.21513,0.28132,0.71157,298,2.37466,0.34,0.17376,0.6702,5,3D1U,2.0,True,1.067,11,True,right,0.0,1.4307,2.1056,0.6749,0.2136,0.7143,0.5007,V
299,299,0.49644,0.1,1,0.2565,0.36406,0.82741,299,2.11817,-0.66,-0.33096,0.17376,5,1D3U,2.0,True,0.495,13,False,right,0.0,0.2549,0.4298,0.1748,1.2632,1.7637,0.5005,V
300,300,0.49644,1.2,2,0.31441,0.24822,0.71984,300,2.325,0.1,0.04964,0.54609,5,2D1U,1.0,False,0.467,16,False,left,0.0,1.5409,2.0901,0.5493,0.3151,0.816,0.5009,V
301,301,0.49644,0.1,1,0.38888,0.27304,0.64538,301,2.37465,0.14,0.06619,0.57091,5,2D1U,1.0,True,0.408,16,False,left,0.0,0.3955,0.9702,0.5747,1.6198,2.1204,0.5006,A
302,302,0.49644,1.2,2,0.42198,0.20685,0.86878,302,2.18435,-0.62,-0.30614,0.1903,5,1D3U,1.0,True,0.376,13,False,left,0.0,1.799,1.9904,0.1914,0.4239,0.9239,0.5,V
303,303,0.49644,0.1,1,0.19858,0.20685,0.75294,303,2.22572,0.14,0.06619,0.57091,5,2D1U,1.0,True,0.492,16,False,left,0.0,0.2009,0.7762,0.5753,1.5343,2.0342,0.4999,A
304,304,0.49644,1.2,1,0.2234,0.23167,0.77776,304,2.11815,-0.22,-0.10756,0.38888,5,1D2U,1.0,False,0.242,19,False,left,0.0,0.2261,0.6173,0.3912,1.401,1.9011,0.5002,A
305,305,0.49644,0.1,2,0.34751,0.28132,0.4799,305,2.27537,0.34,0.17376,0.6702,5,3D1U,1.0,False,0.517,11,True,left,0.0,1.3331,2.0085,0.6754,0.3498,0.8503,0.5004,A
306,306,0.49644,1.2,1,0.20685,0.43025,0.59573,306,1.91957,-0.62,-0.30614,0.1903,5,1D3U,2.0,True,0.678,13,False,right,0.0,0.204,0.3958,0.1918,0.9961,1.4964,0.5003,V
307,307,0.49644,0.1,2,0.2565,0.29787,0.46335,307,1.70446,-0.62,-0.30614,0.1903,5,1D3U,1.0,True,0.416,13,False,left,0.0,1.2219,1.4135,0.1916,0.2547,0.7552,0.5005,V
