,Unnamed: 0,standardDur,audNoise,order,preDur,postDur,isiDur,trial_num,totalDur,delta_dur_percents,deltaDurS,testDurS,intensities,current_stair,responses,is_correct,response_rts,stair_num_reversal,stair_is_reversal,response_keys,conflictDur,recordedOnsetVisualTest,recordedOffsetVisualTest,recordedDurVisualTest,recordedOnsetVisualStandard,recordedOffsetVisualStandard,recordedDurVisualStandard,modalityPostCue
0,0,0.50397,1.2,2,0.20655,0.32221,0.76835,0,1.85065,-0.9,-0.44614,0.04957,5,3D1U,1.0,True,0.531,0,False,left,0.0,1.4912,1.5407,0.0494,0.2075,0.7152,0.5078,V
1,1,0.50397,0.1,1,0.31395,0.23133,0.72704,1,1.82586,-0.9,-0.44614,0.04957,5,2D1U,2.0,True,0.301,0,False,right,0.0,0.3152,0.3654,0.0502,1.0985,1.6068,0.5083,V
2,2,0.50397,1.2,1,0.347,0.43788,0.63616,2,2.0572,-0.74,-0.37178,0.13219,5,3D1U,1.0,False,1.193,0,False,left,0.0,0.3476,0.4805,0.133,1.1222,1.6308,0.5085,A
3,3,0.50397,0.1,2,0.27264,0.23959,0.77661,3,1.925,-0.74,-0.37178,0.13219,5,2D1U,1.0,True,0.275,0,False,left,0.0,1.5692,1.7024,0.1331,0.2775,0.786,0.5085,A
4,4,0.50397,0.1,1,0.21481,0.27264,0.46266,4,2.40419,0.9,0.44614,0.95011,5,lapse_rate,1.0,True,0.267,0,False,left,0.0,0.2125,1.1705,0.9579,1.6385,2.1454,0.5069,V
5,5,0.50397,1.2,1,0.42135,0.25612,0.54528,5,1.77629,-0.9,-0.44614,0.04957,5,1D3U,1.0,False,1.476,0,False,left,0.0,0.4224,0.4734,0.0511,1.0226,1.5303,0.5077,V
6,6,0.50397,0.1,2,0.21481,0.31395,0.60311,6,1.68541,-0.9,-0.44614,0.04957,5,1D2U,1.0,True,0.283,0,False,left,0.0,1.3299,1.3801,0.0502,0.2135,0.7218,0.5083,V
7,7,0.50397,1.2,1,0.40483,0.33047,0.6279,7,1.91674,-0.9,-0.44614,0.04957,5,lapse_rate,2.0,True,1.902,0,False,right,0.0,0.4109,0.4609,0.0501,1.0939,1.6029,0.509,V
8,8,0.50397,1.2,2,0.41309,0.28916,0.63616,8,1.97457,-0.74,-0.37178,0.13219,5,3D1U,1.0,True,0.3,0,False,left,0.0,1.5654,1.6981,0.1328,0.4153,0.9239,0.5086,V
9,9,0.50397,0.1,2,0.28916,0.20655,0.41309,9,1.61932,-0.58,-0.28916,0.20655,5,2D1U,1.0,True,0.25,0,False,left,0.0,1.2147,1.4226,0.2079,0.2895,0.7975,0.508,V
10,10,0.50397,1.2,1,0.33047,0.27264,0.47092,10,1.62757,-0.9,-0.44614,0.04957,5,1D2U,2.0,True,0.267,0,False,right,0.0,0.3312,0.3811,0.0499,0.8567,1.3644,0.5077,V
11,11,0.50397,0.1,2,0.25612,0.41309,0.5618,11,1.78455,-0.9,-0.44614,0.04957,5,1D3U,1.0,True,0.234,0,False,left,0.0,1.3349,1.3852,0.0503,0.2604,0.7687,0.5083,A
12,12,0.50397,1.2,2,0.23133,0.35526,0.79313,12,1.93326,-0.9,-0.44614,0.04957,5,1D3U,2.0,False,1.008,0,False,right,0.0,1.5433,1.5931,0.0498,0.2349,0.7431,0.5082,A
13,13,0.50397,0.1,2,0.24785,0.347,0.59485,13,1.74324,-0.9,-0.44614,0.04957,5,lapse_rate,1.0,True,0.308,0,False,left,0.0,1.3612,1.4114,0.0502,0.2532,0.7612,0.508,A
14,14,0.50397,0.1,2,0.35526,0.22307,0.86749,14,2.15634,-0.58,-0.28916,0.20655,5,3D1U,1.0,True,0.301,0,False,left,0.0,1.7385,1.947,0.2085,0.3549,0.8629,0.508,V
15,15,0.50397,1.2,2,0.35526,0.41309,0.66094,15,2.22242,-0.42,-0.20655,0.28916,5,2D1U,1.0,True,0.258,0,False,left,0.0,1.5315,1.8237,0.2922,0.3569,0.8657,0.5088,V
16,16,0.50397,0.1,2,0.44614,0.33047,0.41309,16,1.82586,-0.74,-0.37178,0.13219,5,1D2U,2.0,False,0.351,0,False,right,0.0,1.3775,1.5101,0.1326,0.4524,0.9603,0.5078,V
17,17,0.50397,1.2,1,0.43788,0.32221,0.86749,17,2.22243,-0.82,-0.41309,0.09088,5,1D2U,1.0,False,1.55,1,True,left,0.0,0.4367,0.5282,0.0915,1.4028,1.912,0.5093,V
18,18,0.50397,0.1,1,0.26438,0.35526,0.51223,18,2.00762,-0.26,-0.13219,0.37178,5,2D1U,1.0,False,1.225,0,False,left,0.0,0.2681,0.6436,0.3755,1.1594,1.6688,0.5094,V
19,19,0.50397,1.2,2,0.26438,0.29743,0.8427,19,2.19764,-0.42,-0.20655,0.28916,5,3D1U,1.0,True,0.216,0,False,left,0.0,1.6264,1.9179,0.2916,0.2679,0.776,0.5081,A
20,20,0.50397,1.2,2,0.22307,0.37178,0.48745,20,2.53638,0.9,0.44614,0.95011,5,lapse_rate,1.0,False,0.25,0,False,left,0.0,1.2281,2.1867,0.9586,0.2283,0.7359,0.5076,A
21,21,0.50397,0.1,1,0.23959,0.37178,0.71878,21,1.88369,-0.9,-0.44614,0.04957,5,1D3U,2.0,True,0.534,0,False,right,0.0,0.2417,0.2919,0.0502,1.0171,1.525,0.5078,V
22,22,0.50397,1.2,1,0.19828,0.36352,0.78487,22,1.90021,-0.9,-0.44614,0.04957,5,1D2U,2.0,True,1.133,1,False,right,0.0,0.1976,0.2473,0.0497,1.0396,1.5471,0.5075,A
23,23,0.50397,0.1,1,0.28916,0.42135,0.52876,23,1.79281,-0.9,-0.44614,0.04957,5,lapse_rate,2.0,True,0.148,0,False,right,0.0,0.2878,0.3376,0.0498,0.8709,1.3802,0.5093,V
24,24,0.50397,0.1,2,0.23133,0.20655,0.64442,24,1.95805,-0.26,-0.13219,0.37178,5,2D1U,1.0,True,1.334,0,False,left,0.0,1.3914,1.7666,0.3752,0.2325,0.7413,0.5088,A
25,25,0.50397,1.2,1,0.23959,0.42135,0.77661,25,1.99109,-0.9,-0.44614,0.04957,5,1D3U,2.0,True,0.292,0,False,right,0.0,0.2388,0.2889,0.0501,1.0724,1.5812,0.5088,A
26,26,0.50397,0.1,2,0.27264,0.41309,0.66921,26,2.23069,-0.26,-0.13219,0.37178,5,3D1U,1.0,True,0.4,0,False,left,0.0,1.4596,1.835,0.3754,0.2765,0.7852,0.5087,V
27,27,0.50397,1.2,1,0.38831,0.31395,0.7353,27,1.9911,-0.9,-0.44614,0.04957,5,1D3U,2.0,True,1.176,0,False,right,0.0,0.3919,0.4422,0.0503,1.1829,1.6914,0.5086,V
28,28,0.50397,0.1,2,0.43788,0.26438,0.7353,28,1.9911,-0.9,-0.44614,0.04957,5,1D2U,1.0,True,0.301,1,False,left,0.0,1.6892,1.739,0.0497,0.4383,0.947,0.5088,A
29,29,0.50397,1.2,1,0.39657,0.25612,0.57006,29,2.17286,-0.1,-0.04957,0.44614,5,2D1U,1.0,False,0.258,0,False,left,0.0,0.3986,0.8488,0.4502,1.4241,1.932,0.5079,V
30,30,0.50397,0.1,1,0.19828,0.44614,0.41309,30,2.00762,-0.1,-0.04957,0.44614,5,3D1U,2.0,True,0.352,0,False,right,0.0,0.1981,0.6494,0.4513,1.0662,1.5737,0.5075,V
31,31,0.50397,1.2,2,0.37178,0.38831,0.57006,31,1.88369,-0.9,-0.44614,0.04957,5,lapse_rate,1.0,True,0.252,0,False,left,0.0,1.4542,1.5044,0.0503,0.3713,0.8794,0.5082,V
32,32,0.50397,1.2,1,0.39657,0.37178,0.70225,32,2.92468,0.9,0.44614,0.95011,5,lapse_rate,1.0,True,0.201,0,False,left,0.0,0.4005,1.3583,0.9578,2.0672,2.5753,0.5082,A
33,33,0.50397,1.2,1,0.2809,0.23959,0.41309,33,1.96631,0.06,0.03305,0.52876,5,3D1U,2.0,False,1.15,0,False,right,0.0,0.2852,0.8184,0.5331,1.2353,1.7433,0.508,V
34,34,0.50397,0.1,1,0.2809,0.40483,0.57006,34,2.2059,-0.1,-0.04957,0.44614,5,2D1U,2.0,True,0.992,0,False,right,0.0,0.279,0.7291,0.45,1.3038,1.812,0.5082,A
35,35,0.50397,1.2,2,0.2809,0.32221,0.48745,35,1.68541,-0.82,-0.41309,0.09088,5,1D3U,1.0,True,0.447,1,True,left,0.0,1.2777,1.3695,0.0918,0.278,0.7861,0.5082,V
36,36,0.50397,0.1,2,0.2809,0.41309,0.65268,36,1.91673,-0.86,-0.42961,0.06609,5,1D2U,1.0,True,0.25,2,True,left,0.0,1.4493,1.515,0.0657,0.2818,0.7898,0.508,V
37,37,0.50397,1.2,1,0.30569,0.27264,0.76009,37,1.90848,-0.86,-0.42961,0.06609,5,1D2U,1.0,False,1.034,2,True,left,0.0,0.3098,0.3764,0.0667,1.1432,1.6517,0.5085,A
38,38,0.50397,1.2,1,0.39657,0.29743,0.58659,38,2.73467,0.9,0.44614,0.95011,5,lapse_rate,1.0,True,0.292,0,False,left,0.0,0.3982,1.3566,0.9584,1.9485,2.4573,0.5088,V
39,39,0.50397,0.1,2,0.39657,0.41309,0.63616,39,2.47855,0.06,0.03305,0.52876,5,2D1U,2.0,True,1.833,0,False,right,0.0,1.5494,2.0826,0.5332,0.3999,0.9078,0.5079,V
40,40,0.50397,1.2,1,0.25612,0.39657,0.72704,40,2.49507,0.22,0.1074,0.61137,5,3D1U,1.0,True,0.292,0,False,left,0.0,0.2537,0.8711,0.6174,1.6045,2.1128,0.5082,A
41,41,0.50397,0.1,1,0.24785,0.26438,0.7353,41,1.84238,-0.82,-0.41309,0.09088,5,1D3U,2.0,True,0.516,1,True,right,0.0,0.2499,0.3417,0.0918,1.0834,1.5921,0.5087,V
42,42,0.50397,1.2,1,0.41309,0.28916,0.76009,42,2.57768,0.22,0.1074,0.61137,5,3D1U,1.0,True,1.0,0,False,left,0.0,0.4149,1.0319,0.6169,1.7983,2.3069,0.5086,V
43,43,0.50397,0.1,1,0.39657,0.33047,0.43788,43,1.71846,-0.9,-0.44614,0.04957,5,1D2U,2.0,True,0.292,3,True,right,0.0,0.3993,0.4485,0.0493,0.8903,1.3991,0.5089,A
44,44,0.50397,1.2,2,0.33047,0.26438,0.85923,44,2.04893,-0.82,-0.41309,0.09088,5,1D3U,1.0,True,0.308,1,True,left,0.0,1.7082,1.7985,0.0903,0.3321,0.8412,0.5091,A
45,45,0.50397,0.1,1,0.42135,0.29743,0.87575,45,2.62726,0.06,0.03305,0.52876,5,2D1U,2.0,False,1.757,0,False,right,0.0,0.4226,0.9572,0.5346,1.8392,2.3491,0.5099,A
46,46,0.50397,0.1,1,0.36352,0.27264,0.71878,46,1.90848,-0.9,-0.44614,0.04957,5,lapse_rate,2.0,True,0.109,0,False,right,0.0,0.3638,0.4142,0.0503,1.1385,1.6473,0.5088,A
47,47,0.50397,1.2,1,0.42135,0.31395,0.53702,47,1.82586,-0.9,-0.44614,0.04957,5,lapse_rate,1.0,False,0.301,0,False,left,0.0,0.4228,0.4732,0.0504,1.0141,1.5226,0.5084,A
48,48,0.50397,1.2,2,0.40483,0.23959,0.70225,48,1.90021,-0.9,-0.44614,0.04957,5,1D2U,1.0,True,0.293,3,True,left,0.0,1.6277,1.6787,0.0509,0.4118,0.9205,0.5086,A
49,49,0.50397,0.1,1,0.24785,0.30569,0.70225,49,2.37113,0.22,0.1074,0.61137,5,2D1U,2.0,False,1.458,0,False,right,0.0,0.2498,0.8661,0.6162,1.5747,2.083,0.5083,V
50,50,0.50397,1.2,1,0.40483,0.36352,0.49571,50,2.3794,0.22,0.1074,0.61137,5,3D1U,1.0,True,0.218,0,False,left,0.0,0.4104,1.0263,0.6159,1.5271,2.0346,0.5075,A
51,51,0.50397,0.1,2,0.43788,0.29743,0.42961,51,1.80108,-0.74,-0.37178,0.13219,5,1D3U,1.0,True,0.308,1,False,left,0.0,1.3858,1.5191,0.1333,0.4438,0.9524,0.5086,V
52,52,0.50397,1.2,1,0.30569,0.347,0.57006,52,2.42071,0.38,0.19002,0.69399,5,2D1U,1.0,True,0.433,0,False,left,0.0,0.3083,1.008,0.6996,1.583,2.092,0.509,A
53,53,0.50397,0.1,1,0.28916,0.24785,0.41309,53,2.02413,0.14,0.06609,0.57006,5,3D1U,1.0,True,0.393,1,True,left,0.0,0.291,0.8662,0.5752,1.2839,1.7912,0.5073,A
54,54,0.50397,0.1,1,0.20655,0.38004,0.89228,54,2.93295,0.9,0.44614,0.95011,5,lapse_rate,1.0,True,0.376,0,False,left,0.0,0.2107,1.1695,0.9588,2.0693,2.578,0.5087,A
55,55,0.50397,1.2,1,0.44614,0.23133,0.67747,55,1.9911,-0.74,-0.37178,0.13219,5,1D3U,1.0,False,1.201,1,False,left,0.0,0.4473,0.5811,0.1338,1.2638,1.7727,0.5089,V
56,56,0.50397,0.1,2,0.29743,0.23959,0.67747,56,1.78455,-0.86,-0.42961,0.06609,5,1D2U,1.0,True,0.317,4,True,left,0.0,1.4894,1.5562,0.0668,0.2978,0.8063,0.5085,A
57,57,0.50397,1.2,1,0.26438,0.38004,0.43788,57,1.69367,-0.78,-0.38831,0.1074,5,1D3U,2.0,True,0.891,2,True,right,0.0,0.2702,0.3791,0.1089,0.8207,1.3294,0.5087,A
58,58,0.50397,0.1,1,0.29743,0.38831,0.60311,58,1.85891,-0.86,-0.42961,0.06609,5,1D2U,2.0,True,0.323,4,True,right,0.0,0.3022,0.3693,0.0671,0.9777,1.4859,0.5081,A
59,59,0.50397,1.2,1,0.26438,0.26438,0.42961,59,2.15633,0.38,0.19002,0.69399,5,2D1U,2.0,False,3.084,0,False,right,0.0,0.2648,0.964,0.6992,1.3981,1.9066,0.5086,V
60,60,0.50397,0.1,2,0.37178,0.23959,0.58659,60,1.7515,-0.9,-0.44614,0.04957,5,lapse_rate,1.0,True,0.401,0,False,left,0.0,1.4757,1.5258,0.0501,0.3748,0.8835,0.5087,A
61,61,0.50397,0.1,1,0.42961,0.35526,0.71878,61,2.57768,0.14,0.06609,0.57006,5,3D1U,1.0,True,0.276,1,True,left,0.0,0.4343,1.0103,0.576,1.7343,2.2428,0.5084,V
62,62,0.50397,1.2,2,0.42961,0.43788,0.41309,62,2.73466,0.9,0.44614,0.95011,5,lapse_rate,2.0,True,0.308,0,False,right,0.0,1.3582,2.3173,0.9591,0.4335,0.9425,0.509,V
63,63,0.50397,1.2,2,0.39657,0.43788,0.8427,63,2.94947,0.54,0.27264,0.76835,5,2D1U,2.0,True,0.324,0,False,right,0.0,1.7609,2.536,0.775,0.4026,0.9112,0.5086,A
64,64,0.50397,0.1,2,0.37178,0.24785,0.61964,64,1.85064,-0.78,-0.38831,0.1074,5,1D3U,1.0,True,0.334,2,True,left,0.0,1.5091,1.6181,0.109,0.3759,0.8835,0.5076,V
65,65,0.50397,1.2,1,0.41309,0.40483,0.61964,65,2.03241,-0.82,-0.41309,0.09088,5,1D2U,2.0,True,0.384,4,False,right,0.0,0.4194,0.5104,0.091,1.1366,1.6453,0.5088,A
66,66,0.50397,0.1,1,0.25612,0.37178,0.55354,66,2.25547,0.14,0.06609,0.57006,5,3D1U,2.0,False,1.108,1,True,right,0.0,0.2593,0.8349,0.5756,1.3942,1.9008,0.5066,A
67,67,0.50397,1.2,1,0.37178,0.28916,0.78487,67,2.71813,0.54,0.27264,0.76835,5,2D1U,1.0,True,0.426,0,False,left,0.0,0.3732,1.1486,0.7754,1.9403,2.4479,0.5076,V
68,68,0.50397,0.1,1,0.38831,0.30569,0.83444,68,2.619,0.18,0.09088,0.58659,5,3D1U,1.0,True,0.351,2,True,left,0.0,0.3902,0.9812,0.591,1.8229,2.3315,0.5086,V
69,69,0.50397,1.2,1,0.30569,0.31395,0.52049,69,2.59421,0.9,0.44614,0.95011,5,lapse_rate,1.0,True,0.425,0,False,left,0.0,0.308,1.2664,0.9584,1.7917,2.2998,0.508,A
70,70,0.50397,1.2,1,0.40483,0.20655,0.80966,70,2.01589,-0.82,-0.41309,0.09088,5,1D2U,2.0,True,0.309,4,False,right,0.0,0.4094,0.5008,0.0914,1.3177,1.8259,0.5081,V
71,71,0.50397,0.1,1,0.28916,0.38004,0.5618,71,1.84237,-0.78,-0.38831,0.1074,5,1D3U,2.0,True,0.191,2,True,right,0.0,0.2914,0.4006,0.1092,0.9665,1.4741,0.5076,A
72,72,0.50397,1.2,2,0.33047,0.24785,0.43788,72,1.62757,-0.78,-0.38831,0.1074,5,1D2U,1.0,True,0.302,4,False,left,0.0,1.2799,1.3884,0.1085,0.3298,0.8386,0.5088,A
73,73,0.50397,0.1,2,0.41309,0.28916,0.68573,73,2.84206,0.9,0.44614,0.95011,5,lapse_rate,2.0,True,0.442,0,False,right,0.0,1.6136,2.5721,0.9585,0.4136,0.921,0.5074,A
74,74,0.50397,0.1,2,0.30569,0.32221,0.61964,74,2.47855,0.46,0.23133,0.72704,5,2D1U,2.0,True,0.267,1,True,right,0.0,1.441,2.1739,0.7329,0.3073,0.8169,0.5096,V
75,75,0.50397,1.2,1,0.41309,0.19828,0.49571,75,2.19764,0.18,0.09088,0.58659,5,3D1U,1.0,True,1.382,2,True,left,0.0,0.4194,1.0114,0.592,1.5103,2.0189,0.5086,A
76,76,0.50397,0.1,1,0.20655,0.31395,0.77661,76,1.93327,-0.74,-0.37178,0.13219,5,1D3U,2.0,True,0.325,3,True,right,0.0,0.204,0.3378,0.1338,1.1208,1.6289,0.5081,V
77,77,0.50397,1.2,1,0.35526,0.37178,0.58659,77,1.925,-0.78,-0.38831,0.1074,5,1D2U,2.0,True,2.667,4,False,right,0.0,0.3572,0.4663,0.1091,1.0578,1.5654,0.5076,A
78,78,0.50397,0.1,1,0.33873,0.28916,0.83444,78,2.69334,0.46,0.23133,0.72704,5,2D1U,1.0,True,1.034,1,True,left,0.0,0.3433,1.0773,0.734,1.9191,2.4269,0.5078,V
79,79,0.50397,1.2,1,0.33047,0.2809,0.80966,79,2.51159,0.18,0.09088,0.58659,5,3D1U,2.0,False,0.26,2,True,right,0.0,0.3352,0.9272,0.592,1.7439,2.2524,0.5084,A
80,80,0.50397,0.1,1,0.38004,0.38004,0.47918,80,1.87542,-0.74,-0.37178,0.13219,5,1D3U,2.0,True,0.243,3,True,right,0.0,0.3811,0.5145,0.1334,0.9978,1.5066,0.5088,A
81,81,0.50397,0.1,1,0.28916,0.2809,0.66921,81,2.69335,0.9,0.44614,0.95011,5,lapse_rate,1.0,True,0.284,0,False,left,0.0,0.2895,1.2477,0.9582,1.9221,2.4308,0.5087,A
82,82,0.50397,1.2,2,0.42961,0.43788,0.50397,82,2.00762,-0.74,-0.37178,0.13219,5,1D2U,1.0,True,0.292,4,False,left,0.0,1.4519,1.5852,0.1334,0.4352,0.9439,0.5087,A
83,83,0.50397,0.1,2,0.31395,0.27264,0.66921,83,2.37114,0.22,0.1074,0.61137,5,3D1U,2.0,True,0.608,2,False,right,0.0,1.5007,2.1176,0.6169,0.3173,0.8266,0.5093,V
84,84,0.50397,1.2,1,0.32221,0.39657,0.4544,84,2.37114,0.38,0.19002,0.69399,5,2D1U,1.0,True,0.384,1,False,left,0.0,0.327,1.0262,0.6992,1.4859,1.993,0.5071,V
85,85,0.50397,0.1,2,0.22307,0.30569,0.4544,85,1.61932,-0.74,-0.37178,0.13219,5,1D3U,1.0,True,0.325,3,True,left,0.0,1.191,1.3245,0.1335,0.2239,0.7324,0.5085,A
86,86,0.50397,0.1,2,0.20655,0.24785,0.69399,86,1.70193,-0.9,-0.44614,0.04957,5,lapse_rate,1.0,True,0.328,0,False,left,0.0,1.4123,1.4627,0.0505,0.2043,0.7124,0.5081,A
87,87,0.50397,1.2,2,0.39657,0.36352,0.78487,87,2.18112,-0.74,-0.37178,0.13219,5,1D2U,1.0,True,0.285,4,False,left,0.0,1.7015,1.8356,0.1341,0.4026,0.911,0.5084,V
88,88,0.50397,0.1,1,0.25612,0.30569,0.8014,88,2.01589,-0.7,-0.347,0.14871,5,1D3U,2.0,True,0.377,3,False,right,0.0,0.2604,0.4109,0.1505,1.2191,1.7267,0.5076,V
89,89,0.50397,1.2,1,0.35526,0.2809,0.66094,89,2.75118,0.9,0.44614,0.95011,5,lapse_rate,1.0,True,0.559,0,False,left,0.0,0.3583,1.3168,0.9585,1.9827,2.4925,0.5099,A
90,90,0.50397,1.2,1,0.25612,0.36352,0.83444,90,2.56942,0.22,0.1074,0.61137,5,3D1U,1.0,True,1.067,2,False,left,0.0,0.2597,0.8767,0.6171,1.7175,2.2267,0.5092,A
91,91,0.50397,0.1,2,0.36352,0.28916,0.89228,91,2.74292,0.38,0.19002,0.69399,5,2D1U,2.0,True,0.325,1,False,right,0.0,1.7721,2.4722,0.7001,0.3639,0.8719,0.508,A
92,92,0.50397,1.2,1,0.38004,0.29743,0.57006,92,1.80107,-0.9,-0.44614,0.04957,5,lapse_rate,2.0,True,0.335,0,False,right,0.0,0.382,0.4319,0.0498,1.0063,1.5152,0.5089,A
93,93,0.50397,1.2,1,0.33873,0.35526,0.80966,93,2.15633,-0.7,-0.347,0.14871,5,1D3U,1.0,False,0.251,3,False,left,0.0,0.3449,0.4943,0.1494,1.3121,1.8193,0.5072,A
94,94,0.50397,0.1,2,0.33873,0.44614,0.65268,94,2.5942,0.3,0.14871,0.65268,5,2D1U,2.0,True,0.111,1,False,right,0.0,1.5091,2.1681,0.659,0.3434,0.8515,0.508,V
95,95,0.50397,1.2,2,0.35526,0.24785,0.71052,95,2.42897,0.22,0.1074,0.61137,5,3D1U,1.0,False,0.258,2,False,left,0.0,1.5837,2.2003,0.6166,0.3582,0.8664,0.5082,V
96,96,0.50397,0.1,2,0.42135,0.36352,0.72704,96,2.16459,-0.7,-0.347,0.14871,5,1D2U,1.0,True,0.191,4,False,left,0.0,1.6686,1.8187,0.1501,0.4269,0.9344,0.5075,V
97,97,0.50397,1.2,2,0.347,0.23133,0.67747,97,2.41245,0.3,0.14871,0.65268,5,2D1U,1.0,False,0.151,1,False,left,0.0,1.5388,2.1967,0.6579,0.3462,0.8557,0.5096,A
98,98,0.50397,0.1,1,0.32221,0.23959,0.72704,98,1.94152,-0.7,-0.347,0.14871,5,1D2U,2.0,True,0.293,4,False,right,0.0,0.3201,0.4708,0.1508,1.2049,1.713,0.5081,V
99,99,0.50397,0.1,2,0.20655,0.42135,0.47918,99,1.66062,-0.9,-0.44614,0.04957,5,lapse_rate,1.0,True,0.117,0,False,left,0.0,1.2027,1.2525,0.0497,0.2113,0.7194,0.5081,A
100,100,0.50397,1.2,2,0.38831,0.22307,0.71878,100,2.46203,0.26,0.13219,0.6279,5,3D1U,2.0,True,0.392,2,False,right,0.0,1.6202,2.2539,0.6337,0.3867,0.8953,0.5086,A
101,101,0.50397,0.1,2,0.26438,0.23133,0.49571,101,1.62758,-0.74,-0.37178,0.13219,5,1D3U,1.0,True,0.302,4,True,left,0.0,1.2722,1.4056,0.1335,0.2642,0.773,0.5088,V
102,102,0.50397,1.2,2,0.37178,0.35526,0.76835,102,2.17286,-0.66,-0.33047,0.1735,5,1D2U,1.0,True,0.325,4,False,left,0.0,1.6597,1.8348,0.1751,0.3762,0.884,0.5078,V
103,103,0.50397,0.1,2,0.43788,0.43788,0.87575,103,2.38767,-0.74,-0.37178,0.13219,5,1D3U,1.0,True,0.373,4,True,left,0.0,1.8302,1.9623,0.1321,0.4384,0.9463,0.508,A
104,104,0.50397,0.1,2,0.39657,0.40483,0.65268,104,2.90816,0.9,0.44614,0.95011,5,lapse_rate,2.0,True,0.267,0,False,right,0.0,1.5665,2.5238,0.9573,0.3989,0.9077,0.5088,V
105,105,0.50397,1.2,1,0.37178,0.31395,0.68573,105,2.54464,0.34,0.1735,0.66921,5,2D1U,1.0,True,0.541,2,True,left,0.0,0.3768,1.0515,0.6747,1.744,2.2523,0.5082,A
106,106,0.50397,0.1,2,0.37178,0.33873,0.77661,106,2.61899,0.26,0.13219,0.6279,5,3D1U,1.0,False,0.309,2,False,left,0.0,1.6635,2.2976,0.6342,0.3728,0.8802,0.5073,V
107,107,0.50397,1.2,1,0.36352,0.347,0.66094,107,1.925,-0.9,-0.44614,0.04957,5,lapse_rate,1.0,False,0.509,0,False,left,0.0,0.364,0.4137,0.0497,1.0805,1.5884,0.508,A
108,108,0.50397,1.2,2,0.42135,0.40483,0.63616,108,2.61899,0.3,0.14871,0.65268,5,3D1U,1.0,False,0.267,2,False,left,0.0,1.5741,2.2318,0.6576,0.424,0.9317,0.5078,A
109,109,0.50397,0.1,1,0.43788,0.33047,0.70225,109,2.64378,0.34,0.1735,0.66921,5,2D1U,1.0,True,0.243,2,True,left,0.0,0.4383,1.1136,0.6753,1.8219,2.3303,0.5084,V
110,110,0.50397,1.2,1,0.41309,0.42135,0.76009,110,2.23069,-0.74,-0.37178,0.13219,5,1D3U,1.0,False,0.217,4,True,left,0.0,0.4133,0.5455,0.1322,1.3131,1.8212,0.5081,A
111,111,0.50397,0.1,1,0.36352,0.25612,0.77661,111,2.07372,-0.66,-0.33047,0.1735,5,1D2U,2.0,True,0.267,4,False,right,0.0,0.3677,0.5422,0.1745,1.3256,1.8346,0.5089,V
112,112,0.50397,1.2,2,0.21481,0.33047,0.50397,112,2.2059,0.3,0.14871,0.65268,5,2D1U,2.0,True,0.317,3,True,right,0.0,1.2348,1.8932,0.6584,0.2186,0.727,0.5084,A
113,113,0.50397,0.1,2,0.24785,0.26438,0.61964,113,1.82586,-0.62,-0.31395,0.19002,5,1D2U,1.0,True,0.309,4,False,left,0.0,1.3845,1.5762,0.1917,0.2511,0.7594,0.5083,V
114,114,0.50397,1.2,1,0.38831,0.33047,0.52049,114,1.79281,-0.9,-0.44614,0.04957,5,lapse_rate,1.0,False,0.517,0,False,left,0.0,0.387,0.4377,0.0507,0.9625,1.4712,0.5086,V
115,115,0.50397,1.2,1,0.43788,0.24785,0.50397,115,1.80107,-0.78,-0.38831,0.1074,5,1D3U,2.0,True,0.309,4,False,right,0.0,0.4426,0.5506,0.1081,1.0596,1.5676,0.5081,V
116,116,0.50397,0.1,1,0.43788,0.19828,0.61964,116,2.42898,0.34,0.1735,0.66921,5,3D1U,1.0,True,0.7,2,False,left,0.0,0.4375,1.1124,0.6749,1.7376,2.246,0.5084,V
117,117,0.50397,1.2,1,0.22307,0.23959,0.40483,117,1.47886,-0.78,-0.38831,0.1074,5,1D3U,2.0,True,0.251,4,False,right,0.0,0.2264,0.3352,0.1088,0.7433,1.2516,0.5084,V
118,118,0.50397,0.1,2,0.44614,0.23959,0.60311,118,2.44549,0.3,0.14871,0.65268,5,2D1U,2.0,True,0.11,3,True,right,0.0,1.5678,2.2255,0.6577,0.4506,0.9589,0.5083,A
119,119,0.50397,0.1,1,0.41309,0.31395,0.59485,119,2.77597,0.9,0.44614,0.95011,5,lapse_rate,1.0,True,0.69,0,False,left,0.0,0.4192,1.3774,0.9582,1.9775,2.4854,0.508,A
120,120,0.50397,1.2,2,0.38831,0.43788,0.77661,120,2.77598,0.34,0.1735,0.66921,5,3D1U,2.0,True,0.599,2,False,right,0.0,1.6835,2.3588,0.6753,0.3922,0.9006,0.5083,V
121,121,0.50397,0.1,2,0.2809,0.2809,0.53702,121,1.79281,-0.62,-0.31395,0.19002,5,1D2U,1.0,True,0.275,4,False,left,0.0,1.3304,1.5222,0.1918,0.2811,0.7888,0.5076,V
122,122,0.50397,1.2,2,0.23133,0.40483,0.52049,122,2.28852,0.26,0.13219,0.6279,5,2D1U,1.0,False,0.3,3,False,left,0.0,1.2626,1.8956,0.633,0.2293,0.7378,0.5085,V
123,123,0.50397,0.1,2,0.2809,0.27264,0.57006,123,2.29678,0.34,0.1735,0.66921,5,3D1U,2.0,True,0.135,2,False,right,0.0,1.3655,2.041,0.6755,0.2832,0.7909,0.5077,A
124,124,0.50397,1.2,1,0.38831,0.33873,0.85097,124,2.28853,-0.58,-0.28916,0.20655,5,1D2U,2.0,True,0.209,4,False,right,0.0,0.3901,0.5991,0.2089,1.4566,1.9659,0.5093,A
125,125,0.50397,0.1,2,0.31395,0.39657,0.65268,125,2.81728,0.9,0.44614,0.95011,5,lapse_rate,2.0,True,0.375,0,False,right,0.0,1.4848,2.442,0.9573,0.3176,0.8261,0.5084,V
126,126,0.50397,0.1,2,0.27264,0.2809,0.47918,126,1.64409,-0.78,-0.38831,0.1074,5,1D3U,1.0,True,0.317,4,False,left,0.0,1.2626,1.3714,0.1087,0.2706,0.7788,0.5082,V
127,127,0.50397,1.2,1,0.38004,0.30569,0.47918,127,2.61899,0.9,0.44614,0.95011,5,lapse_rate,1.0,True,0.226,0,False,left,0.0,0.3823,1.3401,0.9578,1.8239,2.3315,0.5076,A
128,128,0.50397,1.2,1,0.23959,0.25612,0.6279,128,2.28026,0.3,0.14871,0.65268,5,3D1U,1.0,True,0.3,3,True,left,0.0,0.2422,0.8991,0.6569,1.5331,2.0414,0.5083,A
129,129,0.50397,0.1,1,0.20655,0.44614,0.80966,129,2.619,0.3,0.14871,0.65268,5,2D1U,2.0,False,0.233,4,True,right,0.0,0.2042,0.862,0.6578,1.6793,2.1877,0.5085,V
130,130,0.50397,1.2,2,0.23133,0.38831,0.66921,130,1.99937,-0.58,-0.28916,0.20655,5,1D2U,1.0,True,0.275,4,False,left,0.0,1.4193,1.6276,0.2082,0.2355,0.7437,0.5082,A
131,131,0.50397,0.1,1,0.28916,0.38004,0.42961,131,1.73497,-0.74,-0.37178,0.13219,5,1D3U,2.0,True,0.158,5,True,right,0.0,0.2926,0.426,0.1334,0.859,1.3671,0.5081,A
132,132,0.50397,1.2,2,0.26438,0.21481,0.82618,132,1.85891,-0.9,-0.44614,0.04957,5,lapse_rate,1.0,True,0.576,0,False,left,0.0,1.6095,1.6593,0.0499,0.2683,0.7765,0.5082,V
133,133,0.50397,1.2,1,0.27264,0.39657,0.65268,133,2.49507,0.34,0.1735,0.66921,5,2D1U,2.0,False,0.276,4,False,right,0.0,0.2773,0.9523,0.675,1.6105,2.1186,0.5081,V
134,134,0.50397,0.1,1,0.24785,0.42961,0.8014,134,2.63551,0.3,0.14871,0.65268,5,3D1U,1.0,True,0.233,3,True,left,0.0,0.2472,0.9048,0.6576,1.7133,2.2229,0.5097,A
135,135,0.50397,1.2,2,0.38831,0.33047,0.41309,135,1.86717,-0.54,-0.27264,0.23133,5,1D2U,1.0,True,0.243,4,False,left,0.0,1.3163,1.551,0.2348,0.3912,0.8995,0.5083,V
136,136,0.50397,0.1,1,0.40483,0.30569,0.67747,136,2.02415,-0.74,-0.37178,0.13219,5,1D3U,2.0,True,0.376,5,True,right,0.0,0.4097,0.5438,0.1341,1.2268,1.7351,0.5083,V
137,137,0.50397,0.1,2,0.22307,0.38831,0.69399,137,1.85891,-0.9,-0.44614,0.04957,5,lapse_rate,1.0,True,0.209,0,False,left,0.0,1.4304,1.4803,0.0498,0.2212,0.7301,0.5089,V
138,138,0.50397,1.2,1,0.41309,0.28916,0.55354,138,1.99109,-0.54,-0.27264,0.23133,5,1D2U,2.0,True,0.166,4,False,right,0.0,0.4181,0.6518,0.2338,1.2105,1.7189,0.5084,V
139,139,0.50397,0.1,1,0.23133,0.41309,0.54528,139,2.34635,0.3,0.14871,0.65268,5,3D1U,1.0,True,0.125,3,True,left,0.0,0.2365,0.895,0.6585,1.4453,1.9527,0.5074,A
140,140,0.50397,1.2,2,0.2809,0.37178,0.6279,140,2.47854,0.38,0.19002,0.69399,5,2D1U,2.0,True,0.2,4,False,right,0.0,1.4233,2.1236,0.7003,0.2811,0.7899,0.5088,V
141,141,0.50397,0.1,2,0.25612,0.39657,0.44614,141,1.73499,-0.74,-0.37178,0.13219,5,1D3U,1.0,True,0.293,5,True,left,0.0,1.2129,1.3462,0.1333,0.2547,0.7635,0.5087,V
142,142,0.50397,1.2,2,0.38004,0.38831,0.41309,142,1.83412,-0.7,-0.347,0.14871,5,1D3U,1.0,True,0.25,5,False,left,0.0,1.3066,1.4566,0.15,0.3816,0.89,0.5084,A
143,143,0.50397,0.1,1,0.26438,0.42961,0.86749,143,2.69335,0.26,0.13219,0.6279,5,3D1U,1.0,True,0.225,3,False,left,0.0,0.2675,0.9012,0.6337,1.7758,2.2846,0.5088,A
144,144,0.50397,1.2,1,0.42961,0.23959,0.85097,144,2.65204,0.26,0.13219,0.6279,5,3D1U,1.0,True,0.625,3,False,left,0.0,0.4322,1.0654,0.6332,1.9251,2.433,0.5078,V
145,145,0.50397,0.1,2,0.35526,0.36352,0.72704,145,2.64378,0.38,0.19002,0.69399,5,2D1U,2.0,True,0.368,4,False,right,0.0,1.5963,2.2961,0.6999,0.3549,0.8629,0.508,V
146,146,0.50397,1.2,2,0.39657,0.30569,0.52049,146,1.97457,-0.5,-0.24785,0.24785,5,1D2U,1.0,True,0.233,4,False,left,0.0,1.4318,1.6819,0.25,0.3986,0.9071,0.5085,A
147,147,0.50397,0.1,1,0.40483,0.39657,0.40483,147,1.85891,-0.7,-0.347,0.14871,5,1D3U,2.0,True,0.326,5,False,right,0.0,0.4086,0.5585,0.1499,0.9669,1.4747,0.5078,V
148,148,0.50397,1.2,1,0.40483,0.28916,0.42961,148,2.29678,0.34,0.1735,0.66921,5,2D1U,2.0,False,0.258,5,True,right,0.0,0.4062,1.0812,0.6749,1.5146,2.0225,0.5079,A
149,149,0.50397,0.1,2,0.44614,0.39657,0.60311,149,2.64378,0.38,0.19002,0.69399,5,2D1U,2.0,True,0.192,6,True,right,0.0,1.5637,2.2637,0.7,0.447,0.9558,0.5089,A
150,150,0.50397,1.2,1,0.26438,0.40483,0.71052,150,2.13155,-0.5,-0.24785,0.24785,5,1D2U,2.0,True,0.275,4,False,right,0.0,0.2678,0.5181,0.2504,1.2352,1.7429,0.5076,V
151,151,0.50397,0.1,2,0.23133,0.40483,0.67747,151,2.4455,0.26,0.13219,0.6279,5,3D1U,2.0,True,0.325,3,False,right,0.0,1.422,2.0553,0.6333,0.2309,0.739,0.5081,V
152,152,0.50397,1.2,1,0.26438,0.41309,0.42961,152,1.88369,-0.46,-0.23133,0.27264,5,1D2U,2.0,True,0.367,4,False,right,0.0,0.2647,0.5404,0.2757,0.9735,1.4812,0.5077,A
153,153,0.50397,0.1,1,0.33047,0.40483,0.66094,153,2.5942,0.38,0.19002,0.69399,5,2D1U,1.0,True,1.209,6,True,left,0.0,0.3356,1.0356,0.7001,1.7018,2.2104,0.5086,V
154,154,0.50397,1.2,1,0.37178,0.42135,0.43788,154,1.88369,-0.7,-0.347,0.14871,5,1D3U,2.0,True,0.194,5,False,right,0.0,0.3728,0.5228,0.15,0.9643,1.4727,0.5085,A
155,155,0.50397,0.1,1,0.22307,0.44614,0.41309,155,2.19764,0.22,0.1074,0.61137,5,3D1U,2.0,False,1.275,3,False,right,0.0,0.2206,0.8361,0.6155,1.2535,1.7619,0.5084,A
156,156,0.50397,1.2,2,0.37178,0.36352,0.5618,156,2.07371,-0.46,-0.23133,0.27264,5,1D2U,2.0,False,0.892,4,False,right,0.0,1.4454,1.7207,0.2753,0.3701,0.8782,0.508,A
157,157,0.50397,0.1,2,0.25612,0.42961,0.61137,157,2.47028,0.34,0.1735,0.66921,5,2D1U,2.0,True,0.276,7,True,right,0.0,1.3786,2.0541,0.6755,0.254,0.7626,0.5087,V
158,158,0.50397,1.2,2,0.26438,0.42961,0.77661,158,2.14807,-0.66,-0.33047,0.1735,5,1D3U,2.0,False,0.432,5,False,right,0.0,1.5546,1.7297,0.1752,0.2631,0.7715,0.5083,V
159,159,0.50397,0.1,2,0.44614,0.2809,0.76835,159,2.62726,0.26,0.13219,0.6279,5,3D1U,2.0,True,0.25,4,True,right,0.0,1.7349,2.3693,0.6344,0.4523,0.96,0.5077,V
160,160,0.50397,1.2,1,0.24785,0.31395,0.77661,160,2.09023,-0.5,-0.24785,0.24785,5,1D2U,2.0,True,0.3,5,True,right,0.0,0.2522,0.5024,0.2502,1.2862,1.7942,0.508,A
161,161,0.50397,0.1,2,0.24785,0.28916,0.71878,161,2.42897,0.34,0.1735,0.66921,5,2D1U,2.0,True,0.224,7,True,right,0.0,1.4851,2.16,0.6749,0.2525,0.7605,0.508,A
162,162,0.50397,1.2,2,0.347,0.20655,0.71052,162,1.91675,-0.7,-0.347,0.14871,5,1D3U,1.0,True,0.318,6,True,left,0.0,1.576,1.7258,0.1499,0.3509,0.8591,0.5082,A
163,163,0.50397,0.1,2,0.35526,0.38831,0.6279,163,2.12329,-0.5,-0.24785,0.24785,5,1D2U,1.0,True,0.251,5,True,left,0.0,1.4986,1.7491,0.2506,0.3567,0.8651,0.5084,V
164,164,0.50397,1.2,2,0.22307,0.20655,0.71052,164,2.27201,0.26,0.13219,0.6279,5,3D1U,2.0,True,0.209,4,True,right,0.0,1.4475,2.0808,0.6333,0.2222,0.7308,0.5086,A
165,165,0.50397,0.1,1,0.39657,0.44614,0.65268,165,2.62726,0.26,0.13219,0.6279,5,3D1U,2.0,False,0.233,4,True,right,0.0,0.3985,1.0328,0.6343,1.6907,2.1992,0.5085,A
166,166,0.50397,1.2,2,0.37178,0.32221,0.68573,166,2.53637,0.3,0.14871,0.65268,5,2D1U,1.0,False,0.417,7,False,left,0.0,1.5771,2.2355,0.6584,0.3771,0.8848,0.5077,A
167,167,0.50397,0.1,2,0.42961,0.33873,0.54528,167,1.9663,-0.7,-0.347,0.14871,5,1D3U,1.0,True,0.25,6,True,left,0.0,1.4914,1.6412,0.1498,0.4334,0.9415,0.5081,V
168,168,0.50397,1.2,2,0.33873,0.23959,0.4544,168,1.80933,-0.46,-0.23133,0.27264,5,1D2U,1.0,True,0.342,6,True,left,0.0,1.304,1.5784,0.2744,0.3379,0.8459,0.508,V
169,169,0.50397,0.1,2,0.38004,0.24785,0.75182,169,2.55289,0.34,0.1735,0.66921,5,2D1U,2.0,True,0.11,8,True,right,0.0,1.645,2.32,0.6749,0.3783,0.8873,0.5091,A
170,170,0.50397,1.2,1,0.37178,0.39657,0.46266,170,2.40419,0.34,0.1735,0.66921,5,2D1U,1.0,True,0.353,8,True,left,0.0,0.3708,1.0469,0.6761,1.5134,2.0216,0.5081,A
171,171,0.50397,0.1,1,0.43788,0.20655,0.41309,171,2.21417,0.3,0.14871,0.65268,5,3D1U,1.0,True,0.359,4,False,left,0.0,0.4367,1.0943,0.6576,1.5119,2.0209,0.509,V
172,172,0.50397,1.2,1,0.30569,0.23959,0.8014,172,2.50333,0.3,0.14871,0.65268,5,3D1U,1.0,True,0.459,4,False,left,0.0,0.3102,0.9687,0.6585,1.7768,2.2856,0.5088,V
173,173,0.50397,0.1,1,0.24785,0.25612,0.57006,173,2.23068,0.3,0.14871,0.65268,5,2D1U,1.0,True,0.95,9,True,left,0.0,0.2536,0.9121,0.6585,1.4866,1.9953,0.5086,A
174,174,0.50397,1.2,2,0.2809,0.42961,0.43788,174,1.925,-0.46,-0.23133,0.27264,5,1D2U,1.0,True,0.464,6,True,left,0.0,1.2304,1.5061,0.2757,0.281,0.7885,0.5076,V
175,175,0.50397,0.1,2,0.30569,0.35526,0.8014,175,2.11503,-0.7,-0.347,0.14871,5,1D3U,1.0,True,0.225,6,True,left,0.0,1.6213,1.7716,0.1503,0.305,0.8136,0.5086,A
176,176,0.50397,1.2,2,0.29743,0.44614,0.46266,176,2.36288,0.3,0.14871,0.65268,5,3D1U,2.0,True,0.109,4,False,right,0.0,1.2735,1.9319,0.6584,0.2987,0.8077,0.5089,A
177,177,0.50397,0.1,2,0.38004,0.21481,0.69399,177,2.42071,0.26,0.13219,0.6279,5,3D1U,1.0,False,0.301,5,True,left,0.0,1.59,2.2235,0.6335,0.3824,0.8905,0.5081,V
178,178,0.50397,1.2,1,0.23959,0.39657,0.8427,178,2.27199,-0.42,-0.20655,0.28916,5,1D2U,1.0,False,0.284,6,False,left,0.0,0.2433,0.5346,0.2913,1.3852,1.8937,0.5085,V
179,179,0.50397,0.1,2,0.37178,0.39657,0.70225,179,2.62725,0.3,0.14871,0.65268,5,2D1U,2.0,True,0.109,9,True,right,0.0,1.5944,2.2521,0.6577,0.3778,0.886,0.5083,V
180,180,0.50397,1.2,1,0.29743,0.41309,0.5618,180,1.94979,-0.66,-0.33047,0.1735,5,1D3U,1.0,False,0.309,7,True,left,0.0,0.3022,0.4769,0.1747,1.0444,1.5523,0.5079,V
181,181,0.50397,0.1,2,0.24785,0.25612,0.85097,181,2.00762,-0.7,-0.347,0.14871,5,1D3U,1.0,True,0.316,8,True,left,0.0,1.6177,1.7669,0.1492,0.2507,0.7592,0.5085,A
182,182,0.50397,1.2,1,0.27264,0.44614,0.8427,182,2.21416,-0.7,-0.347,0.14871,5,1D3U,1.0,False,0.967,8,True,left,0.0,0.2773,0.4274,0.1501,1.2779,1.7862,0.5083,V
183,183,0.50397,0.1,2,0.41309,0.27264,0.51223,183,1.97457,-0.46,-0.23133,0.27264,5,1D2U,1.0,True,0.269,7,True,left,0.0,1.444,1.7192,0.2752,0.4177,0.9266,0.5089,A
184,184,0.50397,1.2,1,0.27264,0.347,0.44614,184,2.22243,0.3,0.14871,0.65268,5,3D1U,1.0,True,0.524,6,True,left,0.0,0.2731,0.9314,0.6583,1.3815,1.8898,0.5083,A
185,185,0.50397,0.1,2,0.24785,0.23133,0.46266,185,2.07371,0.26,0.13219,0.6279,5,2D1U,2.0,True,0.508,9,False,right,0.0,1.2221,1.8553,0.6332,0.2468,0.7557,0.5089,V
186,186,0.50397,1.2,1,0.23959,0.38004,0.78487,186,2.04066,-0.74,-0.37178,0.13219,5,1D3U,2.0,True,0.115,8,False,right,0.0,0.238,0.3713,0.1334,1.1631,1.6713,0.5082,V
187,187,0.50397,0.1,2,0.41309,0.24785,0.79313,187,2.09023,-0.74,-0.37178,0.13219,5,1D3U,1.0,True,0.268,8,False,left,0.0,1.7264,1.8606,0.1342,0.4177,0.9261,0.5084,A
188,188,0.50397,1.2,2,0.29743,0.36352,0.76835,188,2.20591,-0.46,-0.23133,0.27264,5,1D2U,1.0,True,0.508,7,True,left,0.0,1.5855,1.8599,0.2744,0.3022,0.8112,0.509,A
189,189,0.50397,0.1,2,0.25612,0.21481,0.52876,189,2.13156,0.26,0.13219,0.6279,5,2D1U,2.0,True,0.3,9,False,right,0.0,1.2961,1.9283,0.6322,0.2538,0.762,0.5083,A
190,190,0.50397,1.2,1,0.41309,0.37178,0.5618,190,2.50332,0.3,0.14871,0.65268,5,3D1U,1.0,True,0.484,6,True,left,0.0,0.4189,1.0781,0.6592,1.6444,2.1525,0.5081,A
191,191,0.50397,0.1,1,0.25612,0.33047,0.60311,191,2.34635,0.3,0.14871,0.65268,5,3D1U,1.0,True,0.167,6,True,left,0.0,0.2562,0.9149,0.6588,1.5224,2.0315,0.5091,V
192,192,0.50397,1.2,2,0.19828,0.23133,0.85923,192,1.925,-0.74,-0.37178,0.13219,5,1D3U,1.0,True,0.475,8,False,left,0.0,1.5748,1.7088,0.134,0.2,0.7081,0.5081,A
193,193,0.50397,0.1,2,0.33047,0.39657,0.87575,193,2.25547,-0.7,-0.347,0.14871,5,1D3U,1.0,True,0.492,9,True,left,0.0,1.7235,1.8735,0.15,0.3312,0.8396,0.5083,V
194,194,0.50397,1.2,2,0.35526,0.37178,0.78487,194,2.64378,0.26,0.13219,0.6279,5,3D1U,2.0,True,0.152,7,True,right,0.0,1.6553,2.2877,0.6324,0.3553,0.8626,0.5072,A
195,195,0.50397,0.1,1,0.28916,0.43788,0.67747,195,2.19764,-0.42,-0.20655,0.28916,5,1D2U,2.0,True,0.109,8,True,right,0.0,0.2913,0.5838,0.2925,1.2669,1.7749,0.5079,A
196,196,0.50397,1.2,2,0.33873,0.32221,0.42961,196,2.20589,0.22,0.1074,0.61137,5,2D1U,1.0,False,0.217,9,False,left,0.0,1.2809,1.8989,0.6181,0.3392,0.848,0.5089,V
197,197,0.50397,0.1,1,0.29743,0.27264,0.42961,197,2.13155,0.26,0.13219,0.6279,5,3D1U,2.0,False,0.217,7,True,right,0.0,0.303,0.9368,0.6338,1.3692,1.8774,0.5081,A
198,198,0.50397,1.2,1,0.33873,0.20655,0.55354,198,2.23069,0.26,0.13219,0.6279,5,2D1U,2.0,False,0.317,10,True,right,0.0,0.3433,0.9769,0.6336,1.5359,2.043,0.5071,A
199,199,0.50397,0.1,2,0.30569,0.27264,0.50397,199,1.73498,-0.7,-0.347,0.14871,5,1D3U,1.0,True,0.35,9,True,left,0.0,1.3275,1.478,0.1505,0.311,0.8194,0.5084,V
200,200,0.50397,1.2,2,0.24785,0.38831,0.63616,200,2.06545,-0.42,-0.20655,0.28916,5,1D2U,1.0,True,0.19,8,True,left,0.0,1.3964,1.6877,0.2913,0.2462,0.7548,0.5086,A
201,201,0.50397,0.1,1,0.19828,0.20655,0.87575,201,2.43723,0.3,0.14871,0.65268,5,3D1U,2.0,False,0.301,8,True,right,0.0,0.2017,0.8598,0.6581,1.743,2.2519,0.509,V
202,202,0.50397,1.2,1,0.37178,0.22307,0.48745,202,1.90022,-0.38,-0.19002,0.31395,5,1D2U,1.0,False,0.426,8,False,left,0.0,0.3776,0.6949,0.3173,1.1862,1.6949,0.5087,A
203,203,0.50397,0.1,1,0.28916,0.32221,0.7353,203,1.99935,-0.7,-0.347,0.14871,5,1D3U,2.0,True,0.167,9,True,right,0.0,0.2924,0.4425,0.1501,1.184,1.6927,0.5088,A
204,204,0.50397,1.2,1,0.31395,0.33873,0.43788,204,2.26374,0.34,0.1735,0.66921,5,3D1U,2.0,False,0.217,8,False,right,0.0,0.3172,0.9914,0.6742,1.4331,1.9417,0.5086,A
205,205,0.50397,0.1,2,0.2809,0.42135,0.4544,205,2.3133,0.3,0.14871,0.65268,5,2D1U,2.0,True,0.401,10,False,right,0.0,1.2497,1.9075,0.6578,0.2831,0.7921,0.5089,V
206,206,0.50397,1.2,2,0.23959,0.347,0.7353,206,2.11502,-0.42,-0.20655,0.28916,5,1D2U,1.0,True,0.466,9,True,left,0.0,1.4885,1.7805,0.292,0.2391,0.7472,0.5082,V
207,207,0.50397,0.1,1,0.23959,0.31395,0.47092,207,1.70193,-0.66,-0.33047,0.1735,5,1D3U,2.0,True,0.233,9,False,right,0.0,0.2407,0.4162,0.1756,0.8906,1.3995,0.5089,V
208,208,0.50397,1.2,1,0.23959,0.31395,0.40483,208,1.63584,-0.66,-0.33047,0.1735,5,1D3U,2.0,True,0.2,9,False,right,0.0,0.2382,0.4123,0.1741,0.8206,1.3289,0.5084,V
209,209,0.50397,0.1,2,0.39657,0.30569,0.47092,209,1.96631,-0.42,-0.20655,0.28916,5,1D2U,1.0,True,0.225,9,True,left,0.0,1.383,1.674,0.2911,0.399,0.9072,0.5082,V
210,210,0.50397,1.2,1,0.31395,0.44614,0.66094,210,2.61899,0.38,0.19002,0.69399,5,3D1U,2.0,False,0.201,8,False,right,0.0,0.3168,1.0167,0.6999,1.6826,2.1915,0.5089,V
211,211,0.50397,0.1,1,0.41309,0.31395,0.57833,211,2.46202,0.3,0.14871,0.65268,5,2D1U,1.0,True,0.549,10,False,left,0.0,0.4143,1.0734,0.6591,1.6556,2.1654,0.5098,V
212,212,0.50397,1.2,2,0.24785,0.32221,0.58659,212,2.37114,0.42,0.20655,0.71052,5,3D1U,2.0,True,0.167,8,False,right,0.0,1.3462,2.0629,0.7166,0.2458,0.7543,0.5085,V
213,213,0.50397,0.1,2,0.44614,0.20655,0.77661,213,2.24722,-0.38,-0.19002,0.31395,5,1D2U,1.0,True,0.268,10,True,left,0.0,1.7413,2.0587,0.3174,0.4505,0.9585,0.508,A
214,214,0.50397,1.2,2,0.23959,0.31395,0.77661,214,2.46202,0.26,0.13219,0.6279,5,2D1U,2.0,True,0.192,11,True,right,0.0,1.5338,2.1672,0.6334,0.2429,0.7513,0.5083,A
215,215,0.50397,0.1,1,0.28916,0.42135,0.61137,215,1.99935,-0.66,-0.33047,0.1735,5,1D3U,2.0,True,0.111,9,False,right,0.0,0.2945,0.4689,0.1744,1.0853,1.5948,0.5095,V
216,216,0.50397,1.2,2,0.42135,0.32221,0.74356,216,2.18111,-0.62,-0.31395,0.19002,5,1D3U,1.0,True,0.242,9,False,left,0.0,1.6819,1.8746,0.1928,0.4235,0.9328,0.5092,V
217,217,0.50397,0.1,2,0.29743,0.20655,0.59485,217,1.79282,-0.62,-0.31395,0.19002,5,1D3U,1.0,True,0.341,9,False,left,0.0,1.4061,1.5971,0.1909,0.2973,0.8047,0.5075,V
218,218,0.50397,1.2,2,0.2809,0.43788,0.46266,218,2.39593,0.42,0.20655,0.71052,5,3D1U,2.0,True,0.2,8,False,right,0.0,1.2543,1.9707,0.7165,0.2788,0.7876,0.5088,V
219,219,0.50397,0.1,2,0.38831,0.2809,0.74356,219,2.23069,-0.38,-0.19002,0.31395,5,1D2U,1.0,True,0.216,10,True,left,0.0,1.6446,1.9623,0.3177,0.3869,0.8948,0.5078,V
220,220,0.50397,1.2,1,0.42135,0.28916,0.7353,220,2.28025,-0.34,-0.1735,0.33047,5,1D2U,2.0,True,0.167,10,False,right,0.0,0.4261,0.7603,0.3342,1.502,2.0103,0.5083,V
221,221,0.50397,0.1,2,0.23959,0.32221,0.82618,221,2.51985,0.26,0.13219,0.6279,5,2D1U,1.0,False,0.226,11,True,left,0.0,1.5835,2.2161,0.6326,0.2408,0.75,0.5092,A
222,222,0.50397,1.2,1,0.31395,0.35526,0.83444,222,2.19764,-0.62,-0.31395,0.19002,5,1D3U,2.0,True,0.201,9,False,right,0.0,0.3155,0.5062,0.1907,1.349,1.8573,0.5084,V
223,223,0.50397,0.1,2,0.28916,0.31395,0.59485,223,2.35461,0.3,0.14871,0.65268,5,2D1U,2.0,True,0.116,12,True,right,0.0,1.4013,2.0592,0.6579,0.2922,0.8014,0.5093,A
224,224,0.50397,1.2,1,0.28916,0.23959,0.44614,224,2.13154,0.3,0.14871,0.65268,5,2D1U,2.0,False,0.192,12,True,right,0.0,0.2948,0.9535,0.6587,1.4034,1.911,0.5075,V
225,225,0.50397,0.1,2,0.23133,0.21481,0.43788,225,1.71846,-0.34,-0.1735,0.33047,5,1D2U,1.0,True,0.238,10,False,left,0.0,1.1797,1.5128,0.333,0.2302,0.739,0.5088,A
226,226,0.50397,1.2,1,0.31395,0.25612,0.70225,226,2.48681,0.42,0.20655,0.71052,5,3D1U,1.0,True,0.209,8,False,left,0.0,0.3177,1.0349,0.7172,1.7427,2.2512,0.5086,V
227,227,0.50397,0.1,1,0.29743,0.33047,0.76009,227,2.58595,0.38,0.19002,0.69399,5,3D1U,1.0,True,0.112,9,True,left,0.0,0.2958,0.9959,0.7001,1.7629,2.2714,0.5085,V
228,228,0.50397,1.2,1,0.21481,0.20655,0.58659,228,2.18113,0.34,0.1735,0.66921,5,2D1U,2.0,False,0.251,12,False,right,0.0,0.212,0.8881,0.6762,1.4793,1.9879,0.5086,V
229,229,0.50397,0.1,1,0.32221,0.38831,0.52876,229,2.09025,-0.3,-0.14871,0.347,5,1D2U,2.0,True,0.111,10,False,right,0.0,0.3235,0.6731,0.3496,1.2073,1.7146,0.5073,V
230,230,0.50397,1.2,1,0.31395,0.24785,0.88401,230,2.15633,-0.58,-0.28916,0.20655,5,1D3U,2.0,True,0.111,9,False,right,0.0,0.3139,0.5238,0.2099,1.4142,1.9233,0.5091,V
231,231,0.50397,0.1,2,0.31395,0.38004,0.85097,231,2.25548,-0.58,-0.28916,0.20655,5,1D3U,1.0,True,0.209,9,False,left,0.0,1.6812,1.8907,0.2095,0.3154,0.823,0.5076,A
232,232,0.50397,1.2,2,0.22307,0.27264,0.67747,232,2.37114,0.38,0.19002,0.69399,5,3D1U,2.0,True,0.159,9,True,right,0.0,1.4138,2.114,0.7002,0.2228,0.7308,0.508,A
233,233,0.50397,0.1,1,0.38831,0.41309,0.6279,233,2.13982,-0.58,-0.28916,0.20655,5,1D3U,2.0,True,0.15,9,False,right,0.0,0.3944,0.6027,0.2083,1.2364,1.7443,0.5078,A
234,234,0.50397,1.2,1,0.38004,0.24785,0.54528,234,2.02414,-0.3,-0.14871,0.347,5,1D2U,2.0,True,0.206,10,False,right,0.0,0.3786,0.73,0.3514,1.279,1.788,0.509,A
235,235,0.50397,0.1,2,0.35526,0.38004,0.81792,235,2.75118,0.38,0.19002,0.69399,5,2D1U,2.0,True,0.5,12,False,right,0.0,1.6947,2.3947,0.7,0.3613,0.8696,0.5083,V
236,236,0.50397,1.2,2,0.37178,0.39657,0.61964,236,2.58595,0.38,0.19002,0.69399,5,2D1U,1.0,False,0.55,12,False,left,0.0,1.5094,2.2108,0.7014,0.3769,0.8855,0.5086,V
237,237,0.50397,0.1,2,0.43788,0.27264,0.79313,237,2.70161,0.38,0.19002,0.69399,5,3D1U,2.0,True,0.118,9,True,right,0.0,1.7471,2.4476,0.7005,0.4391,0.9474,0.5083,V
238,238,0.50397,1.2,2,0.37178,0.22307,0.47092,238,2.28026,0.42,0.20655,0.71052,5,2D1U,2.0,True,0.117,12,False,right,0.0,1.3535,2.0705,0.717,0.3697,0.8784,0.5087,A
239,239,0.50397,0.1,1,0.38831,0.23133,0.71878,239,2.07372,-0.54,-0.27264,0.23133,5,1D3U,2.0,True,0.15,9,False,right,0.0,0.3946,0.6281,0.2335,1.3529,1.8613,0.5084,A
240,240,0.50397,1.2,2,0.40483,0.33873,0.75182,240,2.37113,-0.26,-0.13219,0.37178,5,1D2U,2.0,False,0.326,10,False,right,0.0,1.672,2.0465,0.3744,0.4043,0.9134,0.5091,V
241,241,0.50397,0.1,2,0.347,0.37178,0.69399,241,2.26374,-0.3,-0.14871,0.347,5,1D2U,2.0,False,0.7,11,True,right,0.0,1.5595,1.9094,0.3499,0.3511,0.8593,0.5082,A
242,242,0.50397,1.2,1,0.33873,0.38831,0.85097,242,2.7925,0.42,0.20655,0.71052,5,2D1U,1.0,True,0.284,12,False,left,0.0,0.343,1.0606,0.7175,1.9186,2.4276,0.509,A
243,243,0.50397,0.1,1,0.31395,0.40483,0.86749,243,2.32157,-0.54,-0.27264,0.23133,5,1D3U,2.0,True,0.109,9,False,right,0.0,0.3179,0.5508,0.2328,1.426,1.9347,0.5087,A
244,244,0.50397,1.2,2,0.33873,0.31395,0.88401,244,2.37113,-0.34,-0.1735,0.33047,5,1D2U,1.0,True,0.234,11,False,left,0.0,1.7381,2.0709,0.3328,0.3381,0.8461,0.5079,A
245,245,0.50397,0.1,2,0.20655,0.33873,0.85097,245,2.56943,0.34,0.1735,0.66921,5,3D1U,1.0,False,0.55,9,False,left,0.0,1.5738,2.249,0.6752,0.2071,0.7154,0.5084,A
246,246,0.50397,1.2,2,0.44614,0.32221,0.83444,246,2.80075,0.38,0.19002,0.69399,5,2D1U,2.0,True,0.107,13,True,right,0.0,1.7963,2.496,0.6996,0.4458,0.9544,0.5085,V
247,247,0.50397,0.1,1,0.30569,0.26438,0.66921,247,1.97458,-0.54,-0.27264,0.23133,5,1D3U,2.0,True,0.21,9,False,right,0.0,0.3101,0.5433,0.2331,1.2183,1.7274,0.5091,V
248,248,0.50397,1.2,2,0.23133,0.29743,0.61137,248,1.97457,-0.34,-0.1735,0.33047,5,1D2U,1.0,True,0.276,11,False,left,0.0,1.358,1.6914,0.3334,0.2322,0.7409,0.5087,A
249,249,0.50397,0.1,2,0.22307,0.20655,0.61137,249,1.89196,-0.3,-0.14871,0.347,5,1D2U,1.0,True,0.301,12,True,left,0.0,1.3544,1.7046,0.3502,0.2294,0.7378,0.5084,A
250,250,0.50397,1.2,2,0.32221,0.44614,0.74356,250,2.70987,0.38,0.19002,0.69399,5,3D1U,1.0,False,0.342,10,True,left,0.0,1.5818,2.2828,0.7011,0.3242,0.8323,0.5081,A
251,251,0.50397,0.1,2,0.23959,0.29743,0.50397,251,2.23895,0.38,0.19002,0.69399,5,2D1U,2.0,True,0.108,13,True,right,0.0,1.2541,1.9546,0.7004,0.2379,0.7461,0.5082,A
252,252,0.50397,1.2,1,0.31395,0.28916,0.60311,252,2.42071,0.42,0.20655,0.71052,5,3D1U,1.0,True,0.242,10,False,left,0.0,0.3176,1.0335,0.7159,1.6423,2.1509,0.5087,A
253,253,0.50397,0.1,2,0.36352,0.29743,0.58659,253,1.99936,-0.5,-0.24785,0.24785,5,1D3U,1.0,True,0.234,9,False,left,0.0,1.4699,1.7199,0.2499,0.3696,0.8791,0.5095,V
254,254,0.50397,1.2,2,0.20655,0.38831,0.48745,254,2.25549,0.34,0.1735,0.66921,5,2D1U,2.0,True,0.106,13,False,right,0.0,1.2045,1.8796,0.6751,0.2043,0.7136,0.5093,A
255,255,0.50397,0.1,2,0.43788,0.28916,0.71878,255,2.619,0.34,0.1735,0.66921,5,2D1U,1.0,False,0.233,13,False,left,0.0,1.6734,2.3476,0.6742,0.4395,0.9482,0.5087,V
256,256,0.50397,1.2,2,0.41309,0.40483,0.8014,256,2.47029,-0.3,-0.14871,0.347,5,1D2U,2.0,False,0.276,12,True,right,0.0,1.7331,2.0831,0.35,0.416,0.9249,0.5089,V
257,257,0.50397,0.1,1,0.27264,0.37178,0.8014,257,2.19764,-0.5,-0.24785,0.24785,5,1D3U,2.0,True,0.111,9,False,right,0.0,0.277,0.525,0.248,1.3342,1.8424,0.5083,A
258,258,0.50397,1.2,2,0.39657,0.26438,0.57833,258,2.43724,0.38,0.19002,0.69399,5,2D1U,1.0,False,0.241,14,True,left,0.0,1.49,2.1902,0.7001,0.3982,0.9071,0.5088,V
259,259,0.50397,0.1,1,0.43788,0.26438,0.42961,259,1.96631,-0.34,-0.1735,0.33047,5,1D2U,2.0,True,0.258,13,True,right,0.0,0.4443,0.7773,0.333,1.211,1.7191,0.5081,A
260,260,0.50397,1.2,1,0.2809,0.43788,0.71878,260,2.65205,0.42,0.20655,0.71052,5,3D1U,1.0,True,0.191,10,False,left,0.0,0.2842,1.0015,0.7173,1.7264,2.2342,0.5078,V
261,261,0.50397,0.1,1,0.35526,0.21481,0.85923,261,2.64379,0.42,0.20655,0.71052,5,3D1U,1.0,True,0.258,10,False,left,0.0,0.3545,1.0714,0.717,1.9376,2.4467,0.5091,V
262,262,0.50397,1.2,1,0.25612,0.39657,0.53702,262,2.4042,0.42,0.20655,0.71052,5,2D1U,2.0,False,0.367,14,False,right,0.0,0.2589,0.9756,0.7167,1.5172,2.0257,0.5085,V
263,263,0.50397,0.1,2,0.20655,0.27264,0.48745,263,2.1646,0.38,0.19002,0.69399,5,3D1U,2.0,True,0.107,11,True,right,0.0,1.2122,1.913,0.7008,0.212,0.7207,0.5087,A
264,264,0.50397,1.2,1,0.33873,0.22307,0.75182,264,2.14806,-0.34,-0.1735,0.33047,5,1D2U,1.0,False,0.234,13,True,left,0.0,0.3413,0.6739,0.3326,1.4335,1.9414,0.5079,V
265,265,0.50397,0.1,2,0.25612,0.29743,0.57833,265,1.8837,-0.5,-0.24785,0.24785,5,1D3U,2.0,False,0.292,9,False,right,0.0,1.3468,1.5957,0.2489,0.2539,0.7632,0.5093,V
266,266,0.50397,1.2,2,0.37178,0.26438,0.66094,266,2.0324,-0.54,-0.27264,0.23133,5,1D3U,1.0,True,0.267,10,True,left,0.0,1.551,1.7849,0.234,0.3762,0.8868,0.5106,A
267,267,0.50397,0.1,2,0.33047,0.35526,0.55354,267,2.47028,0.46,0.23133,0.72704,5,2D1U,2.0,True,0.106,14,False,right,0.0,1.399,2.1322,0.7332,0.3318,0.8407,0.5089,V
268,268,0.50397,1.2,2,0.29743,0.33873,0.61137,268,1.98283,-0.54,-0.27264,0.23133,5,1D3U,1.0,True,0.19,10,True,left,0.0,1.4205,1.6548,0.2343,0.2954,0.8038,0.5084,A
269,269,0.50397,0.1,2,0.25612,0.23959,0.79313,269,2.4868,0.38,0.19002,0.69399,5,3D1U,2.0,True,0.183,11,True,right,0.0,1.5641,2.2638,0.6997,0.2547,0.7639,0.5092,A
270,270,0.50397,1.2,1,0.24785,0.39657,0.61137,270,2.07371,-0.38,-0.19002,0.31395,5,1D2U,1.0,False,0.268,13,False,left,0.0,0.2474,0.5638,0.3164,1.181,1.6887,0.5077,A
271,271,0.50397,0.1,1,0.35526,0.24785,0.72704,271,2.12328,-0.42,-0.20655,0.28916,5,1D2U,2.0,True,0.226,13,False,right,0.0,0.355,0.6465,0.2915,1.3802,1.8881,0.5079,V
272,272,0.50397,1.2,1,0.43788,0.20655,0.46266,272,2.3381,0.46,0.23133,0.72704,5,2D1U,1.0,True,0.267,14,False,left,0.0,0.4444,1.1768,0.7324,1.6439,2.1516,0.5078,V
273,273,0.50397,0.1,2,0.23133,0.26438,0.80966,273,2.0985,-0.42,-0.20655,0.28916,5,1D2U,1.0,True,0.143,13,False,left,0.0,1.5545,1.8466,0.2921,0.2296,0.7378,0.5081,A
274,274,0.50397,1.2,1,0.23133,0.20655,0.71878,274,1.89196,-0.54,-0.27264,0.23133,5,1D3U,2.0,True,0.243,10,True,right,0.0,0.2348,0.4679,0.2331,1.1933,1.7012,0.5078,A
275,275,0.50397,0.1,1,0.27264,0.33873,0.52876,275,2.33809,0.38,0.19002,0.69399,5,3D1U,1.0,True,0.108,11,True,left,0.0,0.2769,0.9749,0.698,1.5082,2.0165,0.5084,A
276,276,0.50397,1.2,2,0.2809,0.39657,0.42135,276,2.31331,0.42,0.20655,0.71052,5,2D1U,2.0,True,0.192,15,True,right,0.0,1.2135,1.9311,0.7175,0.2798,0.7882,0.5084,V
277,277,0.50397,0.1,2,0.44614,0.24785,0.42135,277,1.93326,-0.38,-0.19002,0.31395,5,1D2U,1.0,True,0.251,14,True,left,0.0,1.3842,1.7012,0.317,0.4516,0.9591,0.5075,V
278,278,0.50397,1.2,1,0.22307,0.43788,0.48745,278,2.32158,0.34,0.1735,0.66921,5,3D1U,1.0,True,0.108,11,False,left,0.0,0.2263,0.9015,0.6752,1.3931,1.9014,0.5083,A
279,279,0.50397,0.1,1,0.41309,0.2809,0.4544,279,1.90021,-0.5,-0.24785,0.24785,5,1D3U,2.0,True,0.691,11,True,right,0.0,0.415,0.6656,0.2507,1.1242,1.6324,0.5082,V
280,280,0.50397,1.2,2,0.22307,0.21481,0.60311,280,1.79281,-0.5,-0.24785,0.24785,5,1D3U,1.0,True,0.358,11,True,left,0.0,1.3429,1.5926,0.2498,0.2256,0.7345,0.5088,A
281,281,0.50397,0.1,1,0.2809,0.29743,0.42135,281,2.21417,0.42,0.20655,0.71052,5,2D1U,1.0,True,0.11,15,True,left,0.0,0.2799,0.9966,0.7166,1.4215,1.9298,0.5083,A
282,282,0.50397,1.2,2,0.22307,0.23133,0.66094,282,1.86716,-0.5,-0.24785,0.24785,5,1D3U,1.0,True,0.425,11,True,left,0.0,1.4001,1.6498,0.2496,0.2246,0.7332,0.5086,A
283,283,0.50397,0.1,1,0.22307,0.38004,0.46266,283,2.26373,0.38,0.19002,0.69399,5,2D1U,1.0,True,0.124,15,False,left,0.0,0.2261,0.9269,0.7008,1.3933,1.9021,0.5088,A
284,284,0.50397,1.2,2,0.347,0.26438,0.76009,284,2.18939,-0.38,-0.19002,0.31395,5,1D2U,1.0,True,0.25,14,True,left,0.0,1.6249,1.9411,0.3162,0.3507,0.8579,0.5072,A
285,285,0.50397,0.1,1,0.28916,0.27264,0.72704,285,2.46202,0.34,0.1735,0.66921,5,3D1U,2.0,False,0.409,11,False,right,0.0,0.2867,0.962,0.6753,1.695,2.2038,0.5088,V
286,286,0.50397,1.2,1,0.44614,0.25612,0.5618,286,2.46202,0.38,0.19002,0.69399,5,3D1U,2.0,False,0.108,12,True,right,0.0,0.4473,1.1473,0.7001,1.7143,2.2229,0.5085,A
287,287,0.50397,0.1,1,0.25612,0.44614,0.68573,287,2.58595,0.38,0.19002,0.69399,5,2D1U,2.0,False,0.843,15,False,right,0.0,0.2582,0.9582,0.7,1.6494,2.1581,0.5087,A
288,288,0.50397,1.2,1,0.24785,0.41309,0.8427,288,2.33808,-0.34,-0.1735,0.33047,5,1D2U,1.0,False,0.209,14,False,left,0.0,0.2532,0.5875,0.3343,1.4373,1.9447,0.5073,V
289,289,0.50397,0.1,1,0.30569,0.35526,0.6279,289,2.10677,-0.38,-0.19002,0.31395,5,1D2U,2.0,True,0.106,15,True,right,0.0,0.3104,0.6274,0.317,1.2612,1.7684,0.5072,V
290,290,0.50397,1.2,1,0.22307,0.44614,0.42135,290,1.86717,-0.46,-0.23133,0.27264,5,1D3U,1.0,False,0.226,11,False,left,0.0,0.2219,0.497,0.2751,0.9235,1.4306,0.5071,V
291,291,0.50397,0.1,1,0.40483,0.28916,0.47092,291,2.3794,0.42,0.20655,0.71052,5,3D1U,1.0,True,0.209,12,False,left,0.0,0.4035,1.1207,0.7172,1.5957,2.1041,0.5084,A
292,292,0.50397,1.2,1,0.44614,0.22307,0.59485,292,2.47855,0.42,0.20655,0.71052,5,2D1U,2.0,False,0.191,16,True,right,0.0,0.4523,1.1685,0.7163,1.7686,2.2765,0.5079,V
293,293,0.50397,0.1,2,0.28916,0.31395,0.65268,293,2.47028,0.42,0.20655,0.71052,5,3D1U,2.0,True,0.11,12,False,right,0.0,1.456,2.1732,0.7173,0.2893,0.7975,0.5082,A
294,294,0.50397,1.2,1,0.37178,0.38831,0.78487,294,2.75945,0.42,0.20655,0.71052,5,3D1U,1.0,True,0.151,12,False,left,0.0,0.3783,1.0939,0.7156,1.8859,2.3946,0.5087,V
295,295,0.50397,0.1,2,0.41309,0.37178,0.63616,295,2.23895,-0.38,-0.19002,0.31395,5,1D2U,1.0,True,0.133,15,True,left,0.0,1.5689,1.8856,0.3167,0.4189,0.9272,0.5083,A
296,296,0.50397,1.2,2,0.35526,0.27264,0.82618,296,2.2059,-0.5,-0.24785,0.24785,5,1D3U,1.0,True,0.267,12,True,left,0.0,1.6967,1.9468,0.2501,0.3551,0.8634,0.5084,V
297,297,0.50397,0.1,2,0.21481,0.41309,0.71052,297,2.09024,-0.5,-0.24785,0.24785,5,1D3U,1.0,True,0.224,12,True,left,0.0,1.4426,1.6924,0.2498,0.2178,0.7262,0.5083,A
298,298,0.50397,1.2,1,0.41309,0.39657,0.89228,298,2.93295,0.46,0.23133,0.72704,5,2D1U,2.0,False,0.107,16,False,right,0.0,0.421,1.1543,0.7333,2.0548,2.5635,0.5086,V
299,299,0.50397,0.1,1,0.21481,0.347,0.60311,299,2.42071,0.5,0.24785,0.75182,5,2D1U,2.0,False,1.283,16,False,right,0.0,0.2174,0.9754,0.758,1.5839,2.0929,0.509,V
300,300,0.50397,1.2,2,0.35526,0.22307,0.65268,300,2.42897,0.38,0.19002,0.69399,5,3D1U,2.0,True,0.259,13,True,right,0.0,1.5214,2.2221,0.7007,0.3546,0.8633,0.5087,A
301,301,0.50397,0.1,1,0.41309,0.42135,0.59485,301,2.26373,-0.34,-0.1735,0.33047,5,1D2U,2.0,True,0.566,16,True,right,0.0,0.4134,0.7462,0.3328,1.3457,1.8547,0.509,V
302,302,0.50397,1.2,2,0.42961,0.35526,0.52049,302,2.1398,-0.34,-0.1735,0.33047,5,1D2U,1.0,True,0.343,16,True,left,0.0,1.4666,1.7997,0.333,0.4331,0.9417,0.5086,V
303,303,0.50397,0.1,2,0.31395,0.23959,0.68573,303,1.99109,-0.5,-0.24785,0.24785,5,1D3U,1.0,True,0.343,12,True,left,0.0,1.516,1.7667,0.2507,0.3166,0.8246,0.508,V
304,304,0.50397,1.2,1,0.21481,0.21481,0.68573,304,1.89196,-0.46,-0.23133,0.27264,5,1D3U,2.0,True,0.251,13,True,right,0.0,0.2176,0.4923,0.2747,1.1839,1.6926,0.5088,A
305,305,0.50397,0.1,2,0.23133,0.22307,0.52049,305,2.17285,0.38,0.19002,0.69399,5,3D1U,2.0,True,0.201,13,True,right,0.0,1.2689,1.9681,0.6992,0.2351,0.7442,0.5091,V
306,306,0.50397,1.2,1,0.35526,0.23133,0.68573,306,2.12329,-0.3,-0.14871,0.347,5,1D2U,1.0,False,0.209,16,False,left,0.0,0.3562,0.7067,0.3505,1.3988,1.9069,0.508,A
307,307,0.50397,0.1,1,0.30569,0.22307,0.50397,307,1.86717,-0.34,-0.1735,0.33047,5,1D2U,2.0,True,0.326,17,True,right,0.0,0.3071,0.6401,0.333,1.1485,1.6562,0.5076,V
