Unnamed: 0,standardDur,audNoise,order,preDur,postDur,isiDur,trial_num,totalDur,delta_dur_percents,deltaDurS,testDurS,intensities,current_stair,responses,is_correct,response_rts,stair_num_reversal,stair_is_reversal,response_keys,conflictDur,recordedOnsetVisualTest,recordedOffsetVisualTest,recordedDurVisualTest,recordedOnsetVisualStandard,recordedOffsetVisualStandard,recordedDurVisualStandard,modalityCue,VisualPSE,Column1
0.0,0.50019,0.1,1.0,0.22509,0.29178,0.867,0.0,2.09247,-0.59,-0.29178,0.20841,5.0,lapse_rate,2.0,True,0.307,0.0,False,right,0.2501,0.3188,0.3687,0.0498,1.1855,1.7769,0.5914,A,-0.16,
1.0,0.50019,1.2,1.0,0.23342,0.33346,0.88368,1.0,2.15916,-0.59,-0.29178,0.20841,5.0,1D2U,2.0,True,0.221,0.0,False,right,0.0,0.3214,0.346,0.0246,1.3211,1.6374,0.3163,A,-0.18,
2.0,0.50019,1.2,1.0,0.24176,0.29178,0.5252,2.0,1.76734,-0.59,-0.29178,0.20841,5.0,2D1U,2.0,True,0.291,0.0,False,right,-0.16673,0.3311,0.3562,0.0251,1.0561,1.2056,0.1495,A,-0.18,
3.0,0.50019,1.2,2.0,0.35014,0.4335,0.75863,3.0,2.25087,-0.59,-0.29178,0.20841,5.0,1D2U,1.0,True,0.232,0.0,False,left,0.2501,1.7356,1.7605,0.0249,0.3191,0.8857,0.5666,A,-0.18,
4.0,0.50019,1.2,1.0,0.26677,0.3418,0.40849,4.0,2.46762,0.9,0.45018,0.95037,5.0,lapse_rate,1.0,True,0.114,0.0,False,left,0.0,0.3553,1.1223,0.767,1.6223,1.9388,0.3165,A,-0.18,
5.0,0.50019,0.1,2.0,0.30845,0.20841,0.65859,5.0,1.95908,-0.43,-0.21675,0.28344,5.0,2D1U,1.0,True,0.25,0.0,False,left,-0.16673,1.3742,1.4991,0.1249,0.4657,0.6407,0.175,A,-0.16,
6.0,0.50019,1.2,2.0,0.30012,0.32513,0.88368,6.0,2.21753,-0.59,-0.29178,0.20841,5.0,lapse_rate,2.0,False,0.28,0.0,False,right,0.2501,1.811,1.8357,0.0247,0.2697,0.8359,0.5662,A,-0.18,
7.0,0.50019,0.1,1.0,0.4335,0.22509,0.67526,7.0,2.11748,-0.43,-0.21675,0.28344,5.0,1D2U,2.0,True,0.213,0.0,False,right,0.0,0.5092,0.634,0.1248,1.384,1.7256,0.3416,A,-0.16,
8.0,0.50019,0.1,2.0,0.30845,0.40849,0.6836,8.0,2.18417,-0.43,-0.21675,0.28344,5.0,1D2U,1.0,True,0.11,0.0,False,left,-0.16673,1.4029,1.5276,0.1247,0.4699,0.6444,0.1745,A,-0.16,
9.0,0.50019,0.1,2.0,0.29178,0.24176,0.4335,9.0,1.67564,-0.59,-0.29178,0.20841,5.0,lapse_rate,1.0,True,0.385,0.0,False,left,0.2501,1.3383,1.3884,0.0501,0.2387,0.8304,0.5916,A,-0.16,
10.0,0.50019,1.2,1.0,0.4335,0.30012,0.87534,10.0,2.47596,-0.27,-0.13339,0.36681,5.0,2D1U,2.0,True,0.188,0.0,False,right,0.0,0.5225,0.7057,0.1832,1.6722,1.9891,0.3169,A,-0.18,
11.0,0.50019,1.2,1.0,0.32513,0.20841,0.47519,11.0,1.95076,-0.11,-0.05836,0.44184,5.0,2D1U,1.0,False,0.112,0.0,False,left,-0.16673,0.4137,0.6721,0.2583,1.3224,1.472,0.1496,A,-0.18,
12.0,0.50019,0.1,2.0,0.24176,0.30012,0.76697,12.0,2.01745,-0.59,-0.29178,0.20841,5.0,lapse_rate,1.0,True,0.266,0.0,False,left,0.2501,1.6224,1.6727,0.0503,0.1895,0.7808,0.5913,A,-0.16,
13.0,0.50019,1.2,2.0,0.35847,0.20841,0.81698,13.0,2.25086,-0.27,-0.13339,0.36681,5.0,1D2U,1.0,True,0.216,0.0,False,left,0.0,1.6734,1.8564,0.183,0.4485,0.7651,0.3165,A,-0.18,
14.0,0.50019,1.2,1.0,0.35014,0.32513,0.79198,14.0,2.91781,0.9,0.45018,0.95037,5.0,lapse_rate,1.0,True,0.11,0.0,False,left,-0.16673,0.4428,1.2098,0.767,2.1768,2.3267,0.1499,A,-0.18,
15.0,0.50019,0.1,2.0,0.20841,0.30845,0.58356,15.0,2.04245,-0.11,-0.05836,0.44184,5.0,2D1U,1.0,True,0.247,0.0,False,left,0.2501,1.4068,1.6901,0.2833,0.1567,0.7486,0.592,A,-0.16,
16.0,0.50019,0.1,1.0,0.42517,0.29178,0.80865,16.0,2.3926,-0.27,-0.13339,0.36681,5.0,1D2U,2.0,True,0.166,0.0,False,right,0.0,0.4992,0.7074,0.2082,1.591,1.9324,0.3414,A,-0.16,
17.0,0.50019,1.2,1.0,0.35014,0.21675,0.57522,17.0,1.85071,-0.59,-0.29178,0.20841,5.0,lapse_rate,1.0,False,0.259,0.0,False,left,-0.16673,0.4438,0.4686,0.0248,1.2189,1.3681,0.1492,A,-0.18,
18.0,0.50019,0.1,1.0,0.22509,0.4335,0.42517,18.0,2.02579,-0.11,-0.05836,0.44184,5.0,1D2U,2.0,True,0.167,0.0,False,right,0.2501,0.2964,0.5798,0.2834,0.9544,1.546,0.5917,A,-0.16,
19.0,0.50019,1.2,1.0,0.38348,0.27511,0.41683,19.0,2.10081,0.05,0.02501,0.5252,5.0,2D1U,1.0,True,0.375,0.0,False,left,0.0,0.4782,0.8202,0.342,1.3286,1.6445,0.3159,A,-0.18,
20.0,0.50019,1.2,1.0,0.24176,0.40849,0.5919,20.0,2.26754,0.05,0.02501,0.5252,5.0,2D1U,1.0,True,0.11,0.0,False,left,-0.16673,0.3291,0.6705,0.3414,1.4381,1.5872,0.1492,A,-0.18,
21.0,0.50019,1.2,1.0,0.28344,0.41683,0.63358,21.0,2.04245,-0.59,-0.29178,0.20841,5.0,lapse_rate,2.0,True,0.117,0.0,False,right,0.2501,0.372,0.3971,0.0251,0.9975,1.5636,0.5661,A,-0.18,
22.0,0.50019,1.2,1.0,0.42517,0.37515,0.81698,22.0,2.55933,-0.11,-0.05836,0.44184,5.0,1D2U,1.0,False,0.113,0.0,False,left,0.0,0.5156,0.7735,0.2579,1.6817,1.9985,0.3168,A,-0.18,
23.0,0.50019,0.1,1.0,0.44184,0.40016,0.55021,23.0,2.37592,-0.03,-0.01667,0.48352,5.0,2D1U,1.0,False,0.484,1.0,True,left,-0.16673,0.5131,0.8379,0.3248,1.547,1.7218,0.1749,A,-0.16,
24.0,0.50019,1.2,2.0,0.42517,0.2501,0.85867,24.0,2.24254,-0.59,-0.29178,0.20841,5.0,lapse_rate,1.0,True,0.331,0.0,False,left,0.2501,1.9079,1.9332,0.0253,0.3916,0.958,0.5664,A,-0.18,
25.0,0.50019,0.1,2.0,0.35014,0.30012,0.82532,25.0,2.38426,-0.19,-0.0917,0.40849,5.0,1D2U,1.0,True,0.114,1.0,True,left,0.0,1.6632,1.9132,0.25,0.4211,0.7633,0.3422,A,-0.16,
26.0,0.50019,0.1,1.0,0.29178,0.29178,0.89201,26.0,2.45928,-0.03,-0.01667,0.48352,5.0,2D1U,2.0,True,0.113,1.0,True,right,-0.16673,0.3633,0.6885,0.3251,1.7384,1.9134,0.175,A,-0.16,
27.0,0.50019,1.2,2.0,0.27511,0.31679,0.47519,27.0,1.97577,-0.19,-0.0917,0.40849,5.0,1D2U,1.0,True,0.149,1.0,True,left,0.2501,1.3743,1.5994,0.2251,0.2412,0.808,0.5668,A,-0.18,
28.0,0.50019,1.2,1.0,0.2501,0.30845,0.54188,28.0,2.55099,0.9,0.45018,0.95037,5.0,lapse_rate,1.0,True,0.111,0.0,False,left,0.0,0.337,1.1036,0.7666,1.7369,2.0536,0.3167,A,-0.18,
29.0,0.50019,1.2,2.0,0.33346,0.33346,0.75863,29.0,2.35091,-0.15,-0.07503,0.42517,5.0,1D2U,1.0,True,0.114,2.0,True,left,-0.16673,1.5061,1.7487,0.2426,0.507,0.6566,0.1496,A,-0.18,
30.0,0.50019,1.2,2.0,0.35847,0.37515,0.60023,30.0,2.34257,0.01,0.00834,0.50853,5.0,2D1U,1.0,False,0.184,2.0,True,left,0.2501,1.5862,1.9114,0.3252,0.328,0.8946,0.5666,A,-0.18,
31.0,0.50019,1.2,1.0,0.40849,0.29178,0.45851,31.0,2.60934,0.9,0.45018,0.95037,5.0,lapse_rate,1.0,True,0.149,0.0,False,left,0.0,0.5037,1.2703,0.7666,1.8201,2.1367,0.3166,A,-0.18,
32.0,0.50019,0.1,2.0,0.25843,0.3418,0.72528,32.0,2.25087,-0.15,-0.07503,0.42517,5.0,1D2U,1.0,True,0.116,2.0,True,left,-0.16673,1.3878,1.6544,0.2667,0.4128,0.5876,0.1749,A,-0.16,
33.0,0.50019,0.1,2.0,0.30845,0.31679,0.80031,33.0,2.45094,0.05,0.02501,0.5252,5.0,2D1U,2.0,True,0.191,2.0,False,right,0.2501,1.7262,2.093,0.3667,0.259,0.8513,0.5923,A,-0.16,
34.0,0.50019,1.2,1.0,0.28344,0.35014,0.84199,34.0,2.92613,0.9,0.45018,0.95037,5.0,lapse_rate,1.0,True,0.458,0.0,False,left,0.0,0.373,1.14,0.767,2.0735,2.3897,0.3161,A,-0.18,
35.0,0.50019,1.2,1.0,0.36681,0.26677,0.40849,35.0,1.75067,-0.59,-0.29178,0.20841,5.0,lapse_rate,1.0,False,0.112,0.0,False,left,-0.16673,0.4593,0.4844,0.0251,1.0679,1.2179,0.1501,A,-0.18,
36.0,0.50019,0.1,2.0,0.25843,0.40849,0.64192,36.0,2.25087,-0.11,-0.05836,0.44184,5.0,1D2U,1.0,True,0.114,2.0,False,left,0.2501,1.5127,1.7961,0.2834,0.2045,0.7955,0.591,A,-0.16,
37.0,0.50019,1.2,1.0,0.39182,0.37515,0.65025,37.0,2.44261,0.05,0.02501,0.5252,5.0,2D1U,2.0,False,0.111,2.0,False,right,0.0,0.4864,0.828,0.3416,1.5699,1.8864,0.3166,A,-0.18,
38.0,0.50019,1.2,2.0,0.26677,0.23342,0.88368,38.0,2.42594,0.09,0.04168,0.54188,5.0,2D1U,1.0,False,0.112,2.0,False,left,-0.16673,1.5647,1.9227,0.358,0.4396,0.5891,0.1495,A,-0.18,
39.0,0.50019,1.2,2.0,0.31679,0.29178,0.60023,39.0,2.65936,0.9,0.45018,0.95037,5.0,lapse_rate,1.0,False,0.112,0.0,False,left,0.2501,1.5451,2.3117,0.7666,0.2864,0.8533,0.5669,A,-0.18,
40.0,0.50019,1.2,2.0,0.38348,0.27511,0.40849,40.0,2.00911,-0.11,-0.05836,0.44184,5.0,1D2U,1.0,True,0.21,2.0,False,left,0.0,1.2908,1.5488,0.2581,0.474,0.7901,0.3161,A,-0.18,
41.0,0.50019,0.1,1.0,0.28344,0.25843,0.55855,41.0,2.1675,0.13,0.06669,0.56689,5.0,2D1U,1.0,True,0.148,2.0,False,left,-0.16673,0.3559,0.7642,0.4082,1.4802,1.6559,0.1757,A,-0.16,
42.0,0.50019,0.1,2.0,0.4335,0.3418,0.58356,42.0,2.06746,-0.59,-0.29178,0.20841,5.0,lapse_rate,1.0,True,0.2,0.0,False,left,0.2501,1.6312,1.6811,0.0499,0.3814,0.9732,0.5918,A,-0.16,
43.0,0.50019,0.1,2.0,0.21675,0.25843,0.82532,43.0,2.26754,-0.07,-0.03335,0.46685,5.0,1D2U,1.0,True,0.22,2.0,False,left,0.0,1.5295,1.8377,0.3083,0.2877,0.6295,0.3418,A,-0.16,
44.0,0.50019,0.1,1.0,0.40849,0.36681,0.85033,44.0,2.59267,-0.07,-0.03335,0.46685,5.0,1D2U,2.0,True,0.192,2.0,False,right,-0.16673,0.4811,0.7895,0.3084,1.7977,1.9729,0.1752,A,-0.16,
45.0,0.50019,0.1,1.0,0.20841,0.28344,0.47519,45.0,1.67564,-0.59,-0.29178,0.20841,5.0,lapse_rate,2.0,True,0.225,0.0,False,right,0.2501,0.2814,0.3319,0.0504,0.7568,1.3485,0.5918,A,-0.16,
46.0,0.50019,1.2,1.0,0.35014,0.41683,0.65859,46.0,2.49264,0.13,0.06669,0.56689,5.0,2D1U,1.0,True,0.112,2.0,False,left,0.0,0.4437,0.8269,0.3832,1.5771,1.8937,0.3166,A,-0.18,
47.0,0.50019,0.1,1.0,0.40849,0.40849,0.48352,47.0,2.75106,0.9,0.45018,0.95037,5.0,lapse_rate,1.0,True,0.446,0.0,False,left,-0.16673,0.4848,1.2765,0.7917,1.9182,2.0931,0.1749,A,-0.16,
48.0,0.50019,1.2,2.0,0.30012,0.44184,0.70861,48.0,2.49264,0.09,0.04168,0.54188,5.0,2D1U,1.0,False,0.217,3.0,True,left,0.2501,1.6311,1.9892,0.3581,0.2645,0.831,0.5665,A,-0.18,
49.0,0.50019,1.2,1.0,0.38348,0.35014,0.69194,49.0,2.40927,-0.03,-0.01667,0.48352,5.0,1D2U,2.0,True,0.218,2.0,False,right,0.0,0.4714,0.7714,0.3,1.5553,1.8719,0.3166,A,-0.18,
50.0,0.50019,0.1,1.0,0.40016,0.41683,0.71695,50.0,2.60102,0.13,0.06669,0.56689,5.0,2D1U,1.0,True,0.373,4.0,True,left,-0.16673,0.472,0.8803,0.4082,1.7549,1.9304,0.1755,A,-0.16,
51.0,0.50019,0.1,1.0,0.39182,0.2501,0.89201,51.0,2.24253,-0.59,-0.29178,0.20841,5.0,lapse_rate,2.0,True,0.244,0.0,False,right,0.2501,0.4691,0.5192,0.0501,1.361,1.9525,0.5915,A,-0.16,
52.0,0.50019,0.1,2.0,0.30845,0.42517,0.5252,52.0,2.24253,-0.03,-0.01667,0.48352,5.0,1D2U,2.0,False,0.113,2.0,False,right,0.0,1.3226,1.6478,0.3251,0.3809,0.7227,0.3419,A,-0.16,
53.0,0.50019,0.1,2.0,0.2501,0.29178,0.55021,53.0,2.15917,0.13,0.06669,0.56689,5.0,2D1U,2.0,True,0.175,4.0,True,right,-0.16673,1.2116,1.6193,0.4077,0.4112,0.5872,0.176,A,-0.16,
54.0,0.50019,1.2,1.0,0.26677,0.44184,0.87534,54.0,3.03451,0.9,0.45018,0.95037,5.0,lapse_rate,1.0,True,0.114,0.0,False,left,0.2501,0.3548,1.1216,0.7668,1.9627,2.5301,0.5673,A,-0.18,
55.0,0.50019,1.2,2.0,0.30845,0.3418,0.42517,55.0,2.04246,-0.07,-0.03335,0.46685,5.0,1D2U,2.0,False,0.217,3.0,True,right,0.0,1.2304,1.5141,0.2837,0.3976,0.7137,0.3161,A,-0.18,
56.0,0.50019,1.2,2.0,0.41683,0.37515,0.81698,56.0,2.55099,-0.11,-0.05836,0.44184,5.0,1D2U,1.0,True,0.173,3.0,False,left,-0.16673,1.647,1.9052,0.2582,0.5886,0.738,0.1494,A,-0.18,
57.0,0.50019,1.2,1.0,0.44184,0.28344,0.74196,57.0,2.9178,0.9,0.45018,0.95037,5.0,lapse_rate,1.0,True,0.208,0.0,False,left,0.2501,0.533,1.3001,0.767,2.0079,2.5748,0.5669,A,-0.18,
58.0,0.50019,1.2,2.0,0.26677,0.37515,0.6836,58.0,2.36759,0.09,0.04168,0.54188,5.0,2D1U,1.0,False,0.106,5.0,True,left,0.0,1.4511,1.8099,0.3588,0.3593,0.6766,0.3172,A,-0.18,
59.0,0.50019,0.1,2.0,0.23342,0.40849,0.66693,59.0,2.7594,0.9,0.45018,0.95037,5.0,lapse_rate,2.0,True,0.162,0.0,False,right,-0.16673,1.3081,2.0998,0.7917,0.3914,0.5664,0.1749,A,-0.16,
60.0,0.50019,0.1,1.0,0.23342,0.41683,0.87534,60.0,2.59267,0.13,0.06669,0.56689,5.0,2D1U,1.0,True,0.111,6.0,True,left,0.2501,0.3045,0.713,0.4085,1.5379,2.1297,0.5918,A,-0.16,
61.0,0.50019,0.1,2.0,0.24176,0.44184,0.60023,61.0,2.22586,-0.11,-0.05836,0.44184,5.0,1D2U,2.0,False,0.113,3.0,False,right,0.0,1.336,1.6192,0.2832,0.3191,0.6611,0.3419,A,-0.16,
62.0,0.50019,1.2,2.0,0.26677,0.31679,0.61691,62.0,2.65103,0.9,0.45018,0.95037,5.0,lapse_rate,2.0,True,0.197,0.0,False,right,-0.16673,1.3036,2.0703,0.7666,0.4454,0.5955,0.1501,A,-0.18,
63.0,0.50019,0.1,1.0,0.29178,0.41683,0.44184,63.0,2.07581,-0.15,-0.07503,0.42517,5.0,1D2U,2.0,True,0.111,3.0,False,right,0.2501,0.3662,0.633,0.2668,1.0247,1.6163,0.5916,A,-0.16,
64.0,0.50019,1.2,1.0,0.45018,0.30845,0.54188,64.0,2.36759,0.13,0.06669,0.56689,5.0,2D1U,2.0,False,0.169,6.0,True,right,0.0,0.5369,0.9207,0.3838,1.5539,1.8698,0.3159,A,-0.18,
65.0,0.50019,1.2,1.0,0.32513,0.33346,0.55855,65.0,2.30089,0.17,0.08337,0.58356,5.0,2D1U,1.0,True,0.113,6.0,False,left,-0.16673,0.4127,0.8125,0.3997,1.5463,1.6966,0.1503,A,-0.18,
66.0,0.50019,0.1,2.0,0.38348,0.37515,0.60857,66.0,2.0758,-0.59,-0.29178,0.20841,5.0,lapse_rate,1.0,True,0.163,0.0,False,left,0.2501,1.6111,1.6609,0.0497,0.3361,0.9279,0.5918,A,-0.16,
67.0,0.50019,1.2,2.0,0.38348,0.32513,0.70027,67.0,2.33424,-0.15,-0.07503,0.42517,5.0,1D2U,1.0,True,0.694,3.0,False,left,0.0,1.5857,1.8273,0.2416,0.477,0.7937,0.3167,A,-0.18,
68.0,0.50019,1.2,2.0,0.35847,0.23342,0.45018,68.0,1.75067,-0.59,-0.29178,0.20841,5.0,lapse_rate,1.0,True,0.267,0.0,False,left,-0.16673,1.2285,1.2533,0.0248,0.5365,0.6865,0.15,A,-0.18,
69.0,0.50019,0.1,1.0,0.45018,0.2501,0.49186,69.0,2.27589,0.17,0.08337,0.58356,5.0,2D1U,1.0,True,0.212,6.0,False,left,0.2501,0.5249,0.9503,0.4253,1.3914,1.9833,0.5919,A,-0.16,
70.0,0.50019,0.1,2.0,0.44184,0.39182,0.5252,70.0,2.30089,-0.11,-0.05836,0.44184,5.0,1D2U,1.0,True,0.5,4.0,True,left,0.0,1.4556,1.738,0.2825,0.5136,0.8555,0.3419,A,-0.16,
71.0,0.50019,0.1,1.0,0.36681,0.27511,0.61691,71.0,2.32591,0.13,0.06669,0.56689,5.0,2D1U,2.0,False,0.24,7.0,True,right,-0.16673,0.4404,0.8488,0.4084,1.624,1.799,0.1749,A,-0.16,
72.0,0.50019,0.1,1.0,0.3418,0.44184,0.51687,72.0,2.00911,-0.59,-0.29178,0.20841,5.0,lapse_rate,2.0,True,0.116,0.0,False,right,0.2501,0.4155,0.4656,0.0501,0.932,1.5234,0.5914,A,-0.16,
73.0,0.50019,1.2,2.0,0.29178,0.23342,0.82532,73.0,2.29255,-0.11,-0.05836,0.44184,5.0,1D2U,1.0,True,0.242,4.0,True,left,0.0,1.6124,1.8704,0.258,0.3793,0.6959,0.3166,A,-0.18,
74.0,0.50019,0.1,2.0,0.29178,0.36681,0.54188,74.0,1.90907,-0.59,-0.29178,0.20841,5.0,lapse_rate,1.0,True,0.174,0.0,False,left,-0.16673,1.2394,1.289,0.0496,0.4473,0.6217,0.1744,A,-0.16,
75.0,0.50019,1.2,1.0,0.2501,0.42517,0.81698,75.0,2.45929,-0.07,-0.03335,0.46685,5.0,1D2U,2.0,True,0.264,4.0,False,right,0.2501,0.3386,0.6218,0.2832,1.4049,1.972,0.567,A,-0.18,
76.0,0.50019,1.2,1.0,0.38348,0.38348,0.41683,76.0,2.26754,0.17,0.08337,0.58356,5.0,2D1U,1.0,True,0.114,8.0,True,left,0.0,0.473,0.8727,0.3997,1.3819,1.698,0.3161,A,-0.18,
77.0,0.50019,0.1,2.0,0.37515,0.31679,0.4335,77.0,2.20919,0.17,0.08337,0.58356,5.0,2D1U,2.0,True,0.14,8.0,True,right,-0.16673,1.2147,1.6394,0.4247,0.5311,0.7061,0.175,A,-0.16,
78.0,0.50019,0.1,2.0,0.29178,0.39182,0.85867,78.0,2.50931,-0.07,-0.03335,0.46685,5.0,1D2U,1.0,True,0.121,4.0,False,left,0.2501,1.7627,2.0709,0.3082,0.2377,0.8292,0.5916,A,-0.16,
79.0,0.50019,0.1,1.0,0.23342,0.20008,0.46685,79.0,2.35091,0.9,0.45018,0.95037,5.0,lapse_rate,1.0,True,0.166,0.0,False,left,0.0,0.3109,1.1031,0.7922,1.6447,1.9863,0.3416,A,-0.16,
80.0,0.50019,0.1,2.0,0.44184,0.35014,0.45018,80.0,2.22587,-0.03,-0.01667,0.48352,5.0,1D2U,2.0,False,0.112,4.0,False,right,-0.16673,1.2958,1.621,0.3253,0.5958,0.7711,0.1753,A,-0.16,
81.0,0.50019,1.2,2.0,0.20841,0.24176,0.88368,81.0,2.40093,0.13,0.06669,0.56689,5.0,2D1U,1.0,False,0.176,9.0,True,left,0.2501,1.7128,2.0961,0.3833,0.171,0.7376,0.5666,A,-0.18,
82.0,0.50019,0.1,2.0,0.39182,0.40016,0.65025,82.0,2.89279,0.9,0.45018,0.95037,5.0,lapse_rate,2.0,True,0.111,0.0,False,right,0.0,1.5299,2.3218,0.792,0.4633,0.8051,0.3418,A,-0.16,
83.0,0.50019,1.2,1.0,0.33346,0.4335,0.87534,83.0,2.3509,-0.59,-0.29178,0.20841,5.0,lapse_rate,2.0,True,0.111,0.0,False,right,-0.16673,0.4222,0.4473,0.0251,1.4973,1.6473,0.15,A,-0.18,
84.0,0.50019,1.2,2.0,0.29178,0.41683,0.5252,84.0,2.20085,-0.07,-0.03335,0.46685,5.0,1D2U,1.0,True,0.112,5.0,True,left,0.2501,1.4447,1.7282,0.2835,0.2615,0.828,0.5665,A,-0.18,
85.0,0.50019,1.2,2.0,0.21675,0.40849,0.89201,85.0,2.601,0.17,0.08337,0.58356,5.0,2D1U,2.0,True,0.112,10.0,True,right,0.0,1.6042,2.0043,0.4001,0.3042,0.621,0.3168,A,-0.18,
86.0,0.50019,0.1,2.0,0.27511,0.25843,0.58356,86.0,1.8257,-0.59,-0.29178,0.20841,5.0,lapse_rate,1.0,True,0.194,0.0,False,left,-0.16673,1.2681,1.3181,0.05,0.4353,0.6098,0.1746,A,-0.16,
87.0,0.50019,0.1,1.0,0.28344,0.33346,0.62524,87.0,2.32589,0.17,0.08337,0.58356,5.0,2D1U,1.0,True,0.395,10.0,True,left,0.2501,0.3539,0.7786,0.4247,1.3536,1.9456,0.592,A,-0.16,
88.0,0.50019,0.1,2.0,0.40016,0.26677,0.58356,88.0,2.21753,-0.07,-0.03335,0.46685,5.0,1D2U,2.0,False,0.144,5.0,True,right,0.0,1.4758,1.7842,0.3083,0.4754,0.818,0.3426,A,-0.16,
89.0,0.50019,0.1,2.0,0.30012,0.31679,0.51687,89.0,2.20086,0.13,0.06669,0.56689,5.0,2D1U,1.0,False,0.517,11.0,True,left,-0.16673,1.2204,1.6288,0.4084,0.454,0.63,0.1759,A,-0.16,
90.0,0.50019,1.2,1.0,0.20841,0.44184,0.50019,90.0,2.601,0.9,0.45018,0.95037,5.0,lapse_rate,2.0,False,0.48,0.0,False,right,0.2501,0.3009,1.0676,0.7667,1.534,2.1013,0.5672,A,-0.18,
91.0,0.50019,1.2,1.0,0.27511,0.35847,0.48352,91.0,2.05913,-0.11,-0.05836,0.44184,5.0,1D2U,1.0,False,0.112,5.0,False,left,0.0,0.3708,0.6286,0.2578,1.204,1.5207,0.3167,A,-0.18,
92.0,0.50019,0.1,2.0,0.27511,0.27511,0.88368,92.0,2.1425,-0.59,-0.29178,0.20841,5.0,lapse_rate,1.0,True,0.244,0.0,False,left,-0.16673,1.5636,1.6138,0.0502,0.4309,0.6056,0.1747,A,-0.16,
93.0,0.50019,1.2,2.0,0.42517,0.32513,0.45018,93.0,2.12584,-0.15,-0.07503,0.42517,5.0,1D2U,1.0,True,0.193,5.0,False,left,0.2501,1.5022,1.7446,0.2423,0.3939,0.9608,0.567,A,-0.18,
94.0,0.50019,1.2,1.0,0.38348,0.41683,0.42517,94.0,2.30923,0.17,0.08337,0.58356,5.0,2D1U,2.0,False,0.114,12.0,True,right,0.0,0.4728,0.8727,0.3999,1.389,1.7062,0.3171,A,-0.18,
95.0,0.50019,0.1,1.0,0.41683,0.41683,0.74196,95.0,3.02618,0.9,0.45018,0.95037,5.0,lapse_rate,1.0,True,0.507,0.0,False,left,-0.16673,0.4877,1.2797,0.7919,2.1799,2.3546,0.1747,A,-0.16,
96.0,0.50019,0.1,2.0,0.28344,0.45018,0.47519,96.0,2.13417,-0.15,-0.07503,0.42517,5.0,1D2U,1.0,True,0.113,5.0,False,left,0.2501,1.3729,1.6397,0.2668,0.231,0.8229,0.5918,A,-0.16,
97.0,0.50019,0.1,2.0,0.39182,0.41683,0.71695,97.0,2.63436,0.21,0.10838,0.60857,5.0,2D1U,2.0,True,0.114,12.0,False,right,0.0,1.5966,2.0472,0.4507,0.4638,0.8055,0.3417,A,-0.16,
98.0,0.50019,0.1,2.0,0.25843,0.36681,0.61691,98.0,2.18418,-0.11,-0.05836,0.44184,5.0,1D2U,1.0,True,0.113,6.0,True,left,-0.16673,1.2802,1.5638,0.2835,0.4137,0.5892,0.1755,A,-0.16,
99.0,0.50019,1.2,1.0,0.40016,0.30845,0.76697,99.0,2.18418,-0.59,-0.29178,0.20841,5.0,lapse_rate,2.0,True,0.167,0.0,False,right,0.2501,0.4898,0.5147,0.025,1.2481,1.8147,0.5666,A,-0.18,
100.0,0.50019,1.2,1.0,0.37515,0.37515,0.50853,100.0,2.36759,0.21,0.10838,0.60857,5.0,2D1U,1.0,True,0.111,12.0,False,left,0.0,0.4626,0.8869,0.4242,1.4874,1.8042,0.3168,A,-0.18,
101.0,0.50019,0.1,2.0,0.26677,0.24176,0.75863,101.0,1.97576,-0.59,-0.29178,0.20841,5.0,lapse_rate,1.0,True,0.234,0.0,False,left,-0.16673,1.432,1.4821,0.0501,0.4238,0.5988,0.175,A,-0.16,
102.0,0.50019,1.2,1.0,0.21675,0.40016,0.76697,102.0,2.46763,0.17,0.08337,0.58356,5.0,2D1U,2.0,False,0.377,13.0,True,right,0.2501,0.308,0.7076,0.3996,1.4412,2.0081,0.5669,A,-0.18,
103.0,0.50019,1.2,1.0,0.28344,0.42517,0.90035,103.0,2.55099,-0.11,-0.05836,0.44184,5.0,1D2U,2.0,True,0.109,6.0,True,right,0.0,0.3777,0.6364,0.2587,1.6278,1.9442,0.3164,A,-0.18,
104.0,0.50019,1.2,2.0,0.30845,0.40849,0.62524,104.0,2.79274,0.9,0.45018,0.95037,5.0,lapse_rate,2.0,True,0.381,0.0,False,right,-0.16673,1.3528,2.1195,0.7667,0.4874,0.6369,0.1495,A,-0.18,
105.0,0.50019,0.1,1.0,0.36681,0.3418,0.66693,105.0,2.4843,0.21,0.10838,0.60857,5.0,2D1U,1.0,True,0.146,14.0,True,left,0.2501,0.4432,0.8934,0.4502,1.51,2.1016,0.5916,A,-0.16,
106.0,0.50019,0.1,1.0,0.3418,0.35847,0.72528,106.0,2.39259,-0.07,-0.03335,0.46685,5.0,1D2U,2.0,True,0.113,6.0,False,right,0.0,0.4137,0.722,0.3083,1.5219,1.8637,0.3418,A,-0.16,
107.0,0.50019,1.2,1.0,0.44184,0.35014,0.81698,107.0,3.05952,0.9,0.45018,0.95037,5.0,lapse_rate,1.0,True,0.193,0.0,False,left,-0.16673,0.5301,1.2965,0.7665,2.288,2.4378,0.1498,A,-0.18,
108.0,0.50019,0.1,1.0,0.35014,0.38348,0.41683,108.0,2.11749,-0.07,-0.03335,0.46685,5.0,1D2U,1.0,False,0.144,6.0,False,left,0.2501,0.4238,0.7326,0.3087,1.0994,1.6904,0.591,A,-0.16,
109.0,0.50019,1.2,1.0,0.35847,0.37515,0.60023,109.0,2.44261,0.21,0.10838,0.60857,5.0,2D1U,1.0,True,0.113,14.0,True,left,0.0,0.4481,0.8726,0.4245,1.5644,1.8811,0.3167,A,-0.18,
110.0,0.50019,1.2,1.0,0.4335,0.28344,0.75863,110.0,2.55932,0.17,0.08337,0.58356,5.0,2D1U,1.0,True,0.212,15.0,True,left,-0.16673,0.5214,0.9213,0.3999,1.8544,2.0049,0.1506,A,-0.18,
111.0,0.50019,0.1,2.0,0.35847,0.27511,0.88368,111.0,2.22586,-0.59,-0.29178,0.20841,5.0,lapse_rate,1.0,True,0.286,0.0,False,left,0.2501,1.8616,1.9111,0.0495,0.3117,0.9028,0.5912,A,-0.16,
112.0,0.50019,1.2,1.0,0.41683,0.30845,0.40016,112.0,2.06747,-0.11,-0.05836,0.44184,5.0,1D2U,2.0,True,0.286,7.0,True,right,0.0,0.5066,0.765,0.2584,1.2568,1.5733,0.3165,A,-0.18,
113.0,0.50019,0.1,1.0,0.44184,0.25843,0.4335,113.0,2.21752,0.17,0.08337,0.58356,5.0,2D1U,2.0,False,0.221,15.0,True,right,-0.16673,0.5155,0.9401,0.4246,1.5313,1.707,0.1756,A,-0.16,
114.0,0.50019,0.1,2.0,0.40016,0.35847,0.55855,114.0,2.25921,-0.11,-0.05836,0.44184,5.0,1D2U,1.0,True,0.11,7.0,True,left,0.2501,1.572,1.8559,0.2839,0.3472,0.9393,0.5921,A,-0.16,
115.0,0.50019,0.1,1.0,0.31679,0.40849,0.45851,115.0,1.89239,-0.59,-0.29178,0.20841,5.0,lapse_rate,2.0,True,0.112,0.0,False,right,0.0,0.3921,0.4416,0.0495,0.9752,1.3166,0.3414,A,-0.16,
116.0,0.50019,0.1,1.0,0.20841,0.23342,0.75863,116.0,2.1675,-0.07,-0.03335,0.46685,5.0,1D2U,1.0,False,0.258,8.0,True,left,-0.16673,0.2817,0.5906,0.3089,1.5069,1.6814,0.1746,A,-0.16,
117.0,0.50019,1.2,2.0,0.32513,0.29178,0.85033,117.0,2.576,0.21,0.10838,0.60857,5.0,2D1U,1.0,False,0.121,16.0,True,left,0.2501,1.7961,2.2211,0.425,0.2874,0.8541,0.5668,A,-0.18,
118.0,0.50019,1.2,1.0,0.33346,0.35847,0.42517,118.0,2.56766,0.9,0.45018,0.95037,5.0,lapse_rate,2.0,False,0.112,0.0,False,right,0.0,0.42,1.1868,0.7669,1.7036,2.0199,0.3163,A,-0.18,
119.0,0.50019,1.2,2.0,0.37515,0.40849,0.90035,119.0,2.62602,-0.11,-0.05836,0.44184,5.0,1D2U,1.0,True,0.111,9.0,True,left,-0.16673,1.6932,1.9515,0.2583,0.5514,0.7013,0.15,A,-0.18,
120.0,0.50019,1.2,1.0,0.30845,0.40849,0.50853,120.0,2.3509,0.25,0.12505,0.62524,5.0,2D1U,2.0,False,0.112,16.0,False,right,0.2501,0.3996,0.8409,0.4412,1.316,1.8828,0.5668,A,-0.18,
121.0,0.50019,1.2,1.0,0.26677,0.36681,0.47519,121.0,2.55933,0.9,0.45018,0.95037,5.0,lapse_rate,2.0,False,0.249,0.0,False,right,0.0,0.362,1.1279,0.7659,1.6953,2.0119,0.3166,A,-0.18,
122.0,0.50019,0.1,2.0,0.31679,0.44184,0.60857,122.0,2.81776,0.9,0.45018,0.95037,5.0,lapse_rate,2.0,True,0.115,0.0,False,right,-0.16673,1.3311,2.1228,0.7917,0.4727,0.6475,0.1748,A,-0.16,
123.0,0.50019,0.1,2.0,0.41683,0.44184,0.40849,123.0,2.40927,0.29,0.14172,0.64192,5.0,2D1U,2.0,True,0.115,16.0,False,right,0.2501,1.4384,1.922,0.4836,0.3636,0.9551,0.5915,A,-0.16,
124.0,0.50019,0.1,2.0,0.30012,0.27511,0.58356,124.0,2.10082,-0.11,-0.05836,0.44184,5.0,1D2U,1.0,True,0.165,9.0,True,left,0.0,1.3717,1.6551,0.2834,0.3721,0.7133,0.3412,A,-0.16,
125.0,0.50019,0.1,2.0,0.24176,0.36681,0.55855,125.0,2.13416,-0.07,-0.03335,0.46685,5.0,1D2U,2.0,False,0.122,10.0,True,right,-0.16673,1.2092,1.5174,0.3082,0.4009,0.5756,0.1747,A,-0.16,
126.0,0.50019,1.2,1.0,0.21675,0.3418,0.83366,126.0,2.84277,0.9,0.45018,0.95037,5.0,lapse_rate,1.0,True,0.186,0.0,False,left,0.2501,0.3097,1.076,0.7663,1.8761,2.443,0.5669,A,-0.18,
127.0,0.50019,1.2,1.0,0.35847,0.31679,0.87534,127.0,2.69271,0.29,0.14172,0.64192,5.0,2D1U,2.0,False,0.126,16.0,False,right,0.0,0.4528,0.9109,0.4581,1.8778,2.1947,0.3169,A,-0.18,
128.0,0.50019,1.2,2.0,0.3418,0.22509,0.867,128.0,2.60101,0.33,0.16673,0.66693,5.0,2D1U,2.0,True,0.207,16.0,False,right,-0.16673,1.6212,2.1048,0.4835,0.5128,0.6627,0.1499,A,-0.18,
129.0,0.50019,0.1,2.0,0.35014,0.39182,0.63358,129.0,2.8261,0.9,0.45018,0.95037,5.0,lapse_rate,2.0,True,0.112,0.0,False,right,0.2501,1.6027,2.3944,0.7917,0.3027,0.8946,0.592,A,-0.16,
130.0,0.50019,1.2,2.0,0.33346,0.42517,0.48352,130.0,2.18418,-0.11,-0.05836,0.44184,5.0,1D2U,1.0,True,0.113,11.0,True,left,0.0,1.3146,1.5731,0.2584,0.4223,0.7401,0.3178,A,-0.18,
131.0,0.50019,1.2,1.0,0.37515,0.36681,0.55021,131.0,2.00077,-0.59,-0.29178,0.20841,5.0,lapse_rate,2.0,True,0.124,0.0,False,right,-0.16673,0.4646,0.4895,0.0249,1.2155,1.3656,0.1502,A,-0.18,
132.0,0.50019,0.1,2.0,0.28344,0.29178,0.83366,132.0,2.576,0.33,0.16673,0.66693,5.0,2D1U,2.0,True,0.195,16.0,False,right,0.2501,1.7313,2.2391,0.5078,0.2309,0.8229,0.592,A,-0.16,
133.0,0.50019,0.1,1.0,0.30012,0.24176,0.4335,133.0,1.91741,-0.11,-0.05836,0.44184,5.0,1D2U,2.0,True,0.183,11.0,True,right,0.0,0.3728,0.6564,0.2836,1.1648,1.5066,0.3418,A,-0.16,
134.0,0.50019,0.1,2.0,0.32513,0.3418,0.55855,134.0,2.36759,0.29,0.14172,0.64192,5.0,2D1U,2.0,True,0.115,17.0,True,right,-0.16673,1.2915,1.7752,0.4837,0.4833,0.6591,0.1758,A,-0.16,
135.0,0.50019,1.2,1.0,0.21675,0.39182,0.42517,135.0,2.4843,0.9,0.45018,0.95037,5.0,lapse_rate,1.0,True,0.11,0.0,False,left,0.2501,0.3099,1.0765,0.7665,1.4684,2.035,0.5666,A,-0.18,
136.0,0.50019,1.2,2.0,0.24176,0.24176,0.76697,136.0,2.21753,-0.07,-0.03335,0.46685,5.0,1D2U,2.0,False,0.24,12.0,True,right,0.0,1.5072,1.7899,0.2827,0.332,0.6485,0.3164,A,-0.18,
137.0,0.50019,1.2,1.0,0.28344,0.3418,0.54188,137.0,2.30923,0.29,0.14172,0.64192,5.0,2D1U,2.0,False,0.113,17.0,True,right,-0.16673,0.3742,0.8325,0.4582,1.5489,1.6991,0.1501,A,-0.18,
138.0,0.50019,1.2,1.0,0.33346,0.26677,0.84199,138.0,2.38425,-0.11,-0.05836,0.44184,5.0,1D2U,2.0,True,0.194,13.0,True,right,0.2501,0.4283,0.6861,0.2578,1.4947,2.0615,0.5668,A,-0.18,
139.0,0.50019,1.2,2.0,0.35014,0.40016,0.64192,139.0,2.10082,-0.59,-0.29178,0.20841,5.0,lapse_rate,2.0,False,0.122,0.0,False,right,0.0,1.4896,1.5146,0.025,0.4396,0.7561,0.3165,A,-0.18,
140.0,0.50019,0.1,2.0,0.29178,0.23342,0.73362,140.0,2.70938,0.9,0.45018,0.95037,5.0,lapse_rate,2.0,True,0.108,0.0,False,right,-0.16673,1.4343,2.2263,0.792,0.4511,0.6262,0.1751,A,-0.16,
141.0,0.50019,0.1,2.0,0.39182,0.31679,0.71695,141.0,2.59268,0.33,0.16673,0.66693,5.0,2D1U,2.0,True,0.133,18.0,True,right,0.2501,1.7239,2.2324,0.5085,0.34,0.9324,0.5923,A,-0.16,
142.0,0.50019,0.1,2.0,0.2501,0.29178,0.5919,142.0,2.07581,-0.11,-0.05836,0.44184,5.0,1D2U,2.0,False,0.111,13.0,True,right,0.0,1.3294,1.6125,0.2832,0.3214,0.6631,0.3418,A,-0.16,
143.0,0.50019,0.1,2.0,0.4335,0.21675,0.67526,143.0,2.49263,0.33,0.16673,0.66693,5.0,2D1U,2.0,True,0.111,18.0,True,right,-0.16673,1.519,2.0273,0.5083,0.594,0.769,0.175,A,-0.16,
144.0,0.50019,1.2,2.0,0.32513,0.40849,0.81698,144.0,2.47596,-0.15,-0.07503,0.42517,5.0,1D2U,2.0,False,0.513,13.0,False,right,0.2501,1.7698,2.012,0.2422,0.2946,0.8615,0.5669,A,-0.18,
145.0,0.50019,1.2,2.0,0.21675,0.3418,0.867,145.0,2.13415,-0.59,-0.29178,0.20841,5.0,lapse_rate,2.0,False,0.256,0.0,False,right,0.0,1.5846,1.6098,0.0252,0.3099,0.6269,0.317,A,-0.18,
146.0,0.50019,1.2,1.0,0.28344,0.30845,0.69194,146.0,2.42594,0.29,0.14172,0.64192,5.0,2D1U,1.0,True,0.124,19.0,True,left,-0.16673,0.376,0.834,0.458,1.7011,1.8513,0.1502,A,-0.18,
147.0,0.50019,0.1,2.0,0.35014,0.40016,0.65859,147.0,2.85945,0.9,0.45018,0.95037,5.0,lapse_rate,2.0,True,0.113,0.0,False,right,0.2501,1.626,2.4175,0.7915,0.3008,0.8925,0.5917,A,-0.16,
148.0,0.50019,1.2,1.0,0.44184,0.38348,0.80865,148.0,2.54265,-0.19,-0.0917,0.40849,5.0,1D2U,2.0,True,0.113,13.0,False,right,0.0,0.5343,0.7595,0.2252,1.6595,1.976,0.3165,A,-0.18,
149.0,0.50019,0.1,2.0,0.25843,0.45018,0.41683,149.0,2.26755,0.29,0.14172,0.64192,5.0,2D1U,2.0,True,0.383,19.0,True,right,-0.16673,1.0857,1.5693,0.4836,0.4192,0.5947,0.1756,A,-0.16,
150.0,0.50019,0.1,2.0,0.4335,0.29178,0.62524,150.0,2.2592,-0.19,-0.0917,0.40849,5.0,1D2U,1.0,True,0.179,13.0,False,left,0.2501,1.6755,1.9256,0.2501,0.3838,0.9751,0.5913,A,-0.16,
151.0,0.50019,0.1,1.0,0.2501,0.40849,0.50019,151.0,2.60934,0.9,0.45018,0.95037,5.0,lapse_rate,1.0,True,0.461,0.0,False,left,0.0,0.3218,1.113,0.7911,1.6881,2.0296,0.3416,A,-0.16,
152.0,0.50019,0.1,1.0,0.28344,0.25843,0.65859,152.0,1.90906,-0.59,-0.29178,0.20841,5.0,lapse_rate,2.0,True,0.199,0.0,False,right,-0.16673,0.3555,0.4057,0.0502,1.2224,1.3974,0.175,A,-0.16,
153.0,0.50019,0.1,1.0,0.30012,0.35847,0.73362,153.0,2.31757,-0.15,-0.07503,0.42517,5.0,1D2U,1.0,False,0.189,14.0,True,left,0.2501,0.371,0.6384,0.2674,1.3216,1.9132,0.5915,A,-0.16,
154.0,0.50019,1.2,1.0,0.22509,0.44184,0.73362,154.0,2.52598,0.25,0.12505,0.62524,5.0,2D1U,2.0,False,0.312,19.0,False,right,0.0,0.3125,0.7539,0.4414,1.5794,1.8962,0.3168,A,-0.18,
155.0,0.50019,1.2,2.0,0.25843,0.40016,0.60857,155.0,2.17584,-0.19,-0.0917,0.40849,5.0,1D2U,2.0,False,0.147,15.0,True,right,-0.16673,1.282,1.5068,0.2248,0.4319,0.5819,0.1501,A,-0.18,
156.0,0.50019,1.2,2.0,0.3418,0.30012,0.50019,156.0,2.28422,0.29,0.14172,0.64192,5.0,2D1U,2.0,True,0.15,20.0,True,right,0.2501,1.4618,1.9206,0.4587,0.3038,0.87,0.5661,A,-0.18,
157.0,0.50019,1.2,1.0,0.26677,0.24176,0.85867,157.0,2.0758,-0.59,-0.29178,0.20841,5.0,lapse_rate,2.0,True,0.21,0.0,False,right,0.0,0.3577,0.3829,0.0252,1.3324,1.6495,0.3171,A,-0.18,
158.0,0.50019,1.2,2.0,0.4335,0.29178,0.53354,158.0,1.96742,-0.59,-0.29178,0.20841,5.0,lapse_rate,1.0,True,0.295,0.0,False,left,-0.16673,1.3798,1.4049,0.0251,0.6045,0.7549,0.1504,A,-0.18,
159.0,0.50019,0.1,1.0,0.2501,0.23342,0.7753,159.0,2.40093,0.29,0.14172,0.64192,5.0,2D1U,1.0,True,0.367,20.0,True,left,0.2501,0.3212,0.8045,0.4833,1.5294,2.1211,0.5917,A,-0.16,
160.0,0.50019,0.1,2.0,0.35847,0.35014,0.88368,160.0,2.47596,-0.23,-0.11671,0.38348,5.0,1D2U,1.0,True,0.205,15.0,False,left,0.0,1.7282,1.9542,0.2259,0.4288,0.7705,0.3418,A,-0.16,
161.0,0.50019,0.1,2.0,0.30845,0.4335,0.76697,161.0,2.39259,-0.23,-0.11671,0.38348,5.0,1D2U,1.0,True,0.423,15.0,False,left,-0.16673,1.4791,1.7038,0.2247,0.4624,0.6378,0.1754,A,-0.16,
162.0,0.50019,1.2,2.0,0.39182,0.31679,0.48352,162.0,1.90073,-0.59,-0.29178,0.20841,5.0,lapse_rate,1.0,True,0.334,0.0,False,left,0.2501,1.5029,1.5275,0.0247,0.3607,0.9275,0.5668,A,-0.18,
163.0,0.50019,1.2,1.0,0.28344,0.25843,0.78364,163.0,2.45094,0.25,0.12505,0.62524,5.0,2D1U,2.0,False,0.234,21.0,True,right,0.0,0.3736,0.8152,0.4415,1.6905,2.0071,0.3165,A,-0.18,
164.0,0.50019,1.2,1.0,0.3418,0.29178,0.65025,164.0,2.19251,-0.19,-0.0917,0.40849,5.0,1D2U,1.0,False,0.187,16.0,True,left,-0.16673,0.4345,0.6597,0.2251,1.4846,1.6345,0.15,A,-0.18,
165.0,0.50019,1.2,1.0,0.33346,0.35847,0.63358,165.0,2.46762,0.29,0.14172,0.64192,5.0,2D1U,1.0,True,0.205,22.0,True,left,0.2501,0.4282,0.8864,0.4582,1.4862,2.0531,0.5669,A,-0.18,
166.0,0.50019,1.2,2.0,0.3418,0.38348,0.46685,166.0,1.90073,-0.59,-0.29178,0.20841,5.0,lapse_rate,1.0,True,0.4,0.0,False,left,0.0,1.3098,1.3348,0.025,0.4348,0.7517,0.3169,A,-0.18,
167.0,0.50019,0.1,2.0,0.38348,0.25843,0.5252,167.0,1.87571,-0.59,-0.29178,0.20841,5.0,lapse_rate,2.0,False,0.474,0.0,False,right,-0.16673,1.3176,1.3675,0.0499,0.5426,0.7169,0.1743,A,-0.16,
168.0,0.50019,0.1,2.0,0.30012,0.4335,0.47519,168.0,2.35092,0.29,0.14172,0.64192,5.0,2D1U,2.0,True,0.446,22.0,True,right,0.2501,1.3905,1.8738,0.4833,0.2488,0.84,0.5912,A,-0.16,
169.0,0.50019,0.1,2.0,0.33346,0.42517,0.84199,169.0,2.48429,-0.23,-0.11671,0.38348,5.0,1D2U,2.0,False,0.22,17.0,True,right,0.0,1.6645,1.8895,0.225,0.4064,0.7479,0.3415,A,-0.16,
170.0,0.50019,0.1,2.0,0.23342,0.2501,0.62524,170.0,2.23419,0.25,0.12505,0.62524,5.0,2D1U,2.0,True,0.217,23.0,True,right,-0.16673,1.2661,1.7322,0.4662,0.3905,0.5655,0.1751,A,-0.16,
171.0,0.50019,0.1,1.0,0.41683,0.36681,0.46685,171.0,2.70105,0.9,0.45018,0.95037,5.0,lapse_rate,2.0,False,0.111,0.0,False,right,0.2501,0.4895,1.2819,0.7924,1.6976,2.2897,0.5921,A,-0.16,
172.0,0.50019,1.2,2.0,0.33346,0.35014,0.82532,172.0,2.37592,-0.27,-0.13339,0.36681,5.0,1D2U,2.0,False,0.27,17.0,False,right,0.0,1.6615,1.8448,0.1832,0.4283,0.7458,0.3175,A,-0.18,
173.0,0.50019,1.2,1.0,0.41683,0.3418,0.60857,173.0,2.20919,-0.31,-0.1584,0.3418,5.0,1D2U,1.0,False,0.477,17.0,False,left,-0.16673,0.506,0.6643,0.1583,1.4477,1.5975,0.1498,A,-0.18,
174.0,0.50019,0.1,2.0,0.29178,0.33346,0.49186,174.0,1.8257,-0.59,-0.29178,0.20841,5.0,lapse_rate,2.0,False,0.643,0.0,False,right,0.2501,1.3969,1.4466,0.0497,0.2382,0.8295,0.5913,A,-0.16,
175.0,0.50019,1.2,2.0,0.26677,0.28344,0.82532,175.0,2.50096,0.25,0.12505,0.62524,5.0,2D1U,2.0,True,0.313,23.0,True,right,0.0,1.5889,2.0298,0.4409,0.355,0.6716,0.3165,A,-0.18,
176.0,0.50019,0.1,1.0,0.31679,0.4335,0.62524,176.0,2.20085,-0.35,-0.17507,0.32513,5.0,1D2U,2.0,True,0.158,17.0,False,right,-0.16673,0.3884,0.5553,0.1669,1.3387,1.5131,0.1744,A,-0.16,
177.0,0.50019,0.1,1.0,0.23342,0.42517,0.79198,177.0,2.55933,0.21,0.10838,0.60857,5.0,2D1U,1.0,True,0.11,23.0,False,left,0.2501,0.3113,0.7609,0.4496,1.5031,2.0947,0.5915,A,-0.16,
178.0,0.50019,1.2,1.0,0.27511,0.42517,0.70027,178.0,2.10915,-0.59,-0.29178,0.20841,5.0,lapse_rate,2.0,True,0.113,0.0,False,right,0.0,0.3641,0.3891,0.025,1.1813,1.498,0.3167,A,-0.18,
179.0,0.50019,0.1,2.0,0.3418,0.29178,0.58356,179.0,2.04246,-0.35,-0.17507,0.32513,5.0,1D2U,2.0,False,0.112,17.0,False,right,-0.16673,1.333,1.4999,0.1669,0.4997,0.6747,0.175,A,-0.16,
180.0,0.50019,0.1,1.0,0.38348,0.21675,0.72528,180.0,2.77607,0.9,0.45018,0.95037,5.0,lapse_rate,2.0,False,0.108,0.0,False,right,0.2501,0.4611,1.2529,0.7918,1.9275,2.5197,0.5922,A,-0.16,
181.0,0.50019,1.2,1.0,0.40849,0.2501,0.60857,181.0,2.37592,0.21,0.10838,0.60857,5.0,2D1U,1.0,True,0.163,23.0,False,left,0.0,0.502,0.9266,0.4246,1.6269,1.9433,0.3164,A,-0.18,
182.0,0.50019,1.2,2.0,0.29178,0.37515,0.51687,182.0,1.8924,-0.59,-0.29178,0.20841,5.0,lapse_rate,2.0,False,0.346,0.0,False,right,-0.16673,1.2208,1.2457,0.0249,0.4629,0.6127,0.1497,A,-0.18,
183.0,0.50019,1.2,2.0,0.32513,0.35014,0.61691,183.0,2.37593,0.17,0.08337,0.58356,5.0,2D1U,1.0,False,0.18,23.0,False,left,0.2501,1.5623,1.9622,0.3999,0.2872,0.8534,0.5662,A,-0.18,
184.0,0.50019,1.2,2.0,0.36681,0.3418,0.55855,184.0,2.0758,-0.39,-0.19174,0.30845,5.0,1D2U,1.0,True,0.234,17.0,False,left,0.0,1.4227,1.5478,0.1251,0.4561,0.7727,0.3165,A,-0.18,
185.0,0.50019,0.1,1.0,0.44184,0.37515,0.73362,185.0,3.00117,0.9,0.45018,0.95037,5.0,lapse_rate,1.0,True,0.38,0.0,False,left,-0.16673,0.5134,1.3055,0.7922,2.1975,2.3722,0.1747,A,-0.16,
186.0,0.50019,0.1,1.0,0.36681,0.29178,0.81698,186.0,2.28421,-0.39,-0.19174,0.30845,5.0,1D2U,1.0,False,0.12,17.0,False,left,0.2501,0.4409,0.5908,0.1499,1.3576,1.9493,0.5916,A,-0.16,
187.0,0.50019,0.1,1.0,0.3418,0.35847,0.76697,187.0,2.576,0.21,0.10838,0.60857,5.0,2D1U,1.0,True,0.113,24.0,True,left,0.0,0.4132,0.8637,0.4504,1.7055,2.0472,0.3418,A,-0.16,
188.0,0.50019,0.1,2.0,0.30012,0.40849,0.44184,188.0,2.60101,0.9,0.45018,0.95037,5.0,lapse_rate,2.0,True,0.258,0.0,False,right,-0.16673,1.1466,1.9392,0.7925,0.4556,0.6309,0.1753,A,-0.16,
189.0,0.50019,0.1,2.0,0.40849,0.3418,0.85867,189.0,2.39259,-0.43,-0.21675,0.28344,5.0,1D2U,1.0,True,0.319,17.0,False,left,0.2501,1.8814,2.0065,0.1251,0.3567,0.9481,0.5914,A,-0.16,
190.0,0.50019,1.2,1.0,0.41683,0.40849,0.54188,190.0,2.47596,0.21,0.10838,0.60857,5.0,2D1U,2.0,False,0.164,24.0,True,right,0.0,0.5071,0.9317,0.4246,1.5651,1.8812,0.3161,A,-0.18,
191.0,0.50019,0.1,1.0,0.39182,0.44184,0.85033,191.0,3.13455,0.9,0.45018,0.95037,5.0,lapse_rate,2.0,False,0.111,0.0,False,right,-0.16673,0.4631,1.2545,0.7914,2.2629,2.4378,0.1749,A,-0.16,
192.0,0.50019,1.2,1.0,0.31679,0.36681,0.66693,192.0,2.13416,-0.43,-0.21675,0.28344,5.0,1D2U,2.0,True,0.342,17.0,False,right,0.2501,0.4096,0.51,0.1004,1.1434,1.7098,0.5664,A,-0.18,
193.0,0.50019,1.2,2.0,0.35847,0.22509,0.41683,193.0,2.12582,0.25,0.12505,0.62524,5.0,2D1U,2.0,True,0.334,24.0,False,right,0.0,1.2724,1.7141,0.4417,0.4475,0.7641,0.3166,A,-0.18,
194.0,0.50019,0.1,1.0,0.40016,0.42517,0.81698,194.0,2.35091,-0.59,-0.29178,0.20841,5.0,lapse_rate,2.0,True,0.112,0.0,False,right,-0.16673,0.4723,0.5225,0.0502,1.4972,1.6723,0.1751,A,-0.16,
195.0,0.50019,0.1,1.0,0.26677,0.40849,0.55021,195.0,2.03411,-0.39,-0.19174,0.30845,5.0,1D2U,2.0,True,0.197,18.0,True,right,0.2501,0.3414,0.4914,0.15,0.9916,1.5826,0.5909,A,-0.16,
196.0,0.50019,0.1,2.0,0.4335,0.36681,0.7753,196.0,2.70104,0.25,0.12505,0.62524,5.0,2D1U,2.0,True,0.114,24.0,False,right,0.0,1.701,2.1678,0.4668,0.5094,0.8511,0.3417,A,-0.16,
197.0,0.50019,0.1,1.0,0.40016,0.23342,0.64192,197.0,2.08414,-0.39,-0.19174,0.30845,5.0,1D2U,2.0,True,0.247,18.0,True,right,-0.16673,0.4768,0.6262,0.1494,1.4265,1.6013,0.1748,A,-0.16,
198.0,0.50019,1.2,2.0,0.28344,0.38348,0.4335,198.0,2.20918,0.21,0.10838,0.60857,5.0,2D1U,2.0,True,0.164,25.0,True,right,0.2501,1.3405,1.7655,0.425,0.2489,0.8153,0.5664,A,-0.18,
199.0,0.50019,1.2,2.0,0.3418,0.33346,0.49186,199.0,2.61768,0.9,0.45018,0.95037,5.0,lapse_rate,2.0,True,0.112,0.0,False,right,0.0,1.336,2.1025,0.7664,0.4362,0.7529,0.3167,A,-0.18,
200.0,0.50019,1.2,1.0,0.30845,0.28344,0.7753,200.0,2.19251,-0.35,-0.17507,0.32513,5.0,1D2U,2.0,True,0.412,18.0,False,right,-0.16673,0.401,0.5427,0.1417,1.4925,1.643,0.1505,A,-0.18,
201.0,0.50019,1.2,1.0,0.39182,0.30012,0.60857,201.0,2.40927,0.21,0.10838,0.60857,5.0,2D1U,2.0,False,0.257,25.0,True,right,0.2501,0.4863,0.9106,0.4243,1.4858,2.0528,0.567,A,-0.18,
202.0,0.50019,0.1,1.0,0.22509,0.33346,0.65025,202.0,2.65936,0.9,0.45018,0.95037,5.0,lapse_rate,2.0,False,0.216,0.0,False,right,0.0,0.2971,1.0883,0.7912,1.8132,2.1554,0.3422,A,-0.16,
203.0,0.50019,0.1,2.0,0.40016,0.37515,0.60023,203.0,2.20086,-0.35,-0.17507,0.32513,5.0,1D2U,2.0,False,0.208,18.0,False,right,-0.16673,1.4055,1.5716,0.1662,0.555,0.7305,0.1754,A,-0.16,
204.0,0.50019,1.2,1.0,0.27511,0.27511,0.49186,204.0,2.49264,0.9,0.45018,0.95037,5.0,lapse_rate,2.0,False,0.283,0.0,False,right,0.2501,0.3658,1.1328,0.767,1.5908,2.1575,0.5666,A,-0.18,
205.0,0.50019,0.1,2.0,0.33346,0.36681,0.70027,205.0,2.52597,0.25,0.12505,0.62524,5.0,2D1U,2.0,True,0.281,26.0,True,right,0.0,1.5223,1.9896,0.4673,0.4057,0.7475,0.3418,A,-0.16,
206.0,0.50019,0.1,2.0,0.4335,0.23342,0.75863,206.0,2.23419,-0.39,-0.19174,0.30845,5.0,1D2U,1.0,True,0.251,19.0,True,left,-0.16673,1.5961,1.7463,0.1502,0.588,0.7627,0.1747,A,-0.16,
207.0,0.50019,0.1,2.0,0.42517,0.23342,0.48352,207.0,2.59267,0.9,0.45018,0.95037,5.0,lapse_rate,2.0,True,0.131,0.0,False,right,0.2501,1.5232,2.3148,0.7916,0.3734,0.9653,0.592,A,-0.16,
208.0,0.50019,1.2,2.0,0.35014,0.28344,0.55021,208.0,2.30922,0.25,0.12505,0.62524,5.0,2D1U,2.0,True,0.298,26.0,True,right,0.0,1.3983,1.8402,0.4419,0.4396,0.7567,0.3171,A,-0.18,
209.0,0.50019,1.2,2.0,0.30012,0.21675,0.5919,209.0,2.55933,0.9,0.45018,0.95037,5.0,lapse_rate,1.0,False,0.112,0.0,False,left,-0.16673,1.3061,2.0725,0.7664,0.4726,0.6226,0.15,A,-0.18,
210.0,0.50019,1.2,1.0,0.22509,0.36681,0.90035,210.0,2.30089,-0.39,-0.19174,0.30845,5.0,1D2U,2.0,True,0.192,19.0,True,right,0.2501,0.3195,0.4446,0.1251,1.3115,1.8777,0.5662,A,-0.18,
211.0,0.50019,1.2,2.0,0.24176,0.2501,0.70861,211.0,2.30923,0.21,0.10838,0.60857,5.0,2D1U,2.0,True,0.248,27.0,True,right,0.0,1.4472,1.8718,0.4246,0.3305,0.6473,0.3168,A,-0.18,
212.0,0.50019,0.1,1.0,0.23342,0.3418,0.69194,212.0,2.37592,0.21,0.10838,0.60857,5.0,2D1U,2.0,False,0.641,27.0,True,right,-0.16673,0.3048,0.7549,0.4501,1.6053,1.7801,0.1747,A,-0.16,
213.0,0.50019,0.1,2.0,0.35014,0.29178,0.76697,213.0,2.11749,-0.59,-0.29178,0.20841,5.0,lapse_rate,1.0,True,0.316,0.0,False,left,0.2501,1.7313,1.7813,0.05,0.298,0.8903,0.5922,A,-0.16,
214.0,0.50019,0.1,1.0,0.26677,0.27511,0.58356,214.0,1.95076,-0.35,-0.17507,0.32513,5.0,1D2U,1.0,False,0.272,20.0,True,left,0.0,0.3397,0.5063,0.1667,1.164,1.5057,0.3416,A,-0.16,
215.0,0.50019,0.1,1.0,0.27511,0.36681,0.51687,215.0,2.28422,0.25,0.12505,0.62524,5.0,2D1U,2.0,False,0.296,28.0,True,right,-0.16673,0.3481,0.8152,0.4671,1.4899,1.6656,0.1757,A,-0.16,
216.0,0.50019,1.2,1.0,0.24176,0.39182,0.80031,216.0,2.14249,-0.59,-0.29178,0.20841,5.0,lapse_rate,1.0,False,0.411,0.0,False,left,0.2501,0.3309,0.3561,0.0252,1.1225,1.6891,0.5666,A,-0.18,
217.0,0.50019,1.2,2.0,0.26677,0.39182,0.84199,217.0,2.30922,-0.39,-0.19174,0.30845,5.0,1D2U,1.0,True,0.206,21.0,True,left,0.0,1.6069,1.7318,0.1249,0.357,0.6735,0.3165,A,-0.18,
218.0,0.50019,1.2,2.0,0.33346,0.39182,0.42517,218.0,1.95909,-0.39,-0.19174,0.30845,5.0,1D2U,1.0,True,0.216,21.0,True,left,-0.16673,1.1733,1.2982,0.1249,0.5071,0.6562,0.1491,A,-0.18,
219.0,0.50019,1.2,2.0,0.27511,0.33346,0.5919,219.0,2.34258,0.29,0.14172,0.64192,5.0,2D1U,2.0,True,0.199,28.0,False,right,0.2501,1.4887,1.9474,0.4587,0.2387,0.8052,0.5665,A,-0.18,
220.0,0.50019,1.2,1.0,0.2501,0.45018,0.46685,220.0,1.87573,-0.59,-0.29178,0.20841,5.0,lapse_rate,2.0,True,0.229,0.0,False,right,0.0,0.3384,0.3635,0.0251,0.9218,1.2385,0.3167,A,-0.18,
221.0,0.50019,0.1,1.0,0.45018,0.26677,0.64192,221.0,2.06747,-0.59,-0.29178,0.20841,5.0,lapse_rate,2.0,True,0.266,0.0,False,right,-0.16673,0.5256,0.5747,0.0491,1.3751,1.5502,0.1751,A,-0.16,
222.0,0.50019,0.1,1.0,0.30012,0.30845,0.88368,222.0,2.31757,-0.35,-0.17507,0.32513,5.0,1D2U,2.0,True,0.19,22.0,True,right,0.2501,0.3727,0.5392,0.1665,1.3723,1.9642,0.5919,A,-0.16,
223.0,0.50019,0.1,1.0,0.20841,0.27511,0.57522,223.0,2.20085,0.29,0.14172,0.64192,5.0,2D1U,2.0,False,0.247,28.0,False,right,0.0,0.2816,0.7647,0.4832,1.4145,1.7567,0.3422,A,-0.16,
224.0,0.50019,0.1,2.0,0.3418,0.29178,0.56689,224.0,2.36759,0.33,0.16673,0.66693,5.0,2D1U,2.0,True,0.318,28.0,False,right,-0.16673,1.3198,1.8276,0.5078,0.5029,0.6785,0.1755,A,-0.16,
225.0,0.50019,0.1,2.0,0.27511,0.35847,0.58356,225.0,2.6677,0.9,0.45018,0.95037,5.0,lapse_rate,2.0,True,0.18,0.0,False,right,0.2501,1.4736,2.2653,0.7917,0.2233,0.8153,0.592,A,-0.16,
226.0,0.50019,1.2,1.0,0.29178,0.4335,0.85033,226.0,2.40093,-0.35,-0.17507,0.32513,5.0,1D2U,2.0,True,0.257,22.0,True,right,0.0,0.3813,0.5225,0.1412,1.4643,1.7806,0.3164,A,-0.18,
227.0,0.50019,1.2,1.0,0.42517,0.21675,0.71695,227.0,2.52599,0.33,0.16673,0.66693,5.0,2D1U,2.0,False,0.191,28.0,False,right,-0.16673,0.5139,0.9974,0.4834,1.889,2.039,0.15,A,-0.18,
228.0,0.50019,1.2,2.0,0.30012,0.21675,0.42517,228.0,1.65064,-0.59,-0.29178,0.20841,5.0,lapse_rate,2.0,False,0.341,0.0,False,right,0.2501,1.3479,1.3731,0.0252,0.2648,0.8312,0.5664,A,-0.18,
229.0,0.50019,1.2,1.0,0.22509,0.29178,0.87534,229.0,2.2342,-0.31,-0.1584,0.3418,5.0,1D2U,2.0,True,0.244,22.0,False,right,0.0,0.318,0.4763,0.1583,1.4435,1.7601,0.3166,A,-0.18,
230.0,0.50019,0.1,2.0,0.40016,0.35847,0.6836,230.0,2.62602,0.37,0.1834,0.6836,5.0,2D1U,2.0,True,0.113,28.0,False,right,-0.16673,1.4899,2.0147,0.5248,0.5565,0.7314,0.1749,A,-0.16,
231.0,0.50019,1.2,2.0,0.42517,0.31679,0.50853,231.0,2.70105,0.9,0.45018,0.95037,5.0,lapse_rate,2.0,True,0.113,0.0,False,right,0.2501,1.5597,2.3263,0.7666,0.393,0.9597,0.5667,A,-0.18,
232.0,0.50019,0.1,2.0,0.2501,0.36681,0.4335,232.0,1.8924,-0.31,-0.1584,0.3418,5.0,1D2U,1.0,True,0.511,22.0,False,left,0.0,1.173,1.3564,0.1835,0.3228,0.6649,0.3421,A,-0.16,
233.0,0.50019,0.1,2.0,0.33346,0.20841,0.4335,233.0,2.42593,0.9,0.45018,0.95037,5.0,lapse_rate,2.0,True,0.555,0.0,False,right,-0.16673,1.1721,1.9641,0.792,0.4892,0.6636,0.1744,A,-0.16,
234.0,0.50019,0.1,1.0,0.2501,0.21675,0.90035,234.0,2.55099,0.37,0.1834,0.6836,5.0,2D1U,1.0,True,0.525,28.0,False,left,0.2501,0.3234,0.8484,0.525,1.6982,2.2902,0.592,A,-0.16,
235.0,0.50019,1.2,1.0,0.30012,0.36681,0.64192,235.0,2.17585,-0.27,-0.13339,0.36681,5.0,1D2U,1.0,False,0.615,22.0,False,left,0.0,0.3895,0.5727,0.1832,1.306,1.6231,0.3171,A,-0.18,
236.0,0.50019,1.2,1.0,0.45018,0.40849,0.45851,236.0,2.4843,0.33,0.16673,0.66693,5.0,2D1U,1.0,True,0.392,29.0,True,left,-0.16673,0.539,1.0224,0.4834,1.6549,1.8049,0.15,A,-0.18,
237.0,0.50019,1.2,1.0,0.22509,0.36681,0.69194,237.0,2.7344,0.9,0.45018,0.95037,5.0,lapse_rate,2.0,False,0.18,0.0,False,right,0.2501,0.3136,1.0802,0.7666,1.7389,2.3053,0.5663,A,-0.18,
238.0,0.50019,1.2,2.0,0.32513,0.37515,0.53354,238.0,2.07581,-0.31,-0.1584,0.3418,5.0,1D2U,1.0,True,0.121,23.0,True,left,0.0,1.3601,1.5189,0.1587,0.4184,0.7352,0.3169,A,-0.18,
239.0,0.50019,0.1,2.0,0.33346,0.2501,0.85033,239.0,2.60101,0.33,0.16673,0.66693,5.0,2D1U,2.0,True,0.163,29.0,True,right,-0.16673,1.5892,2.0976,0.5084,0.4892,0.6642,0.175,A,-0.16,
240.0,0.50019,1.2,2.0,0.24176,0.25843,0.69194,240.0,1.90073,-0.59,-0.29178,0.20841,5.0,lapse_rate,1.0,True,0.35,0.0,False,left,0.2501,1.5612,1.5862,0.025,0.2113,0.7778,0.5665,A,-0.18,
241.0,0.50019,0.1,2.0,0.42517,0.3418,0.72528,241.0,2.33424,-0.31,-0.1584,0.3418,5.0,1D2U,1.0,True,0.304,23.0,True,left,0.0,1.6446,1.8272,0.1826,0.5026,0.8449,0.3422,A,-0.16,
242.0,0.50019,0.1,2.0,0.3418,0.28344,0.87534,242.0,2.36758,-0.27,-0.13339,0.36681,5.0,1D2U,2.0,False,0.398,24.0,True,right,-0.16673,1.6221,1.8301,0.208,0.4962,0.6713,0.1751,A,-0.16,
243.0,0.50019,0.1,2.0,0.32513,0.4335,0.79198,243.0,2.25921,-0.59,-0.29178,0.20841,5.0,lapse_rate,1.0,True,0.355,0.0,False,left,0.2501,1.7298,1.7803,0.0504,0.2715,0.8628,0.5912,A,-0.16,
244.0,0.50019,1.2,2.0,0.38348,0.33346,0.7753,244.0,2.63435,0.29,0.14172,0.64192,5.0,2D1U,2.0,True,0.245,29.0,False,right,0.0,1.659,2.1172,0.4583,0.4756,0.7925,0.3169,A,-0.18,
245.0,0.50019,0.1,2.0,0.32513,0.38348,0.67526,245.0,2.83443,0.9,0.45018,0.95037,5.0,lapse_rate,2.0,True,0.148,0.0,False,right,-0.16673,1.409,2.2,0.791,0.484,0.6581,0.1741,A,-0.16,
246.0,0.50019,1.2,1.0,0.4335,0.44184,0.71695,246.0,2.43428,-0.31,-0.1584,0.3418,5.0,1D2U,2.0,True,0.335,25.0,True,right,0.2501,0.5202,0.6792,0.1591,1.3622,1.9285,0.5663,A,-0.18,
247.0,0.50019,1.2,1.0,0.44184,0.35847,0.78364,247.0,2.72606,0.29,0.14172,0.64192,5.0,2D1U,2.0,False,0.174,29.0,False,right,0.0,0.5322,0.9902,0.4579,1.8652,2.1813,0.316,A,-0.18,
248.0,0.50019,0.1,2.0,0.24176,0.3418,0.45851,248.0,2.49263,0.9,0.45018,0.95037,5.0,lapse_rate,2.0,True,0.184,0.0,False,right,-0.16673,1.107,1.899,0.792,0.3993,0.5744,0.1751,A,-0.16,
249.0,0.50019,0.1,2.0,0.27511,0.40849,0.53354,249.0,2.38426,0.33,0.16673,0.66693,5.0,2D1U,2.0,True,0.638,30.0,True,right,0.2501,1.4239,1.9314,0.5076,0.2228,0.814,0.5912,A,-0.16,
250.0,0.50019,0.1,1.0,0.35014,0.24176,0.63358,250.0,2.06747,-0.31,-0.1584,0.3418,5.0,1D2U,2.0,True,0.484,25.0,True,right,0.0,0.4255,0.6092,0.1837,1.3176,1.659,0.3415,A,-0.16,
251.0,0.50019,0.1,1.0,0.36681,0.4335,0.40016,251.0,2.06747,-0.27,-0.13339,0.36681,5.0,1D2U,1.0,False,0.135,26.0,True,left,-0.16673,0.4401,0.6484,0.2083,1.2072,1.3818,0.1746,A,-0.16,
252.0,0.50019,1.2,2.0,0.2501,0.42517,0.51687,252.0,2.35926,0.33,0.16673,0.66693,5.0,2D1U,2.0,True,0.209,30.0,True,right,0.2501,1.3952,1.8783,0.4831,0.2202,0.7869,0.5667,A,-0.18,
253.0,0.50019,1.2,2.0,0.44184,0.35014,0.56689,253.0,2.20086,-0.31,-0.1584,0.3418,5.0,1D2U,1.0,True,0.225,27.0,True,left,0.0,1.5068,1.6654,0.1586,0.5318,0.8485,0.3167,A,-0.18,
254.0,0.50019,1.2,2.0,0.30012,0.42517,0.73362,254.0,2.3009,-0.31,-0.1584,0.3418,5.0,1D2U,2.0,False,0.209,27.0,True,right,-0.16673,1.4516,1.61,0.1584,0.4757,0.6262,0.1505,A,-0.18,
255.0,0.50019,0.1,1.0,0.2501,0.40016,0.44184,255.0,1.91742,-0.35,-0.17507,0.32513,5.0,1D2U,2.0,True,0.115,27.0,False,right,0.2501,0.3227,0.4899,0.1672,0.8815,1.4742,0.5927,A,-0.16,
256.0,0.50019,0.1,2.0,0.27511,0.22509,0.79198,256.0,2.43429,0.29,0.14172,0.64192,5.0,2D1U,2.0,True,0.163,31.0,True,right,0.0,1.5548,2.0386,0.4838,0.3464,0.6886,0.3422,A,-0.16,
257.0,0.50019,0.1,1.0,0.45018,0.41683,0.54188,257.0,2.23421,-0.35,-0.17507,0.32513,5.0,1D2U,2.0,True,0.514,27.0,False,right,-0.16673,0.5228,0.6899,0.1671,1.3896,1.5646,0.175,A,-0.16,
258.0,0.50019,1.2,2.0,0.40016,0.25843,0.83366,258.0,2.33424,-0.31,-0.1584,0.3418,5.0,1D2U,2.0,False,0.231,28.0,True,right,0.2501,1.8542,2.0129,0.1586,0.3631,0.9298,0.5666,A,-0.18,
259.0,0.50019,1.2,2.0,0.38348,0.40016,0.49186,259.0,2.41761,0.29,0.14172,0.64192,5.0,2D1U,2.0,True,0.239,31.0,True,right,0.0,1.3727,1.8317,0.459,0.4736,0.7892,0.3156,A,-0.18,
260.0,0.50019,1.2,2.0,0.41683,0.40016,0.41683,260.0,2.05914,-0.35,-0.17507,0.32513,5.0,1D2U,1.0,True,0.171,29.0,True,left,-0.16673,1.2453,1.387,0.1417,0.5868,0.7373,0.1506,A,-0.18,
261.0,0.50019,0.1,2.0,0.38348,0.32513,0.84199,261.0,2.67603,0.25,0.12505,0.62524,5.0,2D1U,2.0,True,0.113,31.0,False,right,0.2501,1.8451,2.3119,0.4668,0.3371,0.9285,0.5914,A,-0.16,
262.0,0.50019,0.1,2.0,0.32513,0.4335,0.73362,262.0,2.61768,0.25,0.12505,0.62524,5.0,2D1U,2.0,True,0.126,31.0,False,right,0.0,1.5516,2.0185,0.4669,0.4009,0.7425,0.3416,A,-0.16,
263.0,0.50019,0.1,2.0,0.28344,0.30012,0.7753,263.0,2.46762,0.21,0.10838,0.60857,5.0,2D1U,2.0,True,0.177,31.0,False,right,-0.16673,1.4632,1.9132,0.4501,0.4382,0.6134,0.1752,A,-0.16,
264.0,0.50019,1.2,2.0,0.20841,0.39182,0.84199,264.0,2.55098,0.21,0.10838,0.60857,5.0,2D1U,2.0,True,0.142,31.0,False,right,0.2501,1.6699,2.0943,0.4244,0.17,0.7368,0.5667,A,-0.18,
265.0,0.50019,1.2,1.0,0.28344,0.31679,0.72528,265.0,2.15083,-0.35,-0.17507,0.32513,5.0,1D2U,1.0,False,0.359,29.0,True,left,0.0,0.3743,0.516,0.1417,1.3328,1.6486,0.3158,A,-0.18,
266.0,0.50019,1.2,2.0,0.2501,0.25843,0.87534,266.0,2.46762,0.17,0.08337,0.58356,5.0,2D1U,2.0,True,0.258,31.0,False,right,-0.16673,1.539,1.939,0.4,0.4222,0.5722,0.15,A,-0.18,
267.0,0.50019,0.1,2.0,0.39182,0.31679,0.5252,267.0,2.31756,0.17,0.08337,0.58356,5.0,2D1U,2.0,True,0.387,31.0,False,right,0.2501,1.5359,1.9616,0.4257,0.3446,0.9361,0.5915,A,-0.16,
268.0,0.50019,0.1,2.0,0.40016,0.22509,0.72528,268.0,2.15917,-0.39,-0.19174,0.30845,5.0,1D2U,2.0,False,0.402,29.0,False,right,0.0,1.6141,1.7643,0.1502,0.4726,0.814,0.3414,A,-0.16,
269.0,0.50019,0.1,1.0,0.30012,0.24176,0.71695,269.0,2.04246,-0.43,-0.21675,0.28344,5.0,1D2U,2.0,True,0.366,29.0,False,right,-0.16673,0.3717,0.4964,0.1247,1.3715,1.5464,0.1749,A,-0.16,
270.0,0.50019,1.2,1.0,0.35014,0.44184,0.54188,270.0,2.11749,-0.43,-0.21675,0.28344,5.0,1D2U,2.0,True,0.11,29.0,False,right,0.2501,0.4422,0.5424,0.1001,1.0509,1.6176,0.5666,A,-0.18,
271.0,0.50019,1.2,1.0,0.26677,0.21675,0.80865,271.0,2.35925,0.13,0.06669,0.56689,5.0,2D1U,2.0,False,0.29,31.0,False,right,0.0,0.3539,0.738,0.384,1.6375,1.9546,0.317,A,-0.18,
272.0,0.50019,1.2,1.0,0.30012,0.20841,0.48352,272.0,1.80069,-0.39,-0.19174,0.30845,5.0,1D2U,1.0,False,0.24,30.0,True,left,-0.16673,0.3895,0.5147,0.1251,1.1728,1.323,0.1502,A,-0.18,
273.0,0.50019,0.1,1.0,0.26677,0.37515,0.41683,273.0,2.1425,0.17,0.08337,0.58356,5.0,2D1U,2.0,False,0.189,32.0,True,right,0.2501,0.3381,0.7627,0.4245,1.1299,1.7212,0.5913,A,-0.16,
274.0,0.50019,0.1,2.0,0.3418,0.21675,0.50853,274.0,1.85071,-0.43,-0.21675,0.28344,5.0,1D2U,1.0,True,0.657,31.0,True,left,0.0,1.3383,1.4637,0.1254,0.4133,0.7551,0.3418,A,-0.16,
275.0,0.50019,0.1,1.0,0.38348,0.25843,0.76697,275.0,2.19251,-0.43,-0.21675,0.28344,5.0,1D2U,2.0,True,0.346,31.0,True,right,-0.16673,0.4597,0.5847,0.125,1.5094,1.6845,0.1751,A,-0.16,
276.0,0.50019,1.2,2.0,0.40849,0.35014,0.57522,276.0,2.44261,0.21,0.10838,0.60857,5.0,2D1U,2.0,True,0.163,32.0,False,right,0.2501,1.6033,2.0284,0.4251,0.3704,0.9366,0.5662,A,-0.18,
277.0,0.50019,1.2,2.0,0.21675,0.22509,0.85867,277.0,2.40927,0.21,0.10838,0.60857,5.0,2D1U,2.0,True,0.378,32.0,False,right,0.0,1.5719,1.9971,0.4252,0.3046,0.6217,0.3171,A,-0.18,
278.0,0.50019,1.2,2.0,0.42517,0.23342,0.64192,278.0,2.10915,-0.39,-0.19174,0.30845,5.0,1D2U,1.0,True,0.329,32.0,True,left,-0.16673,1.4785,1.6043,0.1258,0.5953,0.7456,0.1503,A,-0.18,
279.0,0.50019,0.1,2.0,0.24176,0.40849,0.75863,279.0,2.21752,-0.39,-0.19174,0.30845,5.0,1D2U,1.0,True,0.249,32.0,True,left,0.2501,1.6151,1.7651,0.15,0.19,0.7816,0.5916,A,-0.16,
280.0,0.50019,0.1,2.0,0.33346,0.38348,0.75029,280.0,2.55098,0.17,0.08337,0.58356,5.0,2D1U,2.0,True,0.201,33.0,True,right,0.0,1.578,2.0036,0.4256,0.4117,0.753,0.3413,A,-0.16,
281.0,0.50019,0.1,1.0,0.38348,0.36681,0.47519,281.0,2.0508,-0.35,-0.17507,0.32513,5.0,1D2U,2.0,True,0.142,32.0,False,right,-0.16673,0.4608,0.6277,0.1669,1.2606,1.436,0.1754,A,-0.16,
282.0,0.50019,1.2,1.0,0.42517,0.32513,0.47519,282.0,2.30924,0.17,0.08337,0.58356,5.0,2D1U,1.0,True,0.493,33.0,True,left,0.2501,0.5189,0.9189,0.4,1.3605,1.9271,0.5666,A,-0.18,
283.0,0.50019,1.2,1.0,0.35014,0.36681,0.50853,283.0,2.29256,0.13,0.06669,0.56689,5.0,2D1U,1.0,True,0.239,33.0,False,left,0.0,0.4387,0.823,0.3843,1.4226,1.7393,0.3167,A,-0.18,
284.0,0.50019,1.2,1.0,0.3418,0.3418,0.49186,284.0,2.00078,-0.35,-0.17507,0.32513,5.0,1D2U,1.0,False,0.475,32.0,False,left,-0.16673,0.4321,0.5737,0.1417,1.2406,1.3906,0.1501,A,-0.18,
285.0,0.50019,0.1,1.0,0.29178,0.24176,0.51687,285.0,1.85905,-0.39,-0.19174,0.30845,5.0,1D2U,2.0,True,0.343,33.0,True,right,0.2501,0.3665,0.5161,0.1496,0.9828,1.5746,0.5918,A,-0.16,
286.0,0.50019,0.1,1.0,0.20841,0.39182,0.81698,286.0,2.48429,0.13,0.06669,0.56689,5.0,2D1U,2.0,False,0.2,33.0,False,right,0.0,0.2838,0.6928,0.409,1.5842,1.9259,0.3418,A,-0.16,
287.0,0.50019,0.1,1.0,0.20008,0.30845,0.58356,287.0,1.90073,-0.39,-0.19174,0.30845,5.0,1D2U,2.0,True,0.325,33.0,True,right,-0.16673,0.2755,0.4265,0.151,1.1679,1.3431,0.1751,A,-0.16,
288.0,0.50019,1.2,2.0,0.31679,0.42517,0.45851,288.0,2.28422,0.17,0.08337,0.58356,5.0,2D1U,1.0,False,0.411,34.0,True,left,0.2501,1.401,1.8008,0.3998,0.2842,0.8505,0.5664,A,-0.18,
289.0,0.50019,1.2,2.0,0.20841,0.3418,0.6836,289.0,2.34257,0.21,0.10838,0.60857,5.0,2D1U,2.0,True,0.316,34.0,False,right,0.0,1.3946,1.8174,0.4228,0.3015,0.618,0.3165,A,-0.18,
290.0,0.50019,1.2,1.0,0.35014,0.21675,0.5919,290.0,2.26755,0.21,0.10838,0.60857,5.0,2D1U,2.0,False,0.372,34.0,False,right,-0.16673,0.444,0.8689,0.425,1.6356,1.7855,0.1499,A,-0.18,
291.0,0.50019,0.1,2.0,0.4335,0.2501,0.71695,291.0,2.22587,-0.35,-0.17507,0.32513,5.0,1D2U,1.0,True,0.648,34.0,True,left,0.2501,1.7669,1.934,0.1671,0.3841,0.976,0.5919,A,-0.16,
292.0,0.50019,0.1,2.0,0.40016,0.2501,0.45851,292.0,2.2342,0.25,0.12505,0.62524,5.0,2D1U,2.0,True,0.367,34.0,False,right,0.0,1.3477,1.814,0.4663,0.4724,0.8137,0.3413,A,-0.16,
293.0,0.50019,0.1,2.0,0.28344,0.40849,0.81698,293.0,2.33423,-0.35,-0.17507,0.32513,5.0,1D2U,1.0,True,0.113,34.0,True,left,-0.16673,1.5074,1.675,0.1675,0.4405,0.6162,0.1756,A,-0.16,
294.0,0.50019,1.2,2.0,0.21675,0.27511,0.72528,294.0,2.34257,0.25,0.12505,0.62524,5.0,2D1U,1.0,False,0.114,34.0,False,left,0.2501,1.5626,2.0047,0.4421,0.1795,0.7467,0.5672,A,-0.18,
295.0,0.50019,1.2,2.0,0.40016,0.37515,0.88368,295.0,2.50098,-0.31,-0.1584,0.3418,5.0,1D2U,1.0,True,0.199,34.0,False,left,0.0,1.7793,1.9377,0.1585,0.4878,0.8041,0.3163,A,-0.18,
296.0,0.50019,1.2,2.0,0.40849,0.44184,0.67526,296.0,2.36758,-0.31,-0.1584,0.3418,5.0,1D2U,2.0,False,0.231,34.0,False,right,-0.16673,1.4974,1.656,0.1586,0.5808,0.731,0.1502,A,-0.18,
297.0,0.50019,0.1,1.0,0.41683,0.25843,0.56689,297.0,2.38426,0.29,0.14172,0.64192,5.0,2D1U,2.0,False,0.211,34.0,False,right,0.2501,0.4871,0.9703,0.4832,1.4875,2.0788,0.5913,A,-0.16,
298.0,0.50019,0.1,2.0,0.28344,0.30012,0.53354,298.0,1.94242,-0.35,-0.17507,0.32513,5.0,1D2U,1.0,True,0.258,35.0,True,left,0.0,1.3051,1.4717,0.1666,0.3545,0.6966,0.3421,A,-0.16,
299.0,0.50019,0.1,2.0,0.36681,0.26677,0.60857,299.0,2.40927,0.33,0.16673,0.66693,5.0,2D1U,2.0,True,0.231,34.0,False,right,-0.16673,1.3869,1.8955,0.5086,0.5286,0.7036,0.175,A,-0.16,
300.0,0.50019,1.2,2.0,0.28344,0.40016,0.80031,300.0,2.30923,-0.35,-0.17507,0.32513,5.0,1D2U,1.0,True,0.19,35.0,True,left,0.2501,1.7043,1.8463,0.1419,0.2459,0.8127,0.5668,A,-0.18,
301.0,0.50019,1.2,1.0,0.20841,0.40849,0.45018,301.0,2.2342,0.33,0.16673,0.66693,5.0,2D1U,1.0,True,0.113,34.0,False,left,0.0,0.2975,0.7804,0.4829,1.3228,1.6393,0.3165,A,-0.18,
302.0,0.50019,1.2,2.0,0.44184,0.4335,0.7753,302.0,2.79275,0.29,0.14172,0.64192,5.0,2D1U,2.0,True,0.458,35.0,True,right,-0.16673,1.6318,2.09,0.4581,0.615,0.7645,0.1496,A,-0.18,
303.0,0.50019,0.1,1.0,0.21675,0.31679,0.90035,303.0,2.27588,-0.31,-0.1584,0.3418,5.0,1D2U,1.0,False,0.258,36.0,True,left,0.2501,0.2941,0.4777,0.1835,1.3276,1.9191,0.5916,A,-0.16,
304.0,0.50019,0.1,1.0,0.44184,0.42517,0.76697,304.0,2.77609,0.29,0.14172,0.64192,5.0,2D1U,2.0,False,0.111,35.0,True,right,0.0,0.5138,0.997,0.4832,1.8387,2.18,0.3413,A,-0.16,
305.0,0.50019,0.1,2.0,0.30012,0.42517,0.64192,305.0,2.19253,-0.35,-0.17507,0.32513,5.0,1D2U,2.0,False,0.155,37.0,True,right,-0.16673,1.3462,1.5129,0.1667,0.4543,0.6299,0.1755,A,-0.16,
306.0,0.50019,1.2,2.0,0.37515,0.41683,0.40016,306.0,2.00078,-0.39,-0.19174,0.30845,5.0,1D2U,2.0,False,0.412,37.0,False,right,0.2501,1.3991,1.5242,0.1252,0.3404,0.9076,0.5672,A,-0.18,
307.0,0.50019,1.2,1.0,0.36681,0.31679,0.54188,307.0,2.3926,0.33,0.16673,0.66693,5.0,2D1U,1.0,True,0.306,36.0,True,left,0.0,0.454,0.9374,0.4834,1.5712,1.8871,0.3159,A,-0.18,
308.0,0.50019,1.2,2.0,0.24176,0.35014,0.79198,308.0,2.16751,-0.43,-0.21675,0.28344,5.0,1D2U,2.0,False,0.31,37.0,False,right,-0.16673,1.453,1.5532,0.1002,0.4197,0.5696,0.15,A,-0.18,
309.0,0.50019,0.1,1.0,0.26677,0.21675,0.49186,309.0,2.1425,0.33,0.16673,0.66693,5.0,2D1U,2.0,False,0.301,36.0,True,right,0.2501,0.3402,0.8485,0.5083,1.2905,1.8817,0.5912,A,-0.16,
310.0,0.50019,0.1,2.0,0.4335,0.41683,0.76697,310.0,2.38426,-0.47,-0.23342,0.26677,5.0,1D2U,1.0,True,0.333,37.0,False,left,0.0,1.6888,1.7972,0.1084,0.5053,0.8473,0.342,A,-0.16,
311.0,0.50019,0.1,2.0,0.30012,0.21675,0.76697,311.0,2.46763,0.37,0.1834,0.6836,5.0,2D1U,2.0,True,0.225,36.0,False,right,-0.16673,1.4718,1.9975,0.5256,0.4551,0.6296,0.1746,A,-0.16,
312.0,0.50019,1.2,1.0,0.27511,0.20841,0.72528,312.0,1.97576,-0.47,-0.23342,0.26677,5.0,1D2U,2.0,True,0.407,37.0,False,right,0.2501,0.3694,0.4527,0.0833,1.1443,1.7105,0.5662,A,-0.18,
313.0,0.50019,1.2,2.0,0.20841,0.2501,0.58356,313.0,1.8257,-0.43,-0.21675,0.28344,5.0,1D2U,1.0,True,0.307,38.0,True,left,0.0,1.2899,1.39,0.1001,0.2984,0.6152,0.3168,A,-0.18,
314.0,0.50019,1.2,1.0,0.3418,0.26677,0.45851,314.0,1.85071,-0.43,-0.21675,0.28344,5.0,1D2U,1.0,False,0.59,38.0,True,left,-0.16673,0.4313,0.5319,0.1006,1.1651,1.315,0.1499,A,-0.18,
315.0,0.50019,0.1,1.0,0.42517,0.28344,0.71695,315.0,2.19252,-0.47,-0.23342,0.26677,5.0,1D2U,1.0,False,0.586,39.0,True,left,0.2501,0.502,0.6111,0.1091,1.2778,1.8692,0.5914,A,-0.16,
316.0,0.50019,0.1,2.0,0.20841,0.20841,0.46685,316.0,2.06746,0.37,0.1834,0.6836,5.0,2D1U,2.0,True,0.279,36.0,False,right,0.0,1.1649,1.6902,0.5253,0.282,0.6237,0.3416,A,-0.16,
317.0,0.50019,0.1,1.0,0.45018,0.35847,0.80031,317.0,2.77608,0.33,0.16673,0.66693,5.0,2D1U,2.0,False,0.114,37.0,True,right,-0.16673,0.5238,1.0318,0.5079,1.9906,2.1655,0.175,A,-0.16,
318.0,0.50019,1.2,1.0,0.27511,0.29178,0.85867,318.0,2.60935,0.37,0.1834,0.6836,5.0,2D1U,2.0,False,0.237,38.0,True,right,0.2501,0.3695,0.8692,0.4996,1.694,2.2601,0.5661,A,-0.18,
319.0,0.50019,1.2,1.0,0.20008,0.42517,0.69194,319.0,2.05914,-0.51,-0.25843,0.24176,5.0,1D2U,2.0,True,0.326,39.0,False,right,0.0,0.294,0.352,0.058,1.1358,1.4523,0.3165,A,-0.18,
320.0,0.50019,1.2,2.0,0.40849,0.4335,0.69194,320.0,2.74273,0.41,0.20841,0.70861,5.0,2D1U,2.0,True,0.111,38.0,False,right,-0.16673,1.5149,2.0402,0.5254,0.5822,0.7325,0.1504,A,-0.18,
321.0,0.50019,0.1,1.0,0.35014,0.41683,0.44184,321.0,2.41761,0.41,0.20841,0.70861,5.0,2D1U,1.0,True,0.113,38.0,False,left,0.2501,0.4272,0.9772,0.55,1.3692,1.9605,0.5913,A,-0.16,
322.0,0.50019,0.1,1.0,0.42517,0.40849,0.65025,322.0,2.22586,-0.51,-0.25843,0.24176,5.0,1D2U,2.0,True,0.35,39.0,False,right,0.0,0.5013,0.5844,0.083,1.3096,1.6517,0.3421,A,-0.16,
323.0,0.50019,0.1,2.0,0.41683,0.39182,0.55021,323.0,2.54265,0.37,0.1834,0.6836,5.0,2D1U,2.0,True,0.113,39.0,True,right,-0.16673,1.3706,1.8955,0.5249,0.5707,0.7451,0.1745,A,-0.16,
324.0,0.50019,1.2,2.0,0.28344,0.27511,0.63358,324.0,1.95909,-0.47,-0.23342,0.26677,5.0,1D2U,1.0,True,0.295,40.0,True,left,0.2501,1.5382,1.6215,0.0833,0.2458,0.8131,0.5673,A,-0.18,
325.0,0.50019,1.2,1.0,0.27511,0.31679,0.79198,325.0,2.15084,-0.47,-0.23342,0.26677,5.0,1D2U,1.0,False,0.296,40.0,True,left,0.0,0.3648,0.4485,0.0837,1.3315,1.6479,0.3164,A,-0.18,
326.0,0.50019,1.2,2.0,0.35847,0.4335,0.79198,326.0,2.3259,-0.51,-0.25843,0.24176,5.0,1D2U,1.0,True,0.114,41.0,True,left,-0.16673,1.5675,1.6259,0.0584,0.5344,0.6843,0.1499,A,-0.18,
327.0,0.50019,0.1,2.0,0.33346,0.3418,0.80865,327.0,2.22586,-0.51,-0.25843,0.24176,5.0,1D2U,1.0,True,0.174,41.0,True,left,0.2501,1.7584,1.8414,0.083,0.2837,0.8754,0.5917,A,-0.16,
328.0,0.50019,0.1,1.0,0.38348,0.32513,0.45851,328.0,2.35091,0.37,0.1834,0.6836,5.0,2D1U,1.0,True,0.114,39.0,True,left,0.0,0.4613,0.9867,0.5253,1.5202,1.8609,0.3407,A,-0.16,
329.0,0.50019,0.1,2.0,0.28344,0.40849,0.49186,329.0,2.35091,0.33,0.16673,0.66693,5.0,2D1U,2.0,True,0.526,39.0,False,right,-0.16673,1.1795,1.6871,0.5076,0.4374,0.6121,0.1747,A,-0.16,
330.0,0.50019,1.2,2.0,0.27511,0.20008,0.4335,330.0,2.07581,0.33,0.16673,0.66693,5.0,2D1U,2.0,True,0.252,39.0,False,right,0.2501,1.3293,1.8122,0.4829,0.2378,0.8042,0.5664,A,-0.18,
331.0,0.50019,1.2,2.0,0.21675,0.35847,0.69194,331.0,2.03412,-0.47,-0.23342,0.26677,5.0,1D2U,1.0,True,0.151,42.0,True,left,0.0,1.4075,1.4907,0.0832,0.3082,0.6244,0.3163,A,-0.18,
332.0,0.50019,1.2,1.0,0.39182,0.31679,0.76697,332.0,2.61769,0.29,0.14172,0.64192,5.0,2D1U,1.0,True,0.115,39.0,False,left,-0.16673,0.486,0.9443,0.4584,1.8858,2.0361,0.1502,A,-0.18,
333.0,0.50019,0.1,1.0,0.4335,0.25843,0.40849,333.0,1.86738,-0.47,-0.23342,0.26677,5.0,1D2U,2.0,True,0.137,42.0,True,right,0.2501,0.5041,0.6124,0.1082,0.9709,1.5624,0.5915,A,-0.16,
334.0,0.50019,0.1,1.0,0.35847,0.23342,0.57522,334.0,2.30922,0.29,0.14172,0.64192,5.0,2D1U,1.0,True,0.155,39.0,False,left,0.0,0.4307,0.9138,0.4832,1.5646,1.9055,0.3409,A,-0.16,
335.0,0.50019,0.1,1.0,0.40849,0.30012,0.85033,335.0,2.34257,-0.43,-0.21675,0.28344,5.0,1D2U,2.0,True,0.183,42.0,False,right,-0.16673,0.4845,0.6093,0.1248,1.6178,1.7932,0.1754,A,-0.16,
336.0,0.50019,1.2,2.0,0.35014,0.40849,0.40849,336.0,2.29255,0.25,0.12505,0.62524,5.0,2D1U,2.0,True,0.111,39.0,False,right,0.2501,1.3809,1.8229,0.442,0.3146,0.8808,0.5663,A,-0.18,
337.0,0.50019,1.2,2.0,0.23342,0.35847,0.79198,337.0,2.5093,0.25,0.12505,0.62524,5.0,2D1U,2.0,True,0.225,39.0,False,right,0.0,1.5242,1.965,0.4409,0.3236,0.6404,0.3167,A,-0.18,
338.0,0.50019,1.2,2.0,0.22509,0.39182,0.70027,338.0,2.10081,-0.43,-0.21675,0.28344,5.0,1D2U,1.0,True,0.113,42.0,False,left,-0.16673,1.3406,1.4408,0.1002,0.3991,0.549,0.1499,A,-0.18,
339.0,0.50019,0.1,1.0,0.36681,0.40016,0.60857,339.0,2.18418,-0.39,-0.19174,0.30845,5.0,1D2U,2.0,True,0.112,42.0,False,right,0.2501,0.4443,0.595,0.1507,1.1531,1.7449,0.5917,A,-0.16,
340.0,0.50019,0.1,2.0,0.21675,0.44184,0.90035,340.0,2.6677,0.21,0.10838,0.60857,5.0,2D1U,2.0,True,1.083,39.0,False,right,0.0,1.6083,2.0581,0.4498,0.2918,0.6337,0.3419,A,-0.16,
341.0,0.50019,0.1,1.0,0.26677,0.41683,0.51687,341.0,2.00911,-0.39,-0.19174,0.30845,5.0,1D2U,1.0,False,0.109,42.0,False,left,-0.16673,0.3449,0.4951,0.1502,1.1692,1.3446,0.1754,A,-0.16,
342.0,0.50019,1.2,1.0,0.27511,0.29178,0.85867,342.0,2.53432,0.21,0.10838,0.60857,5.0,2D1U,2.0,False,0.201,39.0,False,right,0.2501,0.3652,0.7896,0.4244,1.6152,2.1825,0.5673,A,-0.18,
343.0,0.50019,1.2,2.0,0.20841,0.32513,0.79198,343.0,2.10915,-0.43,-0.21675,0.28344,5.0,1D2U,1.0,True,0.307,43.0,True,left,0.0,1.4978,1.598,0.1002,0.298,0.6146,0.3167,A,-0.18,
344.0,0.50019,1.2,2.0,0.42517,0.37515,0.44184,344.0,2.36759,0.25,0.12505,0.62524,5.0,2D1U,1.0,False,0.113,40.0,True,left,-0.16673,1.2811,1.7221,0.441,0.598,0.7472,0.1492,A,-0.18,
345.0,0.50019,0.1,2.0,0.37515,0.33346,0.70861,345.0,2.20085,-0.43,-0.21675,0.28344,5.0,1D2U,2.0,False,0.221,43.0,True,right,0.2501,1.6997,1.8246,0.125,0.3243,0.916,0.5917,A,-0.16,
346.0,0.50019,0.1,1.0,0.25843,0.40849,0.74196,346.0,2.17584,-0.47,-0.23342,0.26677,5.0,1D2U,2.0,True,0.111,43.0,False,right,0.0,0.33,0.4393,0.1093,1.2557,1.5976,0.3418,A,-0.16,
347.0,0.50019,0.1,2.0,0.40849,0.37515,0.867,347.0,2.79275,0.29,0.14172,0.64192,5.0,2D1U,2.0,True,0.111,40.0,False,right,-0.16673,1.6791,2.1628,0.4836,0.5623,0.7375,0.1751,A,-0.16,
348.0,0.50019,1.2,2.0,0.36681,0.21675,0.69194,348.0,2.41761,0.29,0.14172,0.64192,5.0,2D1U,1.0,False,0.24,40.0,False,left,0.2501,1.6828,2.1419,0.4591,0.3339,0.9003,0.5664,A,-0.18,
349.0,0.50019,1.2,1.0,0.35014,0.35847,0.62524,349.0,2.10081,-0.47,-0.23342,0.26677,5.0,1D2U,2.0,True,0.113,43.0,False,right,0.0,0.438,0.5216,0.0836,1.2377,1.5546,0.3169,A,-0.18,
350.0,0.50019,1.2,1.0,0.35014,0.40016,0.88368,350.0,2.8011,0.33,0.16673,0.66693,5.0,2D1U,2.0,False,0.565,40.0,False,right,-0.16673,0.4377,0.9209,0.4832,1.9793,2.1294,0.1501,A,-0.18,
351.0,0.50019,0.1,2.0,0.4335,0.27511,0.72528,351.0,2.21752,-0.43,-0.21675,0.28344,5.0,1D2U,1.0,True,0.299,44.0,True,left,0.2501,1.7708,1.8962,0.1254,0.3794,0.971,0.5916,A,-0.16,
352.0,0.50019,0.1,1.0,0.31679,0.4335,0.72528,352.0,2.65936,0.37,0.1834,0.6836,5.0,2D1U,1.0,True,0.114,40.0,False,left,0.0,0.3885,0.9134,0.525,1.7145,2.0553,0.3408,A,-0.16,
353.0,0.50019,0.1,2.0,0.25843,0.24176,0.69194,353.0,2.37592,0.37,0.1834,0.6836,5.0,2D1U,2.0,True,0.172,40.0,False,right,-0.16673,1.356,1.8805,0.5245,0.4139,0.5888,0.175,A,-0.16,
354.0,0.50019,1.2,1.0,0.21675,0.28344,0.88368,354.0,2.1675,-0.43,-0.21675,0.28344,5.0,1D2U,1.0,False,0.232,44.0,True,left,0.2501,0.3112,0.4105,0.0993,1.2611,1.8278,0.5667,A,-0.18,
355.0,0.50019,1.2,2.0,0.2501,0.3418,0.79198,355.0,2.551,0.33,0.16673,0.66693,5.0,2D1U,2.0,True,0.113,41.0,True,right,0.0,1.5441,2.0269,0.4828,0.3438,0.6602,0.3164,A,-0.18,
356.0,0.50019,1.2,1.0,0.24176,0.29178,0.69194,356.0,2.3926,0.33,0.16673,0.66693,5.0,2D1U,1.0,True,0.148,41.0,True,left,-0.16673,0.3286,0.8128,0.4842,1.6794,1.8294,0.15,A,-0.18,
357.0,0.50019,0.1,2.0,0.22509,0.30012,0.80865,357.0,2.47597,0.29,0.14172,0.64192,5.0,2D1U,2.0,True,0.226,41.0,False,right,0.2501,1.6455,2.1282,0.4827,0.1704,0.7616,0.5912,A,-0.16,
358.0,0.50019,0.1,1.0,0.26677,0.42517,0.66693,358.0,2.12583,-0.47,-0.23342,0.26677,5.0,1D2U,2.0,True,0.109,45.0,True,right,0.0,0.3443,0.4527,0.1085,1.1946,1.5364,0.3417,A,-0.16,
359.0,0.50019,0.1,2.0,0.30012,0.24176,0.65859,359.0,1.96743,-0.47,-0.23342,0.26677,5.0,1D2U,1.0,True,0.206,45.0,True,left,-0.16673,1.3642,1.4725,0.1083,0.4556,0.6307,0.1751,A,-0.16,
360.0,0.50019,1.2,1.0,0.4335,0.26677,0.55021,360.0,2.03411,-0.43,-0.21675,0.28344,5.0,1D2U,2.0,True,0.205,46.0,True,right,0.2501,0.5245,0.6246,0.1001,1.1412,1.7079,0.5667,A,-0.18,
361.0,0.50019,1.2,1.0,0.21675,0.32513,0.5919,361.0,2.27589,0.29,0.14172,0.64192,5.0,2D1U,1.0,True,0.249,41.0,False,left,0.0,0.3081,0.7664,0.4583,1.4498,1.7668,0.317,A,-0.18,
362.0,0.50019,1.2,2.0,0.28344,0.33346,0.6836,362.0,2.08413,-0.43,-0.21675,0.28344,5.0,1D2U,1.0,True,0.405,46.0,True,left,-0.16673,1.3859,1.4852,0.0993,0.4598,0.6107,0.1509,A,-0.18,
363.0,0.50019,0.1,2.0,0.32513,0.42517,0.56689,363.0,2.44262,0.25,0.12505,0.62524,5.0,2D1U,2.0,True,0.531,41.0,False,right,0.2501,1.5052,1.9724,0.4672,0.2724,0.864,0.5916,A,-0.16,
364.0,0.50019,0.1,2.0,0.38348,0.39182,0.66693,364.0,2.56766,0.25,0.12505,0.62524,5.0,2D1U,2.0,True,0.112,41.0,False,right,0.0,1.5403,2.0072,0.4669,0.4571,0.7985,0.3414,A,-0.16,
365.0,0.50019,0.1,1.0,0.27511,0.40849,0.6836,365.0,2.47596,0.21,0.10838,0.60857,5.0,2D1U,1.0,True,0.582,41.0,False,left,-0.16673,0.3514,0.801,0.4495,1.6432,1.818,0.1748,A,-0.16,
366.0,0.50019,1.2,2.0,0.27511,0.36681,0.80031,366.0,2.55099,0.21,0.10838,0.60857,5.0,2D1U,2.0,True,0.257,41.0,False,right,0.2501,1.6976,2.123,0.4253,0.2396,0.8064,0.5668,A,-0.18,
367.0,0.50019,1.2,1.0,0.40016,0.42517,0.44184,367.0,2.07581,-0.39,-0.19174,0.30845,5.0,1D2U,2.0,True,0.109,46.0,False,right,0.0,0.4891,0.6147,0.1256,1.1481,1.4642,0.316,A,-0.18,
368.0,0.50019,1.2,2.0,0.32513,0.40016,0.867,368.0,2.40093,-0.39,-0.19174,0.30845,5.0,1D2U,1.0,True,0.116,46.0,False,left,-0.16673,1.6111,1.7363,0.1252,0.5029,0.6534,0.1505,A,-0.18,
369.0,0.50019,0.1,1.0,0.23342,0.4335,0.84199,369.0,2.59266,0.17,0.08337,0.58356,5.0,2D1U,2.0,False,0.583,41.0,False,right,0.2501,0.3037,0.7288,0.4251,1.5209,2.1122,0.5913,A,-0.16,
370.0,0.50019,0.1,1.0,0.32513,0.39182,0.45851,370.0,2.28422,0.21,0.10838,0.60857,5.0,2D1U,2.0,False,0.511,42.0,True,right,0.0,0.4012,0.8512,0.45,1.3845,1.7262,0.3417,A,-0.16,
371.0,0.50019,0.1,2.0,0.45018,0.35014,0.45851,371.0,2.38426,0.25,0.12505,0.62524,5.0,2D1U,2.0,True,0.111,42.0,False,right,-0.16673,1.3154,1.7821,0.4667,0.6071,0.7816,0.1745,A,-0.16,
372.0,0.50019,1.2,2.0,0.28344,0.35847,0.51687,372.0,1.9841,-0.35,-0.17507,0.32513,5.0,1D2U,1.0,True,0.197,46.0,False,left,0.2501,1.4229,1.5648,0.1419,0.2483,0.8148,0.5666,A,-0.18,
373.0,0.50019,1.2,2.0,0.30845,0.20841,0.85033,373.0,2.19251,-0.35,-0.17507,0.32513,5.0,1D2U,1.0,True,0.283,46.0,False,left,0.0,1.6559,1.7977,0.1418,0.3973,0.7139,0.3166,A,-0.18,
374.0,0.50019,1.2,2.0,0.35014,0.32513,0.61691,374.0,2.13417,-0.31,-0.1584,0.3418,5.0,1D2U,2.0,False,0.181,46.0,False,right,-0.16673,1.3824,1.541,0.1586,0.5243,0.6744,0.1502,A,-0.18,
375.0,0.50019,0.1,1.0,0.32513,0.20841,0.63358,375.0,2.29255,0.25,0.12505,0.62524,5.0,2D1U,1.0,True,0.229,42.0,False,left,0.2501,0.3889,0.8558,0.4669,1.4369,2.0291,0.5923,A,-0.16,
376.0,0.50019,0.1,2.0,0.27511,0.31679,0.44184,376.0,2.1425,0.21,0.10838,0.60857,5.0,2D1U,2.0,True,0.134,43.0,True,right,0.0,1.2045,1.6541,0.4496,0.3455,0.6879,0.3424,A,-0.16,
377.0,0.50019,0.1,1.0,0.32513,0.35014,0.57522,377.0,2.07581,-0.35,-0.17507,0.32513,5.0,1D2U,2.0,True,0.11,47.0,True,right,-0.16673,0.4009,0.5673,0.1664,1.3,1.4749,0.175,A,-0.16,
378.0,0.50019,1.2,2.0,0.20841,0.23342,0.44184,378.0,1.99243,0.21,0.10838,0.60857,5.0,2D1U,2.0,True,0.166,43.0,True,right,0.2501,1.273,1.6979,0.4249,0.1734,0.7396,0.5662,A,-0.18,
379.0,0.50019,1.2,1.0,0.3418,0.22509,0.70027,379.0,2.09248,-0.35,-0.17507,0.32513,5.0,1D2U,2.0,True,0.214,47.0,True,right,0.0,0.4363,0.578,0.1417,1.37,1.6862,0.3163,A,-0.18,
380.0,0.50019,1.2,1.0,0.37515,0.40016,0.63358,380.0,2.49264,0.17,0.08337,0.58356,5.0,2D1U,2.0,False,0.179,43.0,False,right,-0.16673,0.4697,0.8697,0.4,1.6776,1.8282,0.1507,A,-0.18,
381.0,0.50019,0.1,1.0,0.2501,0.25843,0.71695,381.0,2.06747,-0.31,-0.1584,0.3418,5.0,1D2U,2.0,True,0.276,48.0,True,right,0.2501,0.3228,0.5057,0.1829,1.1728,1.7645,0.5917,A,-0.16,
382.0,0.50019,0.1,1.0,0.39182,0.32513,0.73362,382.0,2.29256,-0.31,-0.1584,0.3418,5.0,1D2U,2.0,True,0.114,48.0,True,right,0.0,0.4682,0.6515,0.1833,1.4598,1.8015,0.3417,A,-0.16,
383.0,0.50019,0.1,2.0,0.3418,0.39182,0.5919,383.0,2.19252,-0.27,-0.13339,0.36681,5.0,1D2U,2.0,False,0.383,48.0,False,right,-0.16673,1.3443,1.5528,0.2085,0.5029,0.678,0.1751,A,-0.16,
384.0,0.50019,1.2,1.0,0.37515,0.27511,0.66693,384.0,2.15918,-0.31,-0.1584,0.3418,5.0,1D2U,2.0,True,0.271,49.0,True,right,0.2501,0.4651,0.6232,0.1581,1.2566,1.8233,0.5667,A,-0.18,
385.0,0.50019,1.2,2.0,0.4335,0.40016,0.44184,385.0,2.38426,0.21,0.10838,0.60857,5.0,2D1U,1.0,False,0.111,44.0,True,left,0.0,1.375,1.8004,0.4254,0.5249,0.8415,0.3166,A,-0.18,
386.0,0.50019,1.2,2.0,0.30845,0.44184,0.58356,386.0,2.45928,0.25,0.12505,0.62524,5.0,2D1U,2.0,True,0.506,44.0,False,right,-0.16673,1.3067,1.7483,0.4416,0.4816,0.6318,0.1501,A,-0.18,
387.0,0.50019,0.1,1.0,0.27511,0.4335,0.73362,387.0,2.28422,-0.31,-0.1584,0.3418,5.0,1D2U,2.0,True,0.47,49.0,True,right,0.2501,0.3469,0.5303,0.1834,1.2135,1.8052,0.5916,A,-0.16,
388.0,0.50019,0.1,1.0,0.4335,0.45018,0.85033,388.0,2.85944,0.25,0.12505,0.62524,5.0,2D1U,1.0,True,0.113,44.0,False,left,0.0,0.5092,0.9757,0.4665,1.9007,2.2431,0.3424,A,-0.16,
389.0,0.50019,0.1,1.0,0.44184,0.32513,0.57522,389.0,2.45095,0.21,0.10838,0.60857,5.0,2D1U,1.0,True,0.111,45.0,True,left,-0.16673,0.5127,0.9632,0.4505,1.6961,1.871,0.1748,A,-0.16,
390.0,0.50019,1.2,2.0,0.30845,0.28344,0.87534,390.0,2.57599,0.21,0.10838,0.60857,5.0,2D1U,1.0,False,0.203,45.0,True,left,0.2501,1.8071,2.2321,0.425,0.274,0.8404,0.5665,A,-0.18,
391.0,0.50019,1.2,1.0,0.23342,0.44184,0.57522,391.0,2.11748,-0.27,-0.13339,0.36681,5.0,1D2U,2.0,True,0.11,50.0,True,right,0.0,0.3226,0.5054,0.1828,1.1724,1.4888,0.3164,A,-0.18,
392.0,0.50019,1.2,2.0,0.3418,0.25843,0.90035,392.0,2.36758,-0.27,-0.13339,0.36681,5.0,1D2U,2.0,False,0.234,50.0,True,right,-0.16673,1.6559,1.8385,0.1826,0.5139,0.664,0.15,A,-0.18,
393.0,0.50019,0.1,2.0,0.40849,0.35014,0.78364,393.0,2.6677,0.25,0.12505,0.62524,5.0,2D1U,2.0,True,0.139,46.0,True,right,0.2501,1.8057,2.2723,0.4666,0.356,0.9472,0.5912,A,-0.16,
394.0,0.50019,0.1,2.0,0.45018,0.40849,0.82532,394.0,2.80942,0.25,0.12505,0.62524,5.0,2D1U,2.0,True,0.11,46.0,True,right,0.0,1.7637,2.2307,0.467,0.5212,0.8632,0.342,A,-0.16,
395.0,0.50019,0.1,2.0,0.30012,0.25843,0.6836,395.0,2.08414,-0.31,-0.1584,0.3418,5.0,1D2U,2.0,False,0.307,51.0,True,right,-0.16673,1.3893,1.5726,0.1833,0.4557,0.6311,0.1754,A,-0.16,
396.0,0.50019,1.2,2.0,0.21675,0.38348,0.90035,396.0,2.3259,-0.35,-0.17507,0.32513,5.0,1D2U,1.0,True,0.149,51.0,False,left,0.2501,1.7406,1.8818,0.1412,0.1815,0.7477,0.5662,A,-0.18,
397.0,0.50019,1.2,1.0,0.36681,0.20008,0.57522,397.0,2.25087,0.21,0.10838,0.60857,5.0,2D1U,1.0,True,0.192,47.0,True,left,0.0,0.4604,0.8854,0.425,1.552,1.8685,0.3165,A,-0.18,
398.0,0.50019,1.2,2.0,0.39182,0.35014,0.61691,398.0,2.46763,0.21,0.10838,0.60857,5.0,2D1U,2.0,True,0.114,47.0,True,right,-0.16673,1.4227,1.8476,0.4249,0.5639,0.7142,0.1503,A,-0.18,
399.0,0.50019,0.1,2.0,0.28344,0.40849,0.55021,399.0,2.06746,-0.35,-0.17507,0.32513,5.0,1D2U,1.0,True,0.245,51.0,False,left,0.2501,1.4532,1.6195,0.1663,0.2354,0.8281,0.5927,A,-0.16,
400.0,0.50019,0.1,1.0,0.20841,0.35847,0.47519,400.0,2.12582,0.17,0.08337,0.58356,5.0,2D1U,1.0,True,0.114,47.0,False,left,0.0,0.2814,0.7059,0.4245,1.2559,1.5972,0.3414,A,-0.16,
401.0,0.50019,0.1,2.0,0.33346,0.23342,0.72528,401.0,2.13415,-0.31,-0.1584,0.3418,5.0,1D2U,1.0,True,0.367,52.0,True,left,-0.16673,1.4677,1.6506,0.1829,0.4927,0.6677,0.175,A,-0.16,
402.0,0.50019,1.2,2.0,0.35847,0.33346,0.61691,402.0,2.39259,0.17,0.08337,0.58356,5.0,2D1U,2.0,True,0.188,47.0,False,right,0.2501,1.5968,1.9973,0.4004,0.322,0.8885,0.5666,A,-0.18,
403.0,0.50019,1.2,2.0,0.35847,0.35014,0.73362,403.0,2.28422,-0.31,-0.1584,0.3418,5.0,1D2U,1.0,True,0.111,52.0,True,left,0.0,1.5948,1.7527,0.1579,0.4523,0.7689,0.3166,A,-0.18,
404.0,0.50019,1.2,1.0,0.31679,0.41683,0.78364,404.0,2.38426,-0.27,-0.13339,0.36681,5.0,1D2U,2.0,True,0.11,52.0,False,right,-0.16673,0.4103,0.5936,0.1833,1.5519,1.7017,0.1499,A,-0.18,
405.0,0.50019,0.1,2.0,0.44184,0.44184,0.89201,405.0,2.84277,0.13,0.06669,0.56689,5.0,2D1U,2.0,True,0.686,47.0,False,right,0.2501,1.9451,2.3538,0.4087,0.3871,0.9791,0.592,A,-0.16,
406.0,0.50019,0.1,2.0,0.30845,0.26677,0.71695,406.0,2.15917,-0.27,-0.13339,0.36681,5.0,1D2U,1.0,True,0.196,52.0,False,left,0.0,1.5151,1.7231,0.2079,0.3814,0.723,0.3416,A,-0.16,
407.0,0.50019,0.1,1.0,0.36681,0.21675,0.69194,407.0,2.15917,-0.23,-0.11671,0.38348,5.0,1D2U,2.0,True,0.162,52.0,False,right,-0.16673,0.4384,0.6635,0.2251,1.5134,1.6884,0.1751,A,-0.16,
408.0,0.50019,1.2,2.0,0.20841,0.29178,0.53354,408.0,1.9174,-0.23,-0.11671,0.38348,5.0,1D2U,1.0,True,0.263,52.0,False,left,0.2501,1.3632,1.5631,0.1999,0.1715,0.7386,0.5672,A,-0.18,
409.0,0.50019,1.2,2.0,0.24176,0.30012,0.46685,409.0,2.07581,0.13,0.06669,0.56689,5.0,2D1U,2.0,True,0.111,47.0,False,right,0.0,1.2099,1.5934,0.3835,0.3347,0.6509,0.3162,A,-0.18,
410.0,0.50019,1.2,1.0,0.23342,0.28344,0.87534,410.0,2.43427,0.09,0.04168,0.54188,5.0,2D1U,2.0,False,0.214,47.0,False,right,-0.16673,0.3221,0.681,0.3588,1.7308,1.8809,0.1501,A,-0.18,
411.0,0.50019,0.1,2.0,0.21675,0.21675,0.90035,411.0,2.24253,-0.19,-0.0917,0.40849,5.0,1D2U,1.0,True,0.263,52.0,False,left,0.2501,1.7288,1.979,0.2502,0.1623,0.7534,0.5911,A,-0.16,
412.0,0.50019,0.1,1.0,0.42517,0.20841,0.48352,412.0,2.02578,-0.19,-0.0917,0.40849,5.0,1D2U,1.0,False,0.341,52.0,False,left,0.0,0.4976,0.7469,0.2493,1.306,1.6474,0.3414,A,-0.16,
413.0,0.50019,0.1,1.0,0.42517,0.40849,0.42517,413.0,2.32591,0.13,0.06669,0.56689,5.0,2D1U,1.0,True,0.111,48.0,True,left,-0.16673,0.4968,0.9053,0.4084,1.4883,1.6634,0.1751,A,-0.16,
414.0,0.50019,1.2,1.0,0.38348,0.3418,0.76697,414.0,2.37592,-0.23,-0.11671,0.38348,5.0,1D2U,2.0,True,0.135,53.0,True,right,0.2501,0.4754,0.6754,0.2,1.409,1.9754,0.5664,A,-0.18,
415.0,0.50019,1.2,1.0,0.4335,0.33346,0.46685,415.0,2.30089,0.13,0.06669,0.56689,5.0,2D1U,2.0,False,0.112,48.0,True,right,0.0,0.5229,0.9069,0.3839,1.4648,1.7817,0.3169,A,-0.18,
416.0,0.50019,1.2,2.0,0.40849,0.35847,0.79198,416.0,2.64269,0.17,0.08337,0.58356,5.0,2D1U,2.0,True,0.501,48.0,False,right,-0.16673,1.618,2.0179,0.3999,0.5847,0.7345,0.1498,A,-0.18,
417.0,0.50019,0.1,1.0,0.21675,0.40016,0.6836,417.0,2.18418,-0.23,-0.11671,0.38348,5.0,1D2U,2.0,True,0.112,53.0,True,right,0.2501,0.2943,0.5198,0.2255,1.1531,1.7448,0.5918,A,-0.16,
418.0,0.50019,0.1,2.0,0.4335,0.20008,0.56689,418.0,2.28422,0.17,0.08337,0.58356,5.0,2D1U,2.0,True,0.181,48.0,False,right,0.0,1.4892,1.9135,0.4242,0.5058,0.8476,0.3418,A,-0.16,
419.0,0.50019,0.1,2.0,0.2501,0.21675,0.54188,419.0,1.91741,-0.19,-0.0917,0.40849,5.0,1D2U,1.0,True,0.216,54.0,True,left,-0.16673,1.1951,1.4458,0.2507,0.404,0.5789,0.1748,A,-0.16,
420.0,0.50019,1.2,1.0,0.30845,0.20008,0.74196,420.0,2.31757,0.13,0.06669,0.56689,5.0,2D1U,2.0,False,0.271,49.0,True,right,0.2501,0.3996,0.7832,0.3836,1.4915,2.0581,0.5666,A,-0.18,
421.0,0.50019,1.2,2.0,0.30845,0.21675,0.55021,421.0,2.15916,0.17,0.08337,0.58356,5.0,2D1U,2.0,True,0.337,50.0,True,right,0.0,1.3577,1.7579,0.4002,0.3993,0.7159,0.3166,A,-0.18,
422.0,0.50019,1.2,1.0,0.37515,0.24176,0.70861,422.0,2.2342,-0.19,-0.0917,0.40849,5.0,1D2U,1.0,False,0.285,54.0,True,left,-0.16673,0.4703,0.6953,0.225,1.5781,1.7285,0.1503,A,-0.18,
423.0,0.50019,0.1,1.0,0.37515,0.23342,0.48352,423.0,1.97576,-0.23,-0.11671,0.38348,5.0,1D2U,2.0,True,0.229,55.0,True,right,0.2501,0.4503,0.6757,0.2254,1.1083,1.7006,0.5923,A,-0.16,
424.0,0.50019,0.1,2.0,0.25843,0.30845,0.88368,424.0,2.53431,0.17,0.08337,0.58356,5.0,2D1U,2.0,True,0.198,50.0,True,right,0.0,1.6304,2.0559,0.4255,0.3307,0.6721,0.3414,A,-0.16,
425.0,0.50019,0.1,2.0,0.22509,0.25843,0.75863,425.0,2.30923,0.13,0.06669,0.56689,5.0,2D1U,2.0,True,0.199,51.0,True,right,-0.16673,1.3942,1.8022,0.408,0.3862,0.561,0.1748,A,-0.16,
426.0,0.50019,1.2,1.0,0.20841,0.4335,0.72528,426.0,2.43427,0.13,0.06669,0.56689,5.0,2D1U,2.0,False,0.509,51.0,True,right,0.2501,0.2972,0.6809,0.3837,1.3728,1.9392,0.5664,A,-0.18,
427.0,0.50019,1.2,2.0,0.40849,0.40016,0.50853,427.0,2.20085,-0.23,-0.11671,0.38348,5.0,1D2U,1.0,True,0.112,55.0,True,left,0.0,1.4147,1.6149,0.2003,0.4982,0.8146,0.3164,A,-0.18,
428.0,0.50019,1.2,1.0,0.31679,0.23342,0.41683,428.0,1.87572,-0.19,-0.0917,0.40849,5.0,1D2U,2.0,True,0.287,56.0,True,right,-0.16673,0.4056,0.6307,0.2252,1.2225,1.3723,0.1499,A,-0.18,
429.0,0.50019,0.1,1.0,0.42517,0.20008,0.80031,429.0,2.50931,0.17,0.08337,0.58356,5.0,2D1U,2.0,False,0.256,52.0,True,right,0.2501,0.4972,0.9225,0.4253,1.6725,2.2642,0.5916,A,-0.16,
430.0,0.50019,0.1,1.0,0.3418,0.29178,0.57522,430.0,2.31756,0.21,0.10838,0.60857,5.0,2D1U,2.0,False,0.125,52.0,False,right,0.0,0.4138,0.8639,0.45,1.514,1.8556,0.3415,A,-0.16,
431.0,0.50019,0.1,2.0,0.45018,0.45018,0.55021,431.0,2.35925,-0.19,-0.0917,0.40849,5.0,1D2U,1.0,True,0.322,56.0,True,left,-0.16673,1.4056,1.6554,0.2498,0.606,0.7806,0.1747,A,-0.16,
432.0,0.50019,1.2,1.0,0.40849,0.31679,0.4335,432.0,2.08414,-0.15,-0.07503,0.42517,5.0,1D2U,2.0,True,0.255,56.0,False,right,0.2501,0.4969,0.7384,0.2415,1.1388,1.7057,0.5669,A,-0.18,
433.0,0.50019,1.2,1.0,0.25843,0.33346,0.85867,433.0,2.57599,0.25,0.12505,0.62524,5.0,2D1U,2.0,False,0.139,52.0,False,right,0.0,0.3469,0.7883,0.4414,1.7385,2.0546,0.316,A,-0.18,
434.0,0.50019,1.2,1.0,0.28344,0.39182,0.67526,434.0,2.27588,-0.15,-0.07503,0.42517,5.0,1D2U,1.0,False,0.112,56.0,False,left,-0.16673,0.371,0.6129,0.2419,1.4627,1.6123,0.1496,A,-0.18,
435.0,0.50019,0.1,1.0,0.33346,0.35014,0.62524,435.0,2.45095,0.29,0.14172,0.64192,5.0,2D1U,1.0,True,0.129,52.0,False,left,0.2501,0.4065,0.8898,0.4833,1.4651,2.0566,0.5915,A,-0.16,
436.0,0.50019,0.1,2.0,0.20841,0.2501,0.65025,436.0,2.25087,0.29,0.14172,0.64192,5.0,2D1U,2.0,True,0.213,52.0,False,right,0.0,1.3479,1.8309,0.483,0.2808,0.6227,0.3419,A,-0.16,
437.0,0.50019,0.1,1.0,0.35847,0.30012,0.50853,437.0,2.0758,-0.19,-0.0917,0.40849,5.0,1D2U,2.0,True,0.166,57.0,True,right,-0.16673,0.4372,0.6868,0.2496,1.3535,1.5286,0.1751,A,-0.16,
438.0,0.50019,1.2,1.0,0.27511,0.30012,0.41683,438.0,1.90074,-0.19,-0.0917,0.40849,5.0,1D2U,2.0,True,0.189,57.0,True,right,0.2501,0.3657,0.5901,0.2243,0.9739,1.5397,0.5658,A,-0.18,
439.0,0.50019,1.2,2.0,0.40849,0.30845,0.867,439.0,2.70937,0.25,0.12505,0.62524,5.0,2D1U,2.0,True,0.45,53.0,True,right,0.0,1.7741,2.2159,0.4417,0.4994,0.8158,0.3164,A,-0.18,
440.0,0.50019,1.2,2.0,0.41683,0.30012,0.88368,440.0,2.52599,-0.15,-0.07503,0.42517,5.0,1D2U,1.0,True,0.212,58.0,True,left,-0.16673,1.7156,1.9573,0.2417,0.5905,0.74,0.1495,A,-0.18,
441.0,0.50019,0.1,2.0,0.30845,0.29178,0.7753,441.0,2.30089,-0.15,-0.07503,0.42517,5.0,1D2U,1.0,True,0.166,58.0,True,left,0.2501,1.6979,1.9644,0.2665,0.2556,0.8472,0.5916,A,-0.16,
442.0,0.50019,0.1,2.0,0.30845,0.24176,0.55855,442.0,2.23419,0.25,0.12505,0.62524,5.0,2D1U,2.0,True,0.234,53.0,True,right,0.0,1.3562,1.8236,0.4674,0.382,0.7234,0.3414,A,-0.16,
443.0,0.50019,0.1,1.0,0.35847,0.42517,0.79198,443.0,2.51765,-0.11,-0.05836,0.44184,5.0,1D2U,2.0,True,0.558,58.0,False,right,-0.16673,0.4308,0.7139,0.2832,1.6641,1.8392,0.1751,A,-0.16,
444.0,0.50019,1.2,1.0,0.40016,0.4335,0.78364,444.0,2.55933,-0.11,-0.05836,0.44184,5.0,1D2U,1.0,False,0.131,58.0,False,left,0.2501,0.488,0.7454,0.2574,1.4961,2.0623,0.5661,A,-0.18,
445.0,0.50019,1.2,1.0,0.40849,0.27511,0.55021,445.0,2.34257,0.21,0.10838,0.60857,5.0,2D1U,1.0,True,0.114,53.0,False,left,0.0,0.4965,0.9212,0.4247,1.5624,1.8797,0.3173,A,-0.18,
446.0,0.50019,1.2,1.0,0.20008,0.32513,0.75863,446.0,2.2092,-0.15,-0.07503,0.42517,5.0,1D2U,1.0,False,0.111,59.0,True,left,-0.16673,0.2896,0.5316,0.242,1.4649,1.615,0.1501,A,-0.18,
447.0,0.50019,0.1,2.0,0.31679,0.27511,0.72528,447.0,2.42594,0.21,0.10838,0.60857,5.0,2D1U,2.0,True,0.155,53.0,False,right,0.2501,1.6599,2.1098,0.45,0.268,0.8599,0.5919,A,-0.16,
448.0,0.50019,0.1,1.0,0.2501,0.21675,0.56689,448.0,2.11749,0.17,0.08337,0.58356,5.0,2D1U,1.0,True,0.261,53.0,False,left,0.0,0.322,0.7471,0.4252,1.3898,1.7307,0.3409,A,-0.16,
449.0,0.50019,0.1,2.0,0.21675,0.40849,0.81698,449.0,2.3509,-0.19,-0.0917,0.40849,5.0,1D2U,2.0,False,0.113,59.0,False,right,-0.16673,1.4393,1.6896,0.2504,0.3726,0.5479,0.1754,A,-0.16,
450.0,0.50019,1.2,2.0,0.2501,0.3418,0.55021,450.0,2.22586,0.17,0.08337,0.58356,5.0,2D1U,1.0,False,0.165,53.0,False,left,0.2501,1.4287,1.8285,0.3998,0.2201,0.7867,0.5666,A,-0.18,
451.0,0.50019,1.2,2.0,0.25843,0.20841,0.51687,451.0,2.09247,0.21,0.10838,0.60857,5.0,2D1U,2.0,True,0.153,54.0,True,right,0.0,1.277,1.702,0.425,0.3522,0.6688,0.3166,A,-0.18,
452.0,0.50019,1.2,1.0,0.3418,0.40849,0.45851,452.0,2.31756,0.21,0.10838,0.60857,5.0,2D1U,1.0,True,0.111,54.0,True,left,-0.16673,0.4317,0.8557,0.4239,1.4895,1.6391,0.1496,A,-0.18,
453.0,0.50019,0.1,2.0,0.31679,0.22509,0.67526,453.0,2.30089,0.17,0.08337,0.58356,5.0,2D1U,2.0,True,0.198,55.0,True,right,0.2501,1.6118,2.0366,0.4248,0.269,0.8616,0.5926,A,-0.16,
454.0,0.50019,0.1,2.0,0.30845,0.29178,0.48352,454.0,1.96742,-0.23,-0.11671,0.38348,5.0,1D2U,2.0,False,0.218,59.0,False,right,0.0,1.2817,1.5073,0.2256,0.3816,0.723,0.3414,A,-0.16,
455.0,0.50019,0.1,2.0,0.23342,0.30012,0.70861,455.0,2.3259,0.17,0.08337,0.58356,5.0,2D1U,2.0,True,0.172,55.0,True,right,-0.16673,1.3515,1.7768,0.4253,0.3931,0.5684,0.1753,A,-0.16,
456.0,0.50019,1.2,1.0,0.4335,0.32513,0.58356,456.0,2.20919,-0.27,-0.13339,0.36681,5.0,1D2U,2.0,True,0.186,59.0,False,right,0.2501,0.5208,0.7046,0.1839,1.2541,1.8207,0.5666,A,-0.18,
457.0,0.50019,1.2,1.0,0.37515,0.35847,0.40849,457.0,2.00911,-0.27,-0.13339,0.36681,5.0,1D2U,2.0,True,0.231,59.0,False,right,0.0,0.4686,0.6521,0.1835,1.152,1.4687,0.3167,A,-0.18,
458.0,0.50019,1.2,1.0,0.24176,0.35014,0.42517,458.0,1.90074,-0.23,-0.11671,0.38348,5.0,1D2U,2.0,True,0.509,60.0,True,right,-0.16673,0.3335,0.5341,0.2006,1.1331,1.2831,0.15,A,-0.18,
459.0,0.50019,0.1,1.0,0.37515,0.30012,0.55021,459.0,2.10915,-0.23,-0.11671,0.38348,5.0,1D2U,1.0,False,0.394,60.0,True,left,0.2501,0.4498,0.675,0.2252,1.1751,1.7667,0.5915,A,-0.16,
460.0,0.50019,0.1,2.0,0.20841,0.44184,0.45018,460.0,2.16751,0.13,0.06669,0.56689,5.0,2D1U,2.0,True,0.11,55.0,False,right,0.0,1.152,1.56,0.4081,0.2849,0.6267,0.3418,A,-0.16,
461.0,0.50019,0.1,1.0,0.30845,0.22509,0.69194,461.0,2.09248,-0.27,-0.13339,0.36681,5.0,1D2U,2.0,True,0.209,61.0,True,right,-0.16673,0.3835,0.5919,0.2083,1.4415,1.6166,0.1751,A,-0.16,
462.0,0.50019,1.2,1.0,0.28344,0.26677,0.80865,462.0,2.42594,0.13,0.06669,0.56689,5.0,2D1U,1.0,True,0.18,55.0,False,left,0.2501,0.3762,0.7589,0.3827,1.5346,2.1008,0.5662,A,-0.18,
463.0,0.50019,1.2,1.0,0.38348,0.25843,0.62524,463.0,2.30922,0.09,0.04168,0.54188,5.0,2D1U,1.0,True,0.305,55.0,False,left,0.0,0.4738,0.8322,0.3583,1.5488,1.8652,0.3163,A,-0.18,
464.0,0.50019,1.2,1.0,0.4335,0.28344,0.45851,464.0,2.21752,0.09,0.04168,0.54188,5.0,2D1U,2.0,False,0.247,55.0,False,right,-0.16673,0.5204,0.8788,0.3584,1.5124,1.6622,0.1498,A,-0.18,
465.0,0.50019,0.1,2.0,0.26677,0.40016,0.67526,465.0,2.20919,-0.27,-0.13339,0.36681,5.0,1D2U,1.0,True,0.238,61.0,True,left,0.2501,1.5597,1.7679,0.2083,0.2185,0.8105,0.5921,A,-0.16,
466.0,0.50019,0.1,1.0,0.20841,0.28344,0.55021,466.0,1.92573,-0.23,-0.11671,0.38348,5.0,1D2U,2.0,True,0.132,62.0,True,right,0.0,0.2823,0.5076,0.2253,1.1323,1.4742,0.3419,A,-0.16,
467.0,0.50019,0.1,1.0,0.21675,0.31679,0.82532,467.0,2.42594,0.13,0.06669,0.56689,5.0,2D1U,2.0,False,0.309,56.0,True,right,-0.16673,0.2932,0.7012,0.408,1.6843,1.8601,0.1758,A,-0.16,
468.0,0.50019,1.2,2.0,0.32513,0.37515,0.81698,468.0,2.40093,-0.23,-0.11671,0.38348,5.0,1D2U,1.0,True,0.151,62.0,True,left,0.2501,1.7694,1.9688,0.1994,0.2944,0.8607,0.5663,A,-0.18,
469.0,0.50019,1.2,2.0,0.42517,0.44184,0.80865,469.0,2.75941,0.17,0.08337,0.58356,5.0,2D1U,2.0,True,0.112,56.0,False,right,0.0,1.7349,2.1347,0.3998,0.5183,0.8351,0.3168,A,-0.18,
470.0,0.50019,1.2,1.0,0.24176,0.35014,0.70861,470.0,2.20919,-0.19,-0.0917,0.40849,5.0,1D2U,1.0,False,0.174,62.0,False,left,-0.16673,0.3299,0.5543,0.2244,1.4383,1.5885,0.1502,A,-0.18,
471.0,0.50019,0.1,2.0,0.20841,0.20841,0.85033,471.0,2.15082,-0.23,-0.11671,0.38348,5.0,1D2U,1.0,True,0.3,63.0,True,left,0.2501,1.6787,1.9036,0.2249,0.1622,0.7536,0.5914,A,-0.16,
472.0,0.50019,0.1,1.0,0.39182,0.26677,0.58356,472.0,2.3259,0.17,0.08337,0.58356,5.0,2D1U,2.0,False,0.453,56.0,False,right,0.0,0.4705,0.8954,0.4249,1.5539,1.8954,0.3415,A,-0.16,
473.0,0.50019,0.1,2.0,0.22509,0.30845,0.40849,473.0,2.05079,0.21,0.10838,0.60857,5.0,2D1U,2.0,True,0.112,56.0,False,right,-0.16673,1.0455,1.4951,0.4495,0.3875,0.5622,0.1747,A,-0.16,
474.0,0.50019,1.2,2.0,0.30012,0.30845,0.64192,474.0,2.13416,-0.23,-0.11671,0.38348,5.0,1D2U,1.0,True,0.209,63.0,True,left,0.2501,1.5668,1.7669,0.2001,0.2664,0.8332,0.5668,A,-0.18,
475.0,0.50019,1.2,2.0,0.44184,0.44184,0.60023,475.0,2.39259,-0.19,-0.0917,0.40849,5.0,1D2U,1.0,True,0.387,64.0,True,left,0.0,1.5435,1.7688,0.2253,0.5354,0.8522,0.3167,A,-0.18,
476.0,0.50019,1.2,2.0,0.28344,0.40016,0.5919,476.0,2.18418,-0.19,-0.0917,0.40849,5.0,1D2U,1.0,True,0.225,64.0,True,left,-0.16673,1.2869,1.5117,0.2248,0.453,0.6036,0.1505,A,-0.18,
477.0,0.50019,0.1,1.0,0.36681,0.44184,0.46685,477.0,2.38426,0.21,0.10838,0.60857,5.0,2D1U,1.0,True,0.641,56.0,False,left,0.2501,0.4397,0.8891,0.4494,1.3052,1.8976,0.5924,A,-0.16,
478.0,0.50019,0.1,2.0,0.40016,0.24176,0.47519,478.0,2.20086,0.17,0.08337,0.58356,5.0,2D1U,2.0,True,0.164,57.0,True,right,0.0,1.3617,1.7875,0.4258,0.4709,0.8122,0.3413,A,-0.16,
479.0,0.50019,0.1,2.0,0.2501,0.21675,0.67526,479.0,2.06747,-0.15,-0.07503,0.42517,5.0,1D2U,1.0,True,0.189,64.0,False,left,-0.16673,1.3305,1.5967,0.2662,0.4049,0.5805,0.1756,A,-0.16,
480.0,0.50019,1.2,2.0,0.37515,0.25843,0.57522,480.0,2.13416,-0.15,-0.07503,0.42517,5.0,1D2U,1.0,True,0.356,64.0,False,left,0.2501,1.5759,1.8174,0.2415,0.3423,0.909,0.5668,A,-0.18,
481.0,0.50019,1.2,1.0,0.30012,0.28344,0.60857,481.0,2.27588,0.17,0.08337,0.58356,5.0,2D1U,1.0,True,0.152,57.0,True,left,0.0,0.3935,0.7929,0.3993,1.4936,1.8099,0.3163,A,-0.18,
482.0,0.50019,1.2,1.0,0.21675,0.41683,0.56689,482.0,2.26755,0.13,0.06669,0.56689,5.0,2D1U,2.0,False,0.111,57.0,False,right,-0.16673,0.3095,0.6931,0.3836,1.4347,1.5846,0.15,A,-0.18,
483.0,0.50019,0.1,1.0,0.37515,0.40016,0.53354,483.0,2.25088,-0.11,-0.05836,0.44184,5.0,1D2U,2.0,True,0.113,64.0,False,right,0.2501,0.4529,0.7364,0.2836,1.2197,1.8114,0.5917,A,-0.16,
484.0,0.50019,0.1,2.0,0.41683,0.39182,0.58356,484.0,2.33424,-0.11,-0.05836,0.44184,5.0,1D2U,2.0,False,0.151,64.0,False,right,0.0,1.4876,1.771,0.2834,0.4877,0.8293,0.3415,A,-0.16,
485.0,0.50019,0.1,1.0,0.44184,0.23342,0.88368,485.0,2.64269,0.17,0.08337,0.58356,5.0,2D1U,2.0,False,0.245,58.0,True,right,-0.16673,0.5127,0.9377,0.4251,1.9792,2.1544,0.1752,A,-0.16,
486.0,0.50019,1.2,1.0,0.31679,0.42517,0.63358,486.0,2.4843,0.21,0.10838,0.60857,5.0,2D1U,2.0,False,0.111,58.0,False,right,0.2501,0.4038,0.8285,0.4247,1.4286,1.9952,0.5666,A,-0.18,
487.0,0.50019,1.2,2.0,0.21675,0.44184,0.54188,487.0,2.12583,-0.15,-0.07503,0.42517,5.0,1D2U,2.0,False,0.8,65.0,True,right,0.0,1.254,1.4958,0.2418,0.3034,0.6207,0.3173,A,-0.18,
488.0,0.50019,1.2,2.0,0.28344,0.4335,0.70027,488.0,2.32589,-0.19,-0.0917,0.40849,5.0,1D2U,2.0,False,0.505,65.0,False,right,-0.16673,1.4029,1.6277,0.2248,0.4611,0.611,0.1499,A,-0.18,
489.0,0.50019,0.1,2.0,0.29178,0.35847,0.5919,489.0,2.12582,-0.23,-0.11671,0.38348,5.0,1D2U,2.0,False,0.116,65.0,False,right,0.2501,1.4976,1.722,0.2244,0.2386,0.8308,0.5922,A,-0.16,
490.0,0.50019,0.1,2.0,0.4335,0.40849,0.73362,490.0,2.70104,0.25,0.12505,0.62524,5.0,2D1U,2.0,True,0.5,58.0,False,right,0.0,1.6616,2.1284,0.4668,0.5116,0.8533,0.3417,A,-0.16,
491.0,0.50019,0.1,1.0,0.24176,0.4335,0.45018,491.0,2.25087,0.25,0.12505,0.62524,5.0,2D1U,2.0,False,0.534,58.0,False,right,-0.16673,0.319,0.7854,0.4664,1.3941,1.5688,0.1748,A,-0.16,
492.0,0.50019,1.2,1.0,0.30845,0.31679,0.46685,492.0,1.95909,-0.27,-0.13339,0.36681,5.0,1D2U,1.0,False,0.206,65.0,False,left,0.2501,0.3975,0.5808,0.1833,1.0142,1.5806,0.5664,A,-0.18,
493.0,0.50019,1.2,1.0,0.21675,0.40849,0.51687,493.0,1.9841,-0.31,-0.1584,0.3418,5.0,1D2U,1.0,False,0.187,65.0,False,left,0.0,0.3057,0.4647,0.159,1.0723,1.3897,0.3175,A,-0.18,
494.0,0.50019,1.2,2.0,0.27511,0.41683,0.63358,494.0,2.46763,0.29,0.14172,0.64192,5.0,2D1U,2.0,True,0.383,58.0,False,right,-0.16673,1.3222,1.7808,0.4586,0.4471,0.5972,0.1501,A,-0.18,
495.0,0.50019,0.1,2.0,0.28344,0.44184,0.74196,495.0,2.60935,0.29,0.14172,0.64192,5.0,2D1U,2.0,True,0.158,58.0,False,right,0.2501,1.6454,2.1283,0.4829,0.2366,0.8283,0.5918,A,-0.16,
496.0,0.50019,0.1,2.0,0.26677,0.21675,0.80865,496.0,2.11749,-0.35,-0.17507,0.32513,5.0,1D2U,1.0,True,0.314,65.0,False,left,0.0,1.5702,1.7367,0.1664,0.345,0.6869,0.3418,A,-0.16,
497.0,0.50019,0.1,2.0,0.20841,0.4335,0.5252,497.0,2.29254,0.25,0.12505,0.62524,5.0,2D1U,2.0,True,0.112,59.0,True,right,-0.16673,1.1386,1.6053,0.4667,0.3635,0.5383,0.1748,A,-0.16,
498.0,0.50019,1.2,1.0,0.21675,0.44184,0.84199,498.0,2.62601,0.25,0.12505,0.62524,5.0,2D1U,2.0,False,0.11,59.0,True,right,0.2501,0.3117,0.753,0.4413,1.5617,2.1285,0.5669,A,-0.18,
499.0,0.50019,1.2,2.0,0.42517,0.33346,0.69194,499.0,2.27589,-0.35,-0.17507,0.32513,5.0,1D2U,1.0,True,0.217,65.0,False,left,0.0,1.6173,1.7589,0.1417,0.5172,0.8339,0.3167,A,-0.18,
500.0,0.50019,1.2,1.0,0.24176,0.30845,0.89201,500.0,2.28421,-0.31,-0.1584,0.3418,5.0,1D2U,2.0,True,0.152,66.0,True,right,-0.16673,0.3301,0.4892,0.1592,1.5554,1.7054,0.15,A,-0.18,
501.0,0.50019,0.1,2.0,0.21675,0.26677,0.80031,501.0,2.42594,0.29,0.14172,0.64192,5.0,2D1U,2.0,True,0.188,60.0,True,right,0.2501,1.6344,2.1175,0.4831,0.168,0.7591,0.5911,A,-0.16,
502.0,0.50019,0.1,2.0,0.40016,0.27511,0.66693,502.0,2.18419,-0.31,-0.1584,0.3418,5.0,1D2U,1.0,True,0.145,66.0,True,left,0.0,1.5565,1.7389,0.1824,0.4725,0.8146,0.3422,A,-0.16,
503.0,0.50019,0.1,1.0,0.26677,0.41683,0.85867,503.0,2.40927,-0.27,-0.13339,0.36681,5.0,1D2U,2.0,True,0.132,66.0,False,right,-0.16673,0.345,0.553,0.208,1.5702,1.7452,0.175,A,-0.16,
504.0,0.50019,1.2,1.0,0.39182,0.35847,0.85867,504.0,2.47596,-0.27,-0.13339,0.36681,5.0,1D2U,2.0,True,0.189,66.0,False,right,0.2501,0.4808,0.6644,0.1836,1.4891,2.0559,0.5668,A,-0.18,
505.0,0.50019,1.2,2.0,0.30012,0.3418,0.48352,505.0,2.26755,0.29,0.14172,0.64192,5.0,2D1U,2.0,True,0.109,60.0,True,right,0.0,1.2856,1.744,0.4584,0.3933,0.7103,0.3169,A,-0.18,
506.0,0.50019,1.2,1.0,0.31679,0.29178,0.44184,506.0,2.17584,0.25,0.12505,0.62524,5.0,2D1U,2.0,False,0.181,61.0,True,right,-0.16673,0.4049,0.8467,0.4418,1.4633,1.6132,0.15,A,-0.18,
507.0,0.50019,0.1,2.0,0.20008,0.32513,0.4335,507.0,1.84238,-0.23,-0.11671,0.38348,5.0,1D2U,1.0,True,0.112,66.0,False,left,0.2501,1.248,1.4727,0.2246,0.1481,0.7395,0.5914,A,-0.16,
508.0,0.50019,0.1,2.0,0.36681,0.26677,0.87534,508.0,2.39259,-0.23,-0.11671,0.38348,5.0,1D2U,1.0,True,0.112,66.0,False,left,0.0,1.7316,1.9572,0.2256,0.44,0.7824,0.3424,A,-0.16,
509.0,0.50019,0.1,1.0,0.44184,0.4335,0.50019,509.0,2.28421,-0.19,-0.0917,0.40849,5.0,1D2U,2.0,True,0.116,66.0,False,right,-0.16673,0.5183,0.768,0.2497,1.4262,1.601,0.1749,A,-0.16,
510.0,0.50019,1.2,1.0,0.20008,0.35847,0.5919,510.0,2.29256,0.29,0.14172,0.64192,5.0,2D1U,2.0,False,0.113,62.0,True,right,0.2501,0.2905,0.749,0.4585,1.3071,1.8734,0.5663,A,-0.18,
511.0,0.50019,1.2,2.0,0.21675,0.39182,0.74196,511.0,2.25921,-0.19,-0.0917,0.40849,5.0,1D2U,1.0,True,0.228,66.0,False,left,0.0,1.4538,1.6786,0.2248,0.3033,0.6202,0.317,A,-0.18,
512.0,0.50019,1.2,2.0,0.28344,0.21675,0.83366,512.0,2.25921,-0.15,-0.07503,0.42517,5.0,1D2U,2.0,False,0.178,66.0,False,right,-0.16673,1.5359,1.7776,0.2416,0.4615,0.6118,0.1503,A,-0.18,
513.0,0.50019,0.1,1.0,0.4335,0.31679,0.61691,513.0,2.27588,-0.19,-0.0917,0.40849,5.0,1D2U,2.0,True,0.178,67.0,True,right,0.2501,0.5047,0.7546,0.2499,1.3213,1.913,0.5917,A,-0.16,
514.0,0.50019,0.1,2.0,0.30012,0.3418,0.55021,514.0,2.35925,0.33,0.16673,0.66693,5.0,2D1U,2.0,True,0.113,62.0,False,right,0.0,1.3446,1.853,0.5084,0.3778,0.7192,0.3415,A,-0.16,
515.0,0.50019,0.1,2.0,0.26677,0.32513,0.61691,515.0,2.11749,-0.19,-0.0917,0.40849,5.0,1D2U,1.0,True,0.113,67.0,True,left,-0.16673,1.2944,1.5446,0.2501,0.428,0.603,0.175,A,-0.16,
516.0,0.50019,1.2,1.0,0.29178,0.35014,0.70027,516.0,2.26755,-0.15,-0.07503,0.42517,5.0,1D2U,2.0,True,0.164,68.0,True,right,0.2501,0.3817,0.6236,0.2419,1.2896,1.8566,0.5671,A,-0.18,
517.0,0.50019,1.2,2.0,0.2501,0.25843,0.5252,517.0,2.20085,0.33,0.16673,0.66693,5.0,2D1U,2.0,True,0.157,62.0,False,right,0.0,1.278,1.7614,0.4834,0.3445,0.6611,0.3166,A,-0.18,
518.0,0.50019,1.2,1.0,0.31679,0.30012,0.83366,518.0,2.37593,-0.15,-0.07503,0.42517,5.0,1D2U,1.0,False,0.181,68.0,True,left,-0.16673,0.4095,0.6504,0.2408,1.6594,1.8096,0.1502,A,-0.18,
519.0,0.50019,0.1,1.0,0.40016,0.33346,0.62524,519.0,2.50097,0.29,0.14172,0.64192,5.0,2D1U,1.0,True,0.226,63.0,True,left,0.2501,0.4705,0.9544,0.4839,1.5297,2.1207,0.591,A,-0.16,
520.0,0.50019,0.1,2.0,0.40849,0.20841,0.83366,520.0,2.35924,-0.19,-0.0917,0.40849,5.0,1D2U,2.0,False,0.271,69.0,True,right,0.0,1.7339,1.9836,0.2496,0.4838,0.8254,0.3416,A,-0.16,
521.0,0.50019,0.1,1.0,0.44184,0.35847,0.79198,521.0,2.7344,0.29,0.14172,0.64192,5.0,2D1U,2.0,False,0.109,63.0,True,right,-0.16673,0.5173,1.0008,0.4836,1.9508,2.1259,0.1751,A,-0.16,
522.0,0.50019,1.2,2.0,0.38348,0.4335,0.80865,522.0,2.5093,-0.23,-0.11671,0.38348,5.0,1D2U,1.0,True,0.129,69.0,False,left,0.2501,1.8201,2.02,0.1999,0.3532,0.9201,0.5669,A,-0.18,
523.0,0.50019,1.2,1.0,0.20008,0.2501,0.7753,523.0,2.10915,-0.23,-0.11671,0.38348,5.0,1D2U,2.0,True,0.219,69.0,False,right,0.0,0.2884,0.4877,0.1993,1.3547,1.6717,0.317,A,-0.18,
524.0,0.50019,1.2,2.0,0.2501,0.42517,0.5252,524.0,2.10915,-0.19,-0.0917,0.40849,5.0,1D2U,1.0,True,0.466,70.0,True,left,-0.16673,1.1897,1.4145,0.2248,0.4228,0.5731,0.1503,A,-0.18,
525.0,0.50019,0.1,1.0,0.30012,0.28344,0.45851,525.0,2.20919,0.33,0.16673,0.66693,5.0,2D1U,2.0,False,0.186,64.0,True,right,0.2501,0.3713,0.8795,0.5082,1.2883,1.8794,0.591,A,-0.16,
526.0,0.50019,0.1,2.0,0.21675,0.23342,0.41683,526.0,1.77568,-0.19,-0.0917,0.40849,5.0,1D2U,1.0,True,0.202,70.0,True,left,0.0,1.1263,1.3764,0.25,0.2933,0.6346,0.3413,A,-0.16,
527.0,0.50019,0.1,1.0,0.32513,0.22509,0.76697,527.0,2.50098,0.37,0.1834,0.6836,5.0,2D1U,2.0,False,0.23,64.0,False,right,-0.16673,0.4007,0.9257,0.525,1.8501,2.0257,0.1755,A,-0.16,
528.0,0.50019,1.2,2.0,0.37515,0.36681,0.55021,528.0,2.21753,-0.15,-0.07503,0.42517,5.0,1D2U,1.0,True,0.131,70.0,False,left,0.2501,1.5476,1.7891,0.2415,0.3391,0.9054,0.5662,A,-0.18,
529.0,0.50019,1.2,1.0,0.40016,0.33346,0.71695,529.0,2.65937,0.41,0.20841,0.70861,5.0,2D1U,2.0,False,0.146,64.0,False,right,0.0,0.4899,1.015,0.5251,1.8234,2.1402,0.3168,A,-0.18,
530.0,0.50019,1.2,2.0,0.22509,0.25843,0.87534,530.0,2.58433,0.45,0.22509,0.72528,5.0,2D1U,2.0,True,0.115,64.0,False,right,-0.16673,1.5123,2.0541,0.5417,0.3957,0.5456,0.1499,A,-0.18,
531.0,0.50019,0.1,1.0,0.3418,0.33346,0.5252,531.0,2.12582,-0.15,-0.07503,0.42517,5.0,1D2U,2.0,True,0.13,70.0,False,right,0.2501,0.4178,0.684,0.2662,1.1594,1.751,0.5916,A,-0.16,
532.0,0.50019,0.1,2.0,0.35847,0.30012,0.53354,532.0,2.13416,-0.11,-0.05836,0.44184,5.0,1D2U,1.0,True,0.269,70.0,False,left,0.0,1.387,1.6705,0.2834,0.4372,0.7786,0.3414,A,-0.16,
533.0,0.50019,0.1,1.0,0.20841,0.26677,0.47519,533.0,1.8924,-0.11,-0.05836,0.44184,5.0,1D2U,1.0,False,0.274,70.0,False,left,-0.16673,0.2818,0.5649,0.2831,1.1981,1.3733,0.1752,A,-0.16,
534.0,0.50019,1.2,1.0,0.38348,0.35014,0.73362,534.0,2.69271,0.45,0.22509,0.72528,5.0,2D1U,1.0,True,0.113,64.0,False,left,0.2501,0.4768,1.0182,0.5415,1.7182,2.285,0.5668,A,-0.18,
535.0,0.50019,1.2,1.0,0.39182,0.29178,0.80031,535.0,2.40927,-0.15,-0.07503,0.42517,5.0,1D2U,1.0,False,0.397,71.0,True,left,0.0,0.48,0.721,0.241,1.6132,1.9295,0.3162,A,-0.18,
536.0,0.50019,1.2,1.0,0.37515,0.30012,0.49186,536.0,2.37593,0.41,0.20841,0.70861,5.0,2D1U,1.0,True,0.175,65.0,True,left,-0.16673,0.4641,0.9892,0.5251,1.6561,1.8067,0.1507,A,-0.18,
537.0,0.50019,0.1,1.0,0.38348,0.4335,0.70861,537.0,2.43427,-0.19,-0.0917,0.40849,5.0,1D2U,1.0,False,0.111,71.0,False,left,0.2501,0.4586,0.708,0.2494,1.3669,1.9586,0.5917,A,-0.16,
538.0,0.50019,0.1,1.0,0.35847,0.22509,0.76697,538.0,2.55933,0.41,0.20841,0.70861,5.0,2D1U,1.0,True,0.235,65.0,True,left,0.0,0.4331,0.9837,0.5506,1.8248,2.1667,0.3419,A,-0.16,
539.0,0.50019,0.1,1.0,0.35014,0.30845,0.55855,539.0,2.40093,0.37,0.1834,0.6836,5.0,2D1U,2.0,False,0.116,65.0,False,right,-0.16673,0.4256,0.951,0.5254,1.6674,1.8428,0.1754,A,-0.16,
540.0,0.50019,1.2,2.0,0.35014,0.45018,0.55021,540.0,2.2342,-0.23,-0.11671,0.38348,5.0,1D2U,1.0,True,0.253,71.0,False,left,0.2501,1.5246,1.7248,0.2002,0.3163,0.883,0.5667,A,-0.18,
541.0,0.50019,1.2,1.0,0.36681,0.26677,0.4335,541.0,1.95075,-0.23,-0.11671,0.38348,5.0,1D2U,2.0,True,0.125,71.0,False,right,0.0,0.4596,0.6593,0.1997,1.1846,1.5012,0.3167,A,-0.18,
542.0,0.50019,1.2,1.0,0.25843,0.45018,0.41683,542.0,2.33424,0.41,0.20841,0.70861,5.0,2D1U,2.0,False,0.329,66.0,True,right,-0.16673,0.3512,0.8761,0.5249,1.4672,1.6179,0.1507,A,-0.18,
543.0,0.50019,0.1,2.0,0.28344,0.31679,0.67526,543.0,2.18417,-0.19,-0.0917,0.40849,5.0,1D2U,1.0,True,0.648,72.0,True,left,0.2501,1.5744,1.8241,0.2497,0.2331,0.8243,0.5912,A,-0.16,
544.0,0.50019,0.1,1.0,0.41683,0.23342,0.75029,544.0,2.30922,-0.19,-0.0917,0.40849,5.0,1D2U,1.0,False,0.314,72.0,True,left,0.0,0.4902,0.7399,0.2496,1.5649,1.9058,0.3409,A,-0.16,
545.0,0.50019,0.1,1.0,0.3418,0.33346,0.57522,545.0,2.47595,0.45,0.22509,0.72528,5.0,2D1U,1.0,True,0.112,66.0,False,left,-0.16673,0.4157,0.9821,0.5664,1.7153,1.8906,0.1753,A,-0.16,
546.0,0.50019,1.2,1.0,0.21675,0.37515,0.63358,546.0,2.10915,-0.23,-0.11671,0.38348,5.0,1D2U,2.0,True,0.172,73.0,True,right,0.2501,0.3086,0.5085,0.1999,1.1089,1.675,0.5661,A,-0.18,
547.0,0.50019,1.2,1.0,0.38348,0.21675,0.50853,547.0,1.99243,-0.23,-0.11671,0.38348,5.0,1D2U,2.0,True,0.231,73.0,True,right,0.0,0.4714,0.6706,0.1992,1.2707,1.5879,0.3172,A,-0.18,
548.0,0.50019,1.2,1.0,0.33346,0.40016,0.90035,548.0,2.85944,0.45,0.22509,0.72528,5.0,2D1U,2.0,False,0.216,66.0,False,right,-0.16673,0.4284,0.9696,0.5412,2.045,2.1949,0.1499,A,-0.18,
549.0,0.50019,0.1,2.0,0.20008,0.31679,0.85033,549.0,2.60935,0.49,0.24176,0.74196,5.0,2D1U,2.0,True,0.157,66.0,False,right,0.2501,1.6635,2.2467,0.5832,0.1473,0.7386,0.5913,A,-0.16,
550.0,0.50019,0.1,1.0,0.21675,0.2501,0.80031,550.0,2.17584,-0.19,-0.0917,0.40849,5.0,1D2U,1.0,False,0.51,74.0,True,left,0.0,0.2923,0.542,0.2497,1.4175,1.7588,0.3413,A,-0.16,
551.0,0.50019,0.1,2.0,0.23342,0.21675,0.78364,551.0,2.11748,-0.23,-0.11671,0.38348,5.0,1D2U,2.0,False,0.291,75.0,True,right,-0.16673,1.4208,1.6461,0.2253,0.3881,0.5631,0.1749,A,-0.16,
552.0,0.50019,1.2,2.0,0.45018,0.35014,0.80031,552.0,2.46763,-0.27,-0.13339,0.36681,5.0,1D2U,1.0,True,0.831,75.0,False,left,0.2501,1.8722,2.0556,0.1834,0.4134,0.9806,0.5672,A,-0.18,
553.0,0.50019,1.2,1.0,0.40849,0.20841,0.62524,553.0,2.48429,0.49,0.24176,0.74196,5.0,2D1U,1.0,True,0.392,66.0,False,left,0.0,0.4999,1.058,0.5581,1.775,2.0924,0.3173,A,-0.18,
554.0,0.50019,1.2,1.0,0.30845,0.22509,0.4335,554.0,1.83404,-0.27,-0.13339,0.36681,5.0,1D2U,2.0,True,0.318,75.0,False,right,-0.16673,0.4008,0.5842,0.1834,1.1925,1.3426,0.1501,A,-0.18,
555.0,0.50019,0.1,2.0,0.22509,0.2501,0.53354,555.0,1.8924,-0.23,-0.11671,0.38348,5.0,1D2U,1.0,True,0.163,76.0,True,left,0.2501,1.3762,1.6016,0.2254,0.1762,0.768,0.5917,A,-0.16,
