,Unnamed: 0,standardDur,audNoise,order,preDur,postDur,isiDur,trial_num,total_audio_dur,delta_dur_percents,deltaDurS,testDurS,intensities,current_stair,responses,is_correct,response_rts,stair_num_reversal,stair_is_reversal,response_keys
0,0,0.5,0.1,1,0.2833,0.2833,0.9,0,2.0166,-0.9,-0.45,0.05,5,2D1U,2.0,True,0.333,0,False,right
1,1,0.5,0.1,2,0.25,0.4,0.6333,1,1.8333,-0.9,-0.45,0.05,5,1D2U,1.0,True,0.334,0,False,left
2,2,0.5,0.1,2,0.35,0.25,0.7833,2,2.7833,0.8,0.4,0.9,5,lapse_rate,2.0,True,0.218,0,False,right
3,3,0.5,0.1,1,0.3667,0.2667,0.4833,3,1.6667,-0.9,-0.45,0.05,5,1D2U,2.0,True,0.517,0,False,right
4,4,0.5,0.1,2,0.2833,0.2333,0.7833,4,1.9332,-0.74,-0.3667,0.1333,5,2D1U,1.0,True,0.433,0,False,left
5,5,0.5,0.1,1,0.4333,0.3667,0.45,5,1.8,-0.9,-0.45,0.05,5,1D3U,2.0,True,0.224,0,False,right
6,6,0.5,0.1,2,0.2667,0.4333,0.4667,6,1.7167,-0.9,-0.45,0.05,5,3D1U,1.0,True,0.284,0,False,left
7,7,0.5,0.1,2,0.3667,0.3,0.5833,7,1.8833,-0.74,-0.3667,0.1333,5,1D2U,1.0,True,0.35,0,False,left
8,8,0.5,0.1,2,0.2333,0.2667,0.5333,8,1.75,-0.58,-0.2833,0.2167,5,2D1U,1.0,True,0.409,0,False,left
9,9,0.5,0.1,1,0.4167,0.4167,0.55,9,2.0167,-0.74,-0.3667,0.1333,5,3D1U,2.0,True,0.158,0,False,right
10,10,0.5,0.1,2,0.3833,0.25,0.7167,10,1.95,-0.8,-0.4,0.1,5,lapse_rate,1.0,True,0.3,0,False,left
11,11,0.5,0.1,2,0.35,0.3667,0.7333,11,2.0,-0.9,-0.45,0.05,5,1D3U,1.0,True,0.25,0,False,left
12,12,0.5,0.1,2,0.3,0.3,0.6667,12,2.05,-0.42,-0.2167,0.2833,5,2D1U,2.0,False,0.482,0,False,right
13,13,0.5,0.1,1,0.4167,0.4167,0.7833,13,2.3334,-0.58,-0.2833,0.2167,5,3D1U,2.0,True,0.517,0,False,right
14,14,0.5,0.1,1,0.2167,0.2167,0.9,14,1.9667,-0.74,-0.3667,0.1333,5,1D2U,2.0,True,0.44,0,False,right
15,15,0.5,0.1,2,0.3667,0.45,0.4667,15,2.6834,0.8,0.4,0.9,5,lapse_rate,2.0,True,0.157,0,False,right
16,16,0.5,0.1,2,0.4333,0.35,0.7333,16,2.0666,-0.9,-0.45,0.05,5,1D3U,1.0,True,0.308,0,False,left
17,17,0.5,0.1,2,0.4333,0.2667,0.4167,17,1.75,-0.74,-0.3667,0.1333,5,1D3U,1.0,True,0.375,0,False,left
18,18,0.5,0.1,2,0.3,0.2167,0.55,18,2.4667,0.8,0.4,0.9,5,lapse_rate,2.0,True,0.332,0,False,right
19,19,0.5,0.1,2,0.3,0.3833,0.5333,19,1.9333,-0.58,-0.2833,0.2167,5,1D2U,1.0,True,0.358,0,False,left
20,20,0.5,0.1,2,0.25,0.2833,0.55,20,1.8666,-0.42,-0.2167,0.2833,5,2D1U,1.0,True,0.4,0,False,left
21,21,0.5,0.1,2,0.4,0.3,0.7667,21,2.25,-0.42,-0.2167,0.2833,5,3D1U,1.0,True,0.424,0,False,left
22,22,0.5,0.1,2,0.4167,0.3833,0.8333,22,2.5,-0.26,-0.1333,0.3667,5,3D1U,1.0,True,0.424,0,False,left
23,23,0.5,0.1,1,0.3,0.2167,0.75,23,1.9834,-0.58,-0.2833,0.2167,5,1D2U,2.0,True,0.367,0,False,right
24,24,0.5,0.1,1,0.2667,0.4,0.8333,24,2.3667,-0.26,-0.1333,0.3667,5,2D1U,2.0,True,0.376,0,False,right
25,25,0.5,0.1,1,0.4333,0.4333,0.8,25,2.2999,-0.74,-0.3667,0.1333,5,1D3U,2.0,True,0.266,0,False,right
26,26,0.5,0.1,2,0.3333,0.3667,0.4667,26,2.5667,0.8,0.4,0.9,5,lapse_rate,2.0,True,0.358,0,False,right
27,27,0.5,0.1,1,0.3333,0.2167,0.65,27,1.8,-0.8,-0.4,0.1,5,lapse_rate,2.0,True,0.874,0,False,right
28,28,0.5,0.1,2,0.4167,0.3833,0.4,28,2.15,-0.1,-0.05,0.45,5,2D1U,2.0,False,0.641,0,False,right
29,29,0.5,0.1,2,0.3333,0.25,0.8167,29,2.35,-0.1,-0.05,0.45,5,3D1U,2.0,False,1.116,0,False,right
30,30,0.5,0.1,1,0.2333,0.3167,0.5167,30,1.85,-0.42,-0.2167,0.2833,5,1D2U,1.0,False,1.117,0,False,left
31,31,0.5,0.1,1,0.2833,0.3,0.4667,31,1.6833,-0.74,-0.3667,0.1333,5,1D3U,2.0,True,0.617,0,False,right
32,32,0.5,0.1,2,0.4333,0.2167,0.5333,32,1.7833,-0.8,-0.4,0.1,5,lapse_rate,1.0,True,0.4,0,False,left
33,33,0.5,0.1,1,0.2167,0.3667,0.55,33,2.0834,-0.1,-0.05,0.45,5,3D1U,2.0,True,0.742,0,False,right
34,34,0.5,0.1,2,0.4333,0.3333,0.6667,34,2.1833,-0.5,-0.25,0.25,5,1D2U,1.0,True,0.409,1,True,left
35,35,0.5,0.1,1,0.3833,0.3833,0.7167,35,2.4333,-0.1,-0.05,0.45,5,2D1U,1.0,False,0.425,0,False,left
36,36,0.5,0.1,2,0.3667,0.3667,0.5333,36,1.9834,-0.58,-0.2833,0.2167,5,1D3U,1.0,True,0.482,0,False,left
37,37,0.5,0.1,1,0.2667,0.45,0.5167,37,1.9501,-0.58,-0.2833,0.2167,5,1D3U,2.0,True,0.359,0,False,right
38,38,0.5,0.1,2,0.2833,0.2667,0.4833,38,1.95,-0.18,-0.0833,0.4167,5,2D1U,1.0,True,0.501,1,True,left
39,39,0.5,0.1,1,0.3333,0.4333,0.6833,39,2.0499,-0.8,-0.4,0.1,5,lapse_rate,2.0,True,0.199,0,False,right
40,40,0.5,0.1,1,0.4333,0.3167,0.5,40,2.0,-0.5,-0.25,0.25,5,1D2U,2.0,True,0.308,1,True,right
41,41,0.5,0.1,1,0.4,0.45,0.8167,41,2.7,0.06,0.0333,0.5333,5,3D1U,2.0,False,1.158,0,False,right
42,42,0.5,0.1,1,0.35,0.35,0.5833,42,2.0,-0.58,-0.2833,0.2167,5,1D3U,1.0,False,0.417,0,False,left
43,43,0.5,0.1,1,0.4333,0.2333,0.9,43,2.6833,0.22,0.1167,0.6167,5,3D1U,1.0,True,0.583,0,False,left
44,44,0.5,0.1,1,0.3333,0.2,0.55,44,1.85,-0.46,-0.2333,0.2667,5,1D2U,1.0,False,1.141,2,True,left
45,45,0.5,0.1,1,0.4333,0.3,0.6667,45,2.3333,-0.14,-0.0667,0.4333,5,2D1U,2.0,True,0.5,2,True,right
46,46,0.5,0.1,1,0.3,0.2167,0.85,46,2.7667,0.8,0.4,0.9,5,lapse_rate,1.0,True,0.483,0,False,left
47,47,0.5,0.1,1,0.3167,0.45,0.7333,47,2.25,-0.5,-0.25,0.25,5,1D2U,2.0,True,0.258,3,True,right
48,48,0.5,0.1,1,0.3833,0.4167,0.8,48,2.2,-0.8,-0.4,0.1,5,lapse_rate,2.0,True,0.574,0,False,right
49,49,0.5,0.1,2,0.25,0.4167,0.6167,49,2.4001,0.22,0.1167,0.6167,5,3D1U,2.0,True,0.723,0,False,right
50,50,0.5,0.1,2,0.2333,0.25,0.45,50,1.8833,-0.1,-0.05,0.45,5,2D1U,1.0,True,0.749,2,False,left
51,51,0.5,0.1,2,0.4,0.4,0.7833,51,2.25,-0.66,-0.3333,0.1667,5,1D3U,1.0,True,0.516,1,True,left
52,52,0.5,0.1,2,0.3833,0.25,0.7667,52,2.0,-0.8,-0.4,0.1,5,lapse_rate,1.0,True,0.666,0,False,left
53,53,0.5,0.1,2,0.2167,0.3333,0.7333,53,2.4,0.22,0.1167,0.6167,5,3D1U,1.0,False,0.434,0,False,left
54,54,0.5,0.1,2,0.2167,0.25,0.45,54,1.8834,-0.06,-0.0333,0.4667,5,2D1U,1.0,True,0.666,2,False,left
55,55,0.5,0.1,2,0.3833,0.4,0.4167,55,1.95,-0.5,-0.25,0.25,5,1D2U,1.0,True,0.317,3,True,left
56,56,0.5,0.1,1,0.2667,0.2333,0.8,56,1.9667,-0.66,-0.3333,0.1667,5,1D3U,2.0,True,0.415,1,True,right
57,57,0.5,0.1,2,0.3833,0.3667,0.8333,57,2.25,-0.66,-0.3333,0.1667,5,1D3U,1.0,True,0.517,1,True,left
58,58,0.5,0.1,1,0.2,0.25,0.4833,58,1.9166,-0.02,-0.0167,0.4833,5,2D1U,1.0,False,0.643,2,False,left
59,59,0.5,0.1,1,0.2667,0.25,0.75,59,1.8667,-0.8,-0.4,0.1,5,lapse_rate,2.0,True,0.291,0,False,right
60,60,0.5,0.1,1,0.2833,0.35,0.6667,60,2.0667,-0.46,-0.2333,0.2667,5,1D2U,1.0,False,0.358,4,True,left
61,61,0.5,0.1,2,0.3667,0.3,0.6833,61,2.5333,0.38,0.1833,0.6833,5,3D1U,2.0,True,0.516,0,False,right
62,62,0.5,0.1,2,0.3667,0.4,0.6,62,2.35,-0.02,-0.0167,0.4833,5,2D1U,1.0,True,0.45,2,False,left
63,63,0.5,0.1,1,0.3833,0.4333,0.7667,63,2.3333,-0.5,-0.25,0.25,5,1D2U,2.0,True,0.267,5,True,right
64,64,0.5,0.1,1,0.3167,0.3667,0.85,64,2.2167,-0.62,-0.3167,0.1833,5,1D3U,1.0,False,0.826,2,True,left
65,65,0.5,0.1,2,0.2667,0.25,0.8667,65,2.5667,0.38,0.1833,0.6833,5,3D1U,2.0,True,0.467,0,False,right
66,66,0.5,0.1,2,0.3333,0.2667,0.4667,66,2.4667,0.8,0.4,0.9,5,lapse_rate,2.0,True,0.366,0,False,right
67,67,0.5,0.1,2,0.3333,0.3333,0.4167,67,1.8333,-0.5,-0.25,0.25,5,1D2U,1.0,True,0.309,5,True,left
68,68,0.5,0.1,1,0.2667,0.4333,0.75,68,2.85,0.8,0.4,0.9,5,lapse_rate,1.0,True,0.616,0,False,left
69,69,0.5,0.1,2,0.3,0.3,0.8333,69,2.45,0.02,0.0167,0.5167,5,2D1U,1.0,False,0.416,2,False,left
70,70,0.5,0.1,1,0.3833,0.2167,0.75,70,2.5333,0.38,0.1833,0.6833,5,3D1U,1.0,True,0.408,0,False,left
71,71,0.5,0.1,2,0.3333,0.2833,0.5333,71,1.8166,-0.66,-0.3333,0.1667,5,1D3U,1.0,True,0.474,3,True,left
72,72,0.5,0.1,2,0.45,0.25,0.5833,72,2.05,-0.46,-0.2333,0.2667,5,1D2U,1.0,True,0.417,6,True,left
73,73,0.5,0.1,1,0.2333,0.2333,0.8667,73,2.1,-0.46,-0.2333,0.2667,5,1D2U,2.0,True,0.258,6,True,right
74,74,0.5,0.1,1,0.4167,0.2667,0.8667,74,2.7001,0.3,0.15,0.65,5,3D1U,2.0,False,0.616,1,True,right
75,75,0.5,0.1,2,0.2667,0.3667,0.4667,75,2.1334,0.06,0.0333,0.5333,5,2D1U,1.0,False,0.548,2,False,left
76,76,0.5,0.1,1,0.3333,0.2667,0.4167,76,1.6834,-0.66,-0.3333,0.1667,5,1D3U,2.0,True,0.783,3,True,right
77,77,0.5,0.1,1,0.2833,0.3833,0.6,77,2.3166,0.1,0.05,0.55,5,2D1U,1.0,True,0.474,2,False,left
78,78,0.5,0.1,2,0.3167,0.35,0.5333,78,2.3667,0.34,0.1667,0.6667,5,3D1U,1.0,False,1.033,2,True,left
79,79,0.5,0.1,2,0.3667,0.35,0.8333,79,2.2167,-0.66,-0.3333,0.1667,5,1D3U,1.0,True,0.449,3,True,left
80,80,0.5,0.1,1,0.4167,0.3833,0.75,80,2.3333,-0.42,-0.2167,0.2833,5,1D2U,1.0,False,0.532,6,False,left
81,81,0.5,0.1,1,0.4167,0.2667,0.6333,81,2.3667,0.1,0.05,0.55,5,2D1U,1.0,True,0.825,2,False,left
82,82,0.5,0.1,1,0.3,0.3,0.4,82,1.7667,-0.46,-0.2333,0.2667,5,1D2U,2.0,True,0.475,7,True,right
83,83,0.5,0.1,1,0.3333,0.2167,0.7667,83,2.0,-0.62,-0.3167,0.1833,5,1D3U,2.0,True,0.375,4,True,right
84,84,0.5,0.1,1,0.25,0.2667,0.5667,84,2.1167,0.06,0.0333,0.5333,5,2D1U,2.0,False,1.101,3,True,right
85,85,0.5,0.1,2,0.4,0.35,0.45,85,2.3833,0.38,0.1833,0.6833,5,3D1U,2.0,True,0.308,2,False,right
86,86,0.5,0.1,2,0.4,0.3833,0.65,86,2.2,-0.46,-0.2333,0.2667,5,1D2U,1.0,True,0.366,7,True,left
87,87,0.5,0.1,1,0.2,0.2333,0.7333,87,2.3499,0.38,0.1833,0.6833,5,3D1U,1.0,True,0.658,2,False,left
88,88,0.5,0.1,2,0.4,0.3333,0.5667,88,2.0833,-0.42,-0.2167,0.2833,5,1D2U,1.0,True,0.675,8,True,left
89,89,0.5,0.1,2,0.25,0.2333,0.6667,89,2.2,0.1,0.05,0.55,5,2D1U,2.0,True,0.525,4,True,right
90,90,0.5,0.1,2,0.2667,0.3,0.4333,90,1.6833,-0.62,-0.3167,0.1833,5,1D3U,1.0,True,0.39,4,True,left
91,91,0.5,0.1,2,0.45,0.2667,0.6833,91,2.5833,0.38,0.1833,0.6833,5,3D1U,2.0,True,0.401,2,False,right
92,92,0.5,0.1,1,0.4333,0.4333,0.8667,92,2.5166,-0.42,-0.2167,0.2833,5,1D2U,2.0,True,1.717,8,True,right
93,93,0.5,0.1,1,0.4333,0.3833,0.7667,93,2.2666,-0.62,-0.3167,0.1833,5,1D3U,1.0,False,0.491,4,True,left
94,94,0.5,0.1,1,0.3333,0.3167,0.5833,94,2.2833,0.1,0.05,0.55,5,2D1U,2.0,False,0.64,4,True,right
95,95,0.5,0.1,1,0.3833,0.3,0.8,95,2.65,0.34,0.1667,0.6667,5,3D1U,1.0,True,0.568,3,True,left
96,96,0.5,0.1,2,0.3833,0.3167,0.6167,96,2.1334,-0.38,-0.1833,0.3167,5,1D2U,1.0,True,0.692,8,False,left
97,97,0.5,0.1,1,0.3333,0.3833,0.85,97,2.6333,0.14,0.0667,0.5667,5,2D1U,2.0,False,0.741,4,False,right
98,98,0.5,0.1,2,0.25,0.3667,0.55,98,1.8334,-0.66,-0.3333,0.1667,5,1D3U,1.0,True,0.567,5,True,left
99,99,0.5,0.1,1,0.45,0.3167,0.5833,99,2.5167,0.34,0.1667,0.6667,5,3D1U,1.0,True,0.457,3,True,left
100,100,0.5,0.1,1,0.2167,0.3833,0.8333,100,2.25,-0.38,-0.1833,0.3167,5,1D2U,2.0,True,0.435,8,False,right
101,101,0.5,0.1,2,0.45,0.25,0.7,101,2.2333,-0.34,-0.1667,0.3333,5,1D2U,1.0,True,0.55,8,False,left
102,102,0.5,0.1,2,0.2167,0.3,0.4333,102,2.1167,0.34,0.1667,0.6667,5,3D1U,1.0,False,0.659,3,True,left
103,103,0.5,0.1,1,0.3167,0.4,0.4667,103,2.3667,0.38,0.1833,0.6833,5,3D1U,1.0,True,0.875,4,True,left
104,104,0.5,0.1,2,0.2333,0.25,0.5,104,2.0666,0.18,0.0833,0.5833,5,2D1U,2.0,True,0.743,4,False,right
105,105,0.5,0.1,1,0.45,0.3333,0.7333,105,2.1833,-0.66,-0.3333,0.1667,5,1D3U,1.0,False,0.492,5,True,left
106,106,0.5,0.1,1,0.4167,0.4,0.6667,106,2.3167,-0.34,-0.1667,0.3333,5,1D2U,1.0,False,0.725,8,False,left
107,107,0.5,0.1,1,0.3,0.4167,0.4333,107,2.3333,0.38,0.1833,0.6833,5,3D1U,1.0,True,0.324,4,True,left
108,108,0.5,0.1,2,0.2167,0.4,0.85,108,2.1167,-0.7,-0.35,0.15,5,1D3U,1.0,True,0.35,5,False,left
109,109,0.5,0.1,2,0.3167,0.2,0.4167,109,1.5834,-0.7,-0.35,0.15,5,1D3U,1.0,True,0.534,5,False,left
110,110,0.5,0.1,1,0.4167,0.4333,0.4667,110,2.4,0.18,0.0833,0.5833,5,2D1U,1.0,True,0.7,4,False,left
111,111,0.5,0.1,2,0.25,0.3167,0.4333,111,1.8167,-0.38,-0.1833,0.3167,5,1D2U,2.0,False,0.5,9,True,right
112,112,0.5,0.1,2,0.3,0.3333,0.7833,112,2.0666,-0.7,-0.35,0.15,5,1D3U,1.0,True,0.391,5,False,left
113,113,0.5,0.1,2,0.2167,0.45,0.45,113,1.7834,-0.66,-0.3333,0.1667,5,1D3U,1.0,True,0.6,6,True,left
114,114,0.5,0.1,1,0.2833,0.2333,0.4,114,2.0999,0.38,0.1833,0.6833,5,3D1U,1.0,True,0.534,4,True,left
115,115,0.5,0.1,2,0.25,0.4333,0.6,115,2.35,0.14,0.0667,0.5667,5,2D1U,2.0,True,0.307,5,True,right
116,116,0.5,0.1,1,0.4333,0.45,0.7667,116,2.4333,-0.42,-0.2167,0.2833,5,1D2U,1.0,False,0.408,9,False,left
117,117,0.5,0.1,1,0.3833,0.2167,0.6,117,2.2667,0.14,0.0667,0.5667,5,2D1U,1.0,True,0.558,5,True,left
118,118,0.5,0.1,1,0.2833,0.2167,0.7,118,2.3667,0.34,0.1667,0.6667,5,3D1U,2.0,False,0.467,5,True,right
119,119,0.5,0.1,2,0.4333,0.3,0.6833,119,2.5999,0.38,0.1833,0.6833,5,3D1U,2.0,True,0.573,6,True,right
120,120,0.5,0.1,2,0.4,0.4333,0.4,120,1.9,-0.66,-0.3333,0.1667,5,1D3U,1.0,True,0.458,6,True,left
121,121,0.5,0.1,2,0.3167,0.4333,0.5167,121,2.0334,-0.46,-0.2333,0.2667,5,1D2U,1.0,True,0.483,9,False,left
122,122,0.5,0.1,2,0.3833,0.3,0.8,122,2.6666,0.38,0.1833,0.6833,5,3D1U,2.0,True,0.425,6,True,right
123,123,0.5,0.1,2,0.3,0.3333,0.7,123,2.0,-0.66,-0.3333,0.1667,5,1D3U,1.0,True,0.468,6,True,left
124,124,0.5,0.1,1,0.2,0.2667,0.6333,124,1.7833,-0.62,-0.3167,0.1833,5,1D3U,1.0,False,0.691,6,False,left
125,125,0.5,0.1,2,0.25,0.25,0.7,125,1.9667,-0.46,-0.2333,0.2667,5,1D2U,1.0,True,1.175,9,False,left
126,126,0.5,0.1,1,0.2833,0.4167,0.5333,126,2.2833,0.1,0.05,0.55,5,2D1U,1.0,True,0.973,5,False,left
127,127,0.5,0.1,2,0.35,0.4167,0.4667,127,1.9001,-0.66,-0.3333,0.1667,5,1D3U,1.0,True,0.408,7,True,left
128,128,0.5,0.1,2,0.3667,0.35,0.7,128,2.6,0.38,0.1833,0.6833,5,3D1U,2.0,True,0.268,6,True,right
129,129,0.5,0.1,1,0.2833,0.4333,0.4333,129,2.1999,0.1,0.05,0.55,5,2D1U,2.0,False,0.283,5,False,right
130,130,0.5,0.1,1,0.2333,0.2333,0.8833,130,2.1332,-0.42,-0.2167,0.2833,5,1D2U,2.0,True,0.441,10,True,right
131,131,0.5,0.1,1,0.2167,0.4333,0.4667,131,1.9,-0.42,-0.2167,0.2833,5,1D2U,2.0,True,0.739,10,True,right
132,132,0.5,0.1,2,0.2333,0.35,0.4667,132,1.8667,-0.38,-0.1833,0.3167,5,1D2U,1.0,True,1.477,10,False,left
133,133,0.5,0.1,1,0.2333,0.3667,0.85,133,2.1167,-0.66,-0.3333,0.1667,5,1D3U,2.0,True,0.341,7,True,right
134,134,0.5,0.1,2,0.2333,0.3667,0.8333,134,2.5,0.14,0.0667,0.5667,5,2D1U,1.0,False,0.56,6,True,left
135,135,0.5,0.1,2,0.35,0.2833,0.8833,135,2.6833,0.34,0.1667,0.6667,5,3D1U,2.0,True,0.451,7,True,right
136,136,0.5,0.1,1,0.3,0.2333,0.7333,136,2.0833,-0.38,-0.1833,0.3167,5,1D2U,2.0,True,0.532,10,False,right
137,137,0.5,0.1,1,0.2333,0.2667,0.6667,137,1.8334,-0.66,-0.3333,0.1667,5,1D3U,2.0,True,0.449,7,True,right
138,138,0.5,0.1,2,0.2667,0.45,0.7333,138,2.5333,0.18,0.0833,0.5833,5,2D1U,2.0,True,0.617,6,False,right
139,139,0.5,0.1,2,0.2667,0.3167,0.4833,139,2.2334,0.34,0.1667,0.6667,5,3D1U,2.0,True,0.666,7,True,right
140,140,0.5,0.1,1,0.25,0.3167,0.6667,140,2.0667,-0.34,-0.1667,0.3333,5,1D2U,2.0,True,0.783,10,False,right
141,141,0.5,0.1,1,0.45,0.2,0.5667,141,1.9,-0.62,-0.3167,0.1833,5,1D3U,2.0,True,1.133,8,True,right
142,142,0.5,0.1,2,0.2,0.3,0.6333,142,2.3,0.34,0.1667,0.6667,5,3D1U,2.0,True,0.808,7,True,right
143,143,0.5,0.1,1,0.3667,0.3667,0.5833,143,2.4667,0.3,0.15,0.65,5,3D1U,2.0,False,0.484,7,False,right
144,144,0.5,0.1,2,0.4333,0.2167,0.5333,144,1.8666,-0.62,-0.3167,0.1833,5,1D3U,1.0,True,1.067,8,True,left
145,145,0.5,0.1,2,0.45,0.3167,0.4333,145,1.8833,-0.62,-0.3167,0.1833,5,1D3U,1.0,True,0.951,8,True,left
146,146,0.5,0.1,2,0.45,0.2833,0.7667,146,2.5833,0.18,0.0833,0.5833,5,2D1U,2.0,True,0.433,6,False,right
147,147,0.5,0.1,2,0.4333,0.4,0.5333,147,2.4333,0.14,0.0667,0.5667,5,2D1U,1.0,False,0.465,7,True,left
148,148,0.5,0.1,2,0.3,0.2833,0.7,148,2.0,-0.58,-0.2833,0.2167,5,1D3U,1.0,True,0.459,8,False,left
149,149,0.5,0.1,2,0.2,0.3667,0.5,149,2.2334,0.34,0.1667,0.6667,5,3D1U,2.0,True,0.283,8,True,right
150,150,0.5,0.1,1,0.2667,0.3833,0.4167,150,2.2334,0.34,0.1667,0.6667,5,3D1U,1.0,True,0.359,8,True,left
151,151,0.5,0.1,2,0.3,0.4,0.8333,151,2.6166,0.18,0.0833,0.5833,5,2D1U,2.0,True,0.383,8,True,right
152,152,0.5,0.1,2,0.2667,0.3833,0.8,152,2.5333,0.18,0.0833,0.5833,5,2D1U,2.0,True,0.383,8,True,right
153,153,0.5,0.1,1,0.2667,0.2167,0.6333,153,2.1834,0.14,0.0667,0.5667,5,2D1U,1.0,True,0.706,9,True,left
