,Unnamed: 0,standardDur,audNoise,order,preDur,postDur,isiDur,trial_num,totalDur,delta_dur_percents,deltaDurS,testDurS,intensities,current_stair,responses,is_correct,response_rts,stair_num_reversal,stair_is_reversal,response_keys,conflictDur,recordedOnsetVisualTest,recordedOffsetVisualTest,recordedDurVisualTest,recordedOnsetVisualStandard,recordedOffsetVisualStandard,recordedDurVisualStandard,modalityPostCue
0,0,0.49922,1.2,2,0.33282,0.44098,0.44098,0,1.88873,-0.65,-0.3245,0.17473,5,2U1D,1.0,True,0.499,0,False,left,0.0,1.2806,1.4544,0.1739,0.3387,0.8376,0.4989,A
1,1,0.49922,0.1,1,0.34946,0.33282,0.56579,1,2.57101,0.65,0.3245,0.82372,5,3D1U,1.0,True,0.575,0,False,left,0.0,0.36,1.1842,0.8242,1.7518,2.2518,0.5,V
2,2,0.49922,1.2,2,0.37442,0.39106,0.55747,2,2.64589,0.65,0.3245,0.82372,5,3D1U,2.0,True,0.308,0,False,right,0.0,1.439,2.2641,0.8251,0.3807,0.8808,0.5001,V
3,3,0.49922,0.1,1,0.26625,0.25793,0.89028,3,2.08841,-0.65,-0.3245,0.17473,5,3U1D,2.0,True,0.483,0,False,right,0.0,0.2727,0.4477,0.175,1.3393,1.8394,0.5,V
4,4,0.49922,0.1,2,0.20801,0.3661,0.52419,4,2.54605,0.9,0.4493,0.94853,5,lapse_rate,2.0,True,0.292,0,False,right,0.0,1.2389,2.1892,0.9503,0.2138,0.7142,0.5005,V
5,5,0.49922,1.2,2,0.28289,0.3661,0.47426,5,2.44619,0.65,0.3245,0.82372,5,2D1U,1.0,False,0.908,0,False,left,0.0,1.2681,2.0929,0.8248,0.2921,0.793,0.5009,V
6,6,0.49922,0.1,2,0.23297,0.20801,0.42434,6,1.53927,-0.65,-0.3245,0.17473,5,2U1D,1.0,True,0.384,0,False,left,0.0,1.1683,1.3429,0.1746,0.2432,0.7432,0.5,V
7,7,0.49922,1.2,1,0.25793,0.44098,0.4077,7,1.78056,-0.65,-0.3245,0.17473,5,3U1D,2.0,True,2.601,0,False,right,0.0,0.2694,0.4441,0.1746,0.8529,1.3527,0.4998,V
8,8,0.49922,0.1,2,0.23297,0.3245,0.83204,8,2.71245,0.65,0.3245,0.82372,5,3D1U,2.0,True,0.426,0,False,right,0.0,1.5728,2.398,0.8252,0.2395,0.7395,0.5,V
9,9,0.49922,0.1,2,0.3245,0.35778,0.45762,9,1.68904,-0.9,-0.4493,0.04992,5,lapse_rate,1.0,True,0.601,0,False,left,0.0,1.293,1.3433,0.0503,0.3351,0.8352,0.5001,V
10,10,0.49922,1.2,2,0.26625,0.26625,0.59075,10,2.49611,0.75,0.37442,0.87364,5,2D1U,2.0,True,1.608,0,False,right,0.0,1.3615,2.2376,0.8761,0.2709,0.7702,0.4993,V
11,11,0.49922,0.1,1,0.3661,0.41602,0.857,11,2.36299,-0.55,-0.27457,0.22465,5,2U1D,2.0,True,0.492,0,False,right,0.0,0.3766,0.6013,0.2247,1.4605,1.9606,0.5001,A
12,12,0.49922,1.2,2,0.39938,0.24961,0.74884,12,2.77069,0.75,0.37442,0.87364,5,2D1U,2.0,True,0.426,0,False,right,0.0,1.661,2.536,0.875,0.4109,0.9109,0.5,V
13,13,0.49922,0.1,2,0.29953,0.34946,0.59907,13,1.97193,-0.55,-0.27457,0.22465,5,2U1D,1.0,True,0.368,0,False,left,0.0,1.4034,1.6275,0.2242,0.3027,0.8033,0.5005,V
14,14,0.49922,1.2,2,0.35778,0.24129,0.88196,14,2.75405,0.55,0.27457,0.7738,5,3D1U,2.0,True,0.283,0,False,right,0.0,1.7459,2.5216,0.7757,0.3635,0.8633,0.4997,A
15,15,0.49922,0.1,2,0.29121,0.3661,0.44098,15,1.77224,-0.65,-0.3245,0.17473,5,3U1D,1.0,True,0.342,0,False,left,0.0,1.2366,1.412,0.1754,0.295,0.7949,0.4999,V
16,16,0.49922,0.1,2,0.22465,0.3661,0.75716,16,1.89705,-0.9,-0.4493,0.04992,5,lapse_rate,1.0,True,0.325,0,False,left,0.0,1.4907,1.5399,0.0493,0.2325,0.7322,0.4998,A
17,17,0.49922,1.2,1,0.29121,0.35778,0.49922,17,1.69735,-0.9,-0.4493,0.04992,5,lapse_rate,1.0,False,0.501,0,False,left,0.0,0.2952,0.3459,0.0507,0.845,1.346,0.501,A
18,18,0.49922,1.2,1,0.23297,0.37442,0.857,18,2.18826,-0.55,-0.27457,0.22465,5,3U1D,2.0,True,0.809,0,False,right,0.0,0.2395,0.464,0.2245,1.3231,1.8229,0.4998,A
19,19,0.49922,0.1,2,0.42434,0.24129,0.68227,19,2.12169,-0.45,-0.22465,0.27457,5,2U1D,1.0,True,0.35,0,False,left,0.0,1.6147,1.8897,0.275,0.4311,0.9315,0.5004,V
20,20,0.49922,1.2,2,0.38274,0.39938,0.72387,20,2.85389,0.69,0.34114,0.84868,5,2D1U,1.0,False,1.209,1,True,left,0.0,1.614,2.4638,0.8499,0.3889,0.8889,0.4999,A
21,21,0.49922,0.1,2,0.41602,0.29953,0.56579,21,2.55436,0.55,0.27457,0.7738,5,3D1U,2.0,True,0.535,0,False,right,0.0,1.4883,2.263,0.7747,0.4212,0.921,0.4999,A
22,22,0.49922,1.2,1,0.38274,0.42434,0.70723,22,2.2881,-0.45,-0.22465,0.27457,5,2U1D,1.0,False,0.76,0,False,left,0.0,0.3879,0.6631,0.2752,1.3714,1.8714,0.5,A
23,23,0.49922,0.1,1,0.41602,0.26625,0.75716,23,2.71245,0.55,0.27457,0.7738,5,3D1U,1.0,True,0.375,0,False,left,0.0,0.4242,1.1996,0.7754,1.9576,2.4574,0.4998,A
24,24,0.49922,1.2,2,0.23297,0.28289,0.84036,24,2.08009,-0.55,-0.27457,0.22465,5,3U1D,1.0,True,0.343,0,False,left,0.0,1.5784,1.8037,0.2253,0.2373,0.7367,0.4994,A
25,25,0.49922,0.1,1,0.30785,0.34114,0.83204,25,2.03017,-0.9,-0.4493,0.04992,5,lapse_rate,2.0,True,0.409,0,False,right,0.0,0.3162,0.3651,0.0489,1.1987,1.6993,0.5006,V
26,26,0.49922,0.1,2,0.35778,0.29121,0.67395,26,2.68748,0.726,0.3661,0.86532,5,2D1U,2.0,True,0.408,2,True,right,0.0,1.5414,2.4078,0.8664,0.3664,0.8656,0.4992,A
27,27,0.49922,1.2,2,0.4077,0.35778,0.70723,27,2.19658,-0.55,-0.27457,0.22465,5,3U1D,1.0,True,0.533,0,False,left,0.0,1.6259,1.8506,0.2247,0.4177,0.9176,0.4999,A
28,28,0.49922,0.1,2,0.35778,0.34946,0.49922,28,2.571,0.726,0.3661,0.86532,5,2D1U,2.0,True,0.4,2,True,right,0.0,1.3631,2.23,0.8669,0.3631,0.8631,0.5,V
29,29,0.49922,0.1,2,0.37442,0.29121,0.89028,29,2.10505,-0.9,-0.4493,0.04992,5,lapse_rate,1.0,True,0.393,0,False,left,0.0,1.7747,1.8257,0.051,0.3836,0.8837,0.5001,A
30,30,0.49922,1.2,2,0.25793,0.28289,0.42434,30,1.70567,-0.51,-0.25793,0.24129,5,2U1D,1.0,True,0.884,1,True,left,0.0,1.1898,1.4314,0.2416,0.2646,0.7648,0.5003,A
31,31,0.49922,0.1,2,0.25793,0.31618,0.89028,31,2.68748,0.45,0.22465,0.72387,5,3D1U,2.0,True,0.426,0,False,right,0.0,1.6593,2.3844,0.7251,0.2679,0.7676,0.4997,V
32,32,0.49922,1.2,2,0.20801,0.43266,0.53251,32,1.91369,-0.51,-0.25793,0.24129,5,2U1D,1.0,True,0.584,1,True,left,0.0,1.2485,1.4901,0.2416,0.215,0.7149,0.4999,A
33,33,0.49922,0.1,2,0.29953,0.41602,0.7322,33,2.67084,0.45,0.22465,0.72387,5,3D1U,2.0,True,0.384,0,False,right,0.0,1.5374,2.2626,0.7252,0.3043,0.8044,0.5001,V
34,34,0.49922,1.2,1,0.3245,0.23297,0.42434,34,2.32971,0.69,0.34114,0.84868,5,2D1U,1.0,True,0.776,3,True,left,0.0,0.3289,1.1789,0.85,1.6037,2.1039,0.5002,V
35,35,0.49922,0.1,2,0.43266,0.4077,0.57411,35,2.18826,-0.45,-0.22465,0.27457,5,3U1D,1.0,True,0.343,0,False,left,0.0,1.5152,1.7903,0.2751,0.4401,0.9395,0.4994,A
36,36,0.49922,1.2,2,0.25793,0.26625,0.68227,36,1.75559,-0.9,-0.4493,0.04992,5,lapse_rate,2.0,False,0.992,0,False,right,0.0,1.447,1.4968,0.0498,0.2637,0.7633,0.4996,A
37,37,0.49922,1.2,1,0.27457,0.30785,0.52419,37,2.45451,0.69,0.34114,0.84868,5,2D1U,1.0,True,0.509,3,True,left,0.0,0.2838,1.1341,0.8503,1.6588,2.159,0.5001,V
38,38,0.49922,0.1,2,0.29121,0.39106,0.72387,38,2.17161,-0.474,-0.23297,0.26625,5,2U1D,1.0,True,0.359,2,True,left,0.0,1.5246,1.7908,0.2662,0.2998,0.799,0.4992,V
39,39,0.49922,1.2,1,0.35778,0.20801,0.89028,39,2.22986,-0.45,-0.22465,0.27457,5,3U1D,1.0,False,0.559,0,False,left,0.0,0.3674,0.6423,0.2749,1.5337,2.0339,0.5002,A
40,40,0.49922,0.1,1,0.29953,0.31618,0.84036,40,2.90382,0.9,0.4493,0.94853,5,lapse_rate,1.0,True,0.351,0,False,left,0.0,0.3042,1.254,0.9498,2.0958,2.5958,0.5,A
41,41,0.49922,0.1,1,0.23297,0.24961,0.70723,41,2.4129,0.45,0.22465,0.72387,5,3D1U,1.0,True,0.325,0,False,left,0.0,0.2419,0.9671,0.7252,1.6755,2.1759,0.5005,A
42,42,0.49922,1.2,2,0.33282,0.23297,0.68227,42,2.42123,0.35,0.17473,0.67395,5,3D1U,1.0,False,0.617,0,False,left,0.0,1.5256,2.2012,0.6756,0.3428,0.843,0.5003,A
43,43,0.49922,0.1,1,0.4077,0.27457,0.71555,43,2.16329,-0.474,-0.23297,0.26625,5,2U1D,2.0,True,0.533,2,True,right,0.0,0.4191,0.6858,0.2667,1.402,1.9025,0.5005,A
44,44,0.49922,1.2,2,0.43266,0.20801,0.63235,44,2.01353,-0.51,-0.25793,0.24129,5,3U1D,1.0,True,0.492,1,True,left,0.0,1.5763,1.8175,0.2412,0.4428,0.9427,0.4999,A
45,45,0.49922,0.1,2,0.35778,0.20801,0.58243,45,2.47116,0.654,0.3245,0.82372,5,2D1U,2.0,True,2.035,3,False,right,0.0,1.4507,2.2757,0.8251,0.3673,0.8667,0.4994,A
46,46,0.49922,0.1,2,0.34114,0.24961,0.68227,46,2.72077,0.9,0.4493,0.94853,5,lapse_rate,2.0,True,0.416,0,False,right,0.0,1.5334,2.4837,0.9503,0.3506,0.8511,0.5004,A
47,47,0.49922,1.2,1,0.21633,0.34114,0.76548,47,2.64589,0.654,0.3245,0.82372,5,2D1U,1.0,True,0.333,3,False,left,0.0,0.2214,1.0462,0.8248,1.8123,2.313,0.5007,V
48,48,0.49922,0.1,1,0.38274,0.20801,0.61571,48,1.94697,-0.51,-0.25793,0.24129,5,3U1D,2.0,True,0.443,1,True,right,0.0,0.3905,0.6325,0.242,1.2503,1.7489,0.4986,A
49,49,0.49922,1.2,2,0.4493,0.34946,0.67395,49,2.67916,0.41,0.20801,0.70723,5,3D1U,1.0,False,1.291,1,True,left,0.0,1.6294,2.3369,0.7076,0.4546,0.9548,0.5001,A
50,50,0.49922,0.1,1,0.24961,0.30785,0.857,50,2.19657,-0.438,-0.21633,0.28289,5,2U1D,1.0,False,0.583,2,False,left,0.0,0.2605,0.5437,0.2832,1.402,1.902,0.4999,A
51,51,0.49922,0.1,2,0.35778,0.27457,0.72387,51,1.90536,-0.9,-0.4493,0.04992,5,lapse_rate,1.0,True,0.409,0,False,left,0.0,1.5907,1.6405,0.0498,0.3656,0.8649,0.4993,A
52,52,0.49922,1.2,1,0.27457,0.21633,0.79876,52,2.03017,-0.51,-0.25793,0.24129,5,3U1D,2.0,True,0.534,1,True,right,0.0,0.278,0.5196,0.2415,1.3207,1.8207,0.4999,V
53,53,0.49922,0.1,2,0.4077,0.29121,0.87364,53,2.33802,-0.474,-0.23297,0.26625,5,2U1D,1.0,True,0.376,3,True,left,0.0,1.7869,2.0537,0.2668,0.4119,0.9127,0.5008,A
54,54,0.49922,0.1,2,0.19969,0.44098,0.75716,54,1.94697,-0.9,-0.4493,0.04992,5,lapse_rate,1.0,True,0.35,0,False,left,0.0,1.4683,1.5184,0.0502,0.2096,0.7101,0.5005,A
55,55,0.49922,1.2,2,0.44098,0.29953,0.80708,55,2.77901,0.47,0.23297,0.7322,5,3D1U,2.0,True,0.443,1,False,right,0.0,1.7605,2.493,0.7325,0.4523,0.9523,0.5,A
56,56,0.49922,0.1,1,0.28289,0.24961,0.42434,56,2.26314,0.618,0.30785,0.80708,5,2D1U,1.0,True,0.459,3,False,left,0.0,0.2935,1.1022,0.8087,1.5266,2.0275,0.5009,A
57,57,0.49922,1.2,1,0.22465,0.43266,0.46594,57,2.35467,0.47,0.23297,0.7322,5,3D1U,1.0,True,0.492,1,False,left,0.0,0.2352,0.9674,0.7322,1.4349,1.9352,0.5003,A
58,58,0.49922,0.1,2,0.30785,0.3661,0.72387,58,2.16329,-0.474,-0.23297,0.26625,5,2U1D,1.0,True,0.309,3,True,left,0.0,1.5416,1.8082,0.2667,0.3162,0.8165,0.5003,A
59,59,0.49922,1.2,1,0.29953,0.25793,0.59907,59,2.46283,0.618,0.30785,0.80708,5,2D1U,1.0,True,0.651,3,False,left,0.0,0.3075,1.1171,0.8096,1.7168,2.2171,0.5003,A
60,60,0.49922,0.1,1,0.37442,0.33282,0.78212,60,2.0385,-0.9,-0.4493,0.04992,5,lapse_rate,2.0,True,0.983,0,False,right,0.0,0.38,0.4298,0.0498,1.2129,1.7132,0.5003,V
61,61,0.49922,0.1,1,0.39106,0.33282,0.83204,61,2.32139,-0.474,-0.23297,0.26625,5,3U1D,2.0,True,0.434,2,True,right,0.0,0.3993,0.6667,0.2673,1.4994,1.999,0.4996,A
62,62,0.49922,1.2,1,0.19969,0.24129,0.69891,62,2.58764,0.9,0.4493,0.94853,5,lapse_rate,2.0,False,1.475,0,False,right,0.0,0.2082,1.1583,0.9501,1.8582,2.3577,0.4995,A
63,63,0.49922,1.2,2,0.4077,0.3245,0.64899,63,2.1633,-0.438,-0.21633,0.28289,5,2U1D,1.0,True,0.392,4,True,left,0.0,1.5652,1.8488,0.2836,0.4155,0.9154,0.4999,A
64,64,0.49922,0.1,1,0.22465,0.28289,0.87364,64,2.67084,0.582,0.29121,0.79044,5,2D1U,1.0,True,0.384,3,False,left,0.0,0.2342,1.026,0.7918,1.9008,2.4007,0.4999,A
65,65,0.49922,1.2,1,0.21633,0.27457,0.78212,65,2.50444,0.47,0.23297,0.7322,5,3D1U,1.0,True,0.358,1,False,left,0.0,0.2219,0.9555,0.7336,1.7388,2.2387,0.4999,A
66,66,0.49922,0.1,1,0.4077,0.23297,0.857,66,2.26314,-0.474,-0.23297,0.26625,5,3U1D,2.0,True,0.476,2,True,right,0.0,0.4189,0.6858,0.2669,1.5432,2.0442,0.501,A
67,67,0.49922,1.2,2,0.26625,0.26625,0.4077,67,2.22986,0.582,0.29121,0.79044,5,2D1U,1.0,False,0.592,3,False,left,0.0,1.1797,1.9722,0.7925,0.2712,0.7723,0.5011,V
68,68,0.49922,1.2,1,0.24961,0.23297,0.66563,68,1.69735,-0.9,-0.4493,0.04992,5,lapse_rate,2.0,True,0.742,0,False,right,0.0,0.2547,0.3052,0.0505,0.9719,1.4722,0.5003,A
69,69,0.49922,0.1,1,0.29121,0.20801,0.8154,69,2.08009,-0.474,-0.23297,0.26625,5,3U1D,2.0,True,0.5,2,True,right,0.0,0.2949,0.5605,0.2657,1.378,1.8782,0.5003,A
70,70,0.49922,1.2,1,0.25793,0.37442,0.4077,70,1.82216,-0.438,-0.21633,0.28289,5,2U1D,2.0,True,0.367,4,True,right,0.0,0.2654,0.5487,0.2833,0.957,1.4572,0.5002,V
71,71,0.49922,0.1,2,0.28289,0.42434,0.55747,71,2.47947,0.434,0.21633,0.71555,5,3D1U,2.0,True,0.351,2,True,right,0.0,1.3513,2.069,0.7177,0.2941,0.7939,0.4998,A
72,72,0.49922,1.2,2,0.20801,0.31618,0.86532,72,2.69581,0.618,0.30785,0.80708,5,2D1U,2.0,True,0.376,4,True,right,0.0,1.5853,2.3944,0.8091,0.2188,0.719,0.5002,V
73,73,0.49922,1.2,2,0.43266,0.24129,0.59907,73,2.72077,0.9,0.4493,0.94853,5,lapse_rate,2.0,True,0.484,0,False,right,0.0,1.5377,2.4879,0.9502,0.4378,0.9379,0.5001,V
74,74,0.49922,0.1,2,0.38274,0.24129,0.857,74,2.27978,-0.402,-0.19969,0.29953,5,2U1D,1.0,True,0.35,4,False,left,0.0,1.7494,2.0493,0.2999,0.3913,0.8915,0.5002,A
75,75,0.49922,1.2,2,0.43266,0.25793,0.82372,75,2.72908,0.434,0.21633,0.71555,5,3D1U,1.0,False,1.792,2,True,left,0.0,1.7627,2.4783,0.7157,0.4371,0.9377,0.5006,V
76,76,0.49922,0.1,1,0.21633,0.29953,0.60739,76,1.90536,-0.438,-0.21633,0.28289,5,3U1D,2.0,True,1.692,2,False,right,0.0,0.2258,0.5092,0.2833,1.1177,1.6178,0.5001,A
77,77,0.49922,1.2,2,0.34946,0.4077,0.56579,77,2.55437,0.47,0.23297,0.7322,5,3D1U,2.0,True,0.376,3,True,right,0.0,1.4268,2.1601,0.7333,0.36,0.8592,0.4992,A
78,78,0.49922,0.1,2,0.44098,0.30785,0.53251,78,2.08009,-0.402,-0.19969,0.29953,5,2U1D,1.0,True,0.367,4,False,left,0.0,1.4812,1.781,0.2998,0.4476,0.9479,0.5003,V
79,79,0.49922,1.2,2,0.26625,0.29953,0.8154,79,2.16329,-0.438,-0.21633,0.28289,5,3U1D,1.0,True,0.534,2,False,left,0.0,1.5925,1.8758,0.2832,0.2757,0.7759,0.5002,A
80,80,0.49922,0.1,2,0.43266,0.31618,0.7322,80,2.78734,0.618,0.30785,0.80708,5,2D1U,2.0,True,0.425,4,True,right,0.0,1.6708,2.4783,0.8075,0.4365,0.9375,0.5009,A
81,81,0.49922,1.2,2,0.28289,0.39938,0.71555,81,2.84557,0.9,0.4493,0.94853,5,lapse_rate,1.0,False,1.251,0,False,left,0.0,1.5107,2.4607,0.95,0.2938,0.7939,0.5001,A
82,82,0.49922,1.2,2,0.3245,0.22465,0.78212,82,2.77902,0.9,0.4493,0.94853,5,lapse_rate,2.0,True,0.357,0,False,right,0.0,1.6163,2.5671,0.9508,0.3332,0.8333,0.5002,V
83,83,0.49922,1.2,1,0.31618,0.28289,0.55747,83,2.4462,0.582,0.29121,0.79044,5,2D1U,1.0,True,0.419,5,True,left,0.0,0.3264,1.118,0.7915,1.6764,2.1764,0.5,V
84,84,0.49922,0.1,2,0.41602,0.42434,0.59907,84,2.25483,-0.366,-0.18305,0.31618,5,2U1D,1.0,True,0.259,4,False,left,0.0,1.5259,1.8434,0.3175,0.4266,0.9265,0.5,V
85,85,0.49922,1.2,2,0.20801,0.33282,0.39938,85,1.72232,-0.438,-0.21633,0.28289,5,3U1D,1.0,True,0.826,2,False,left,0.0,1.1126,1.396,0.2833,0.2115,0.7126,0.5011,V
86,86,0.49922,0.1,2,0.34114,0.26625,0.8154,86,2.65421,0.47,0.23297,0.7322,5,3D1U,2.0,True,0.376,3,True,right,0.0,1.6666,2.3991,0.7325,0.3489,0.8496,0.5007,A
87,87,0.49922,1.2,2,0.24129,0.34946,0.7738,87,2.1633,-0.402,-0.19969,0.29953,5,3U1D,1.0,True,0.417,2,False,left,0.0,1.5205,1.8204,0.2999,0.2456,0.7453,0.4998,A
88,88,0.49922,0.1,1,0.25793,0.39938,0.50754,88,2.39627,0.47,0.23297,0.7322,5,3D1U,1.0,True,0.333,3,True,left,0.0,0.2625,0.9956,0.7331,1.5039,2.0039,0.5001,V
89,89,0.49922,1.2,2,0.44098,0.23297,0.7738,89,2.8955,0.9,0.4493,0.94853,5,lapse_rate,2.0,True,1.734,0,False,right,0.0,1.7203,2.6703,0.9501,0.4452,0.9452,0.5001,V
90,90,0.49922,1.2,2,0.43266,0.30785,0.39938,90,2.42955,0.582,0.29121,0.79044,5,2D1U,1.0,False,0.317,5,True,left,0.0,1.3427,2.1346,0.7919,0.4428,0.9428,0.5,A
91,91,0.49922,0.1,2,0.22465,0.30785,0.84868,91,2.19658,-0.366,-0.18305,0.31618,5,2U1D,1.0,True,0.274,4,False,left,0.0,1.578,1.8953,0.3173,0.2283,0.7282,0.5,V
92,92,0.49922,1.2,2,0.34946,0.4077,0.82372,92,2.88718,0.618,0.30785,0.80708,5,2D1U,2.0,True,0.393,6,True,right,0.0,1.6789,2.4867,0.8078,0.3534,0.854,0.5006,V
93,93,0.49922,0.1,2,0.29953,0.41602,0.4077,93,2.33802,0.434,0.21633,0.71555,5,3D1U,2.0,True,0.475,4,True,right,0.0,1.2159,1.9328,0.7169,0.3082,0.8078,0.4996,A
94,94,0.49922,1.2,1,0.37442,0.29953,0.58243,94,2.08842,-0.33,-0.16641,0.33282,5,2U1D,2.0,True,0.392,4,False,right,0.0,0.3847,0.7189,0.3342,1.3024,1.8023,0.4999,A
95,95,0.49922,0.1,2,0.4077,0.23297,0.86532,95,2.30474,-0.402,-0.19969,0.29953,5,3U1D,1.0,True,0.359,2,False,left,0.0,1.7844,2.0843,0.2999,0.4172,0.9176,0.5003,V
96,96,0.49922,1.2,1,0.39938,0.24961,0.7738,96,1.97193,-0.9,-0.4493,0.04992,5,lapse_rate,1.0,False,0.626,0,False,left,0.0,0.4087,0.4584,0.0497,1.2324,1.7336,0.5012,V
97,97,0.49922,1.2,1,0.31618,0.25793,0.58243,97,2.37131,0.434,0.21633,0.71555,5,3D1U,2.0,False,0.66,4,True,right,0.0,0.3265,1.0436,0.7172,1.6267,2.127,0.5004,A
98,98,0.49922,0.1,1,0.43266,0.39106,0.46594,98,2.08841,-0.402,-0.19969,0.29953,5,3U1D,2.0,True,0.392,2,False,right,0.0,0.4394,0.7383,0.2989,1.2057,1.7059,0.5002,A
99,99,0.49922,1.2,2,0.44098,0.3661,0.54083,99,2.17995,-0.33,-0.16641,0.33282,5,2U1D,1.0,True,0.326,4,False,left,0.0,1.4899,1.8234,0.3335,0.4483,0.9483,0.5,A
100,100,0.49922,0.1,2,0.33282,0.34946,0.62403,100,2.61261,0.618,0.30785,0.80708,5,2D1U,2.0,True,0.351,6,True,right,0.0,1.4632,2.2721,0.8089,0.3381,0.8389,0.5008,V
101,101,0.49922,1.2,1,0.34946,0.41602,0.43266,101,2.64589,0.9,0.4493,0.94853,5,lapse_rate,1.0,True,0.474,0,False,left,0.0,0.3524,1.303,0.9505,1.7363,2.2366,0.5003,V
102,102,0.49922,0.1,1,0.23297,0.3245,0.41602,102,2.42124,0.9,0.4493,0.94853,5,lapse_rate,1.0,True,0.358,0,False,left,0.0,0.2407,1.1905,0.9497,1.6077,2.1071,0.4994,A
103,103,0.49922,1.2,2,0.20801,0.20801,0.69059,103,2.39627,0.582,0.29121,0.79044,5,2D1U,2.0,True,0.35,7,True,right,0.0,1.4074,2.1987,0.7913,0.215,0.7157,0.5007,V
104,104,0.49922,0.1,1,0.27457,0.41602,0.76548,104,2.27147,-0.366,-0.18305,0.31618,5,3U1D,2.0,True,0.4,2,False,right,0.0,0.279,0.5954,0.3164,1.3607,1.8619,0.5012,A
105,105,0.49922,1.2,2,0.34114,0.25793,0.69891,105,2.14666,-0.294,-0.14977,0.34946,5,2U1D,1.0,True,0.793,4,False,left,0.0,1.5477,1.8977,0.3499,0.3471,0.848,0.5009,A
106,106,0.49922,0.1,1,0.42434,0.38274,0.74052,106,2.77902,0.47,0.23297,0.7322,5,3D1U,1.0,True,0.284,5,True,left,0.0,0.4337,1.1669,0.7332,1.9088,2.4088,0.5,A
107,107,0.49922,1.2,2,0.4493,0.43266,0.74052,107,2.17162,-0.9,-0.4493,0.04992,5,lapse_rate,1.0,True,0.351,0,False,left,0.0,1.6949,1.7451,0.0502,0.4525,0.9528,0.5003,A
108,108,0.49922,1.2,2,0.44098,0.28289,0.86532,108,2.87885,0.582,0.29121,0.79044,5,2D1U,2.0,True,0.4,7,True,right,0.0,1.8154,2.6077,0.7923,0.4492,0.9495,0.5003,V
109,109,0.49922,0.1,1,0.21633,0.25793,0.54915,109,1.87209,-0.294,-0.14977,0.34946,5,2U1D,2.0,True,0.508,4,False,right,0.0,0.2231,0.5733,0.3501,1.1232,1.6232,0.5001,V
110,110,0.49922,1.2,1,0.27457,0.29953,0.52419,110,1.91369,-0.366,-0.18305,0.31618,5,3U1D,1.0,False,0.526,2,False,left,0.0,0.2821,0.5996,0.3175,1.1246,1.6244,0.4998,V
111,111,0.49922,0.1,1,0.4077,0.39938,0.61571,111,2.65421,0.47,0.23297,0.7322,5,3D1U,1.0,True,0.317,5,True,left,0.0,0.4112,1.1445,0.7333,1.7611,2.2615,0.5003,A
112,112,0.49922,1.2,2,0.3245,0.23297,0.56579,112,1.9969,-0.258,-0.13313,0.37442,5,2U1D,1.0,True,0.467,4,False,left,0.0,1.401,1.776,0.375,0.3346,0.8345,0.4998,V
113,113,0.49922,0.1,2,0.24129,0.39938,0.88196,113,2.32138,-0.402,-0.19969,0.29953,5,3U1D,1.0,True,0.284,3,True,left,0.0,1.6346,1.9346,0.3,0.2512,0.7512,0.5,V
114,114,0.49922,1.2,1,0.22465,0.4077,0.41602,114,2.49612,0.9,0.4493,0.94853,5,lapse_rate,1.0,True,0.31,0,False,left,0.0,0.2332,1.1832,0.95,1.5999,2.0999,0.5,V
115,115,0.49922,1.2,2,0.25793,0.22465,0.74884,115,2.50444,0.546,0.27457,0.7738,5,2D1U,1.0,False,0.36,7,False,left,0.0,1.5125,2.2879,0.7754,0.2627,0.7629,0.5002,A
116,116,0.49922,0.1,2,0.34946,0.29121,0.7738,116,2.64589,0.47,0.23297,0.7322,5,3D1U,2.0,True,0.401,5,True,right,0.0,1.6279,2.3618,0.7338,0.3529,0.8526,0.4997,A
117,117,0.49922,1.2,2,0.23297,0.20801,0.71555,117,1.95528,-0.402,-0.19969,0.29953,5,3U1D,1.0,True,0.4,3,True,left,0.0,1.4593,1.7601,0.3008,0.2435,0.7434,0.4998,V
118,118,0.49922,0.1,1,0.39938,0.39938,0.66563,118,2.91214,0.9,0.4493,0.94853,5,lapse_rate,1.0,True,0.276,0,False,left,0.0,0.4035,1.3524,0.949,2.0199,2.52,0.5001,V
119,119,0.49922,0.1,2,0.27457,0.3661,0.43266,119,2.2881,0.434,0.21633,0.71555,5,3D1U,2.0,True,0.375,6,True,right,0.0,1.2161,1.9323,0.7162,0.2825,0.7827,0.5002,A
120,120,0.49922,1.2,2,0.39938,0.39938,0.45762,120,2.13002,-0.258,-0.13313,0.37442,5,2U1D,2.0,False,1.118,4,False,right,0.0,1.3678,1.7433,0.3755,0.409,0.9093,0.5004,A
121,121,0.49922,0.1,2,0.31618,0.43266,0.58243,121,2.62093,0.582,0.29121,0.79044,5,2D1U,2.0,True,0.35,8,True,right,0.0,1.4103,2.2017,0.7914,0.327,0.8275,0.5006,A
122,122,0.49922,0.1,2,0.34946,0.30785,0.7322,122,2.83726,0.9,0.4493,0.94853,5,lapse_rate,2.0,True,0.417,0,False,right,0.0,1.5862,2.5359,0.9496,0.3525,0.852,0.4995,A
123,123,0.49922,1.2,1,0.42434,0.31618,0.86532,123,2.45452,-0.294,-0.14977,0.34946,5,2U1D,1.0,False,0.616,5,True,left,0.0,0.4349,0.7849,0.35,1.6511,2.1517,0.5006,V
124,124,0.49922,0.1,1,0.23297,0.41602,0.57411,124,2.43787,0.434,0.21633,0.71555,5,3D1U,1.0,True,0.268,6,True,left,0.0,0.2434,0.9609,0.7175,1.5361,2.036,0.4999,V
125,125,0.49922,1.2,2,0.26625,0.28289,0.82372,125,2.17161,-0.402,-0.19969,0.29953,5,3U1D,1.0,True,0.408,3,True,left,0.0,1.5952,1.896,0.3009,0.2701,0.7711,0.501,A
126,126,0.49922,0.1,1,0.24961,0.29953,0.56579,126,2.40459,0.582,0.29121,0.79044,5,2D1U,1.0,True,0.383,8,True,left,0.0,0.2562,1.0478,0.7916,1.6144,2.1143,0.5,V
127,127,0.49922,1.2,2,0.21633,0.42434,0.84868,127,2.70412,0.434,0.21633,0.71555,5,3D1U,1.0,False,0.532,6,True,left,0.0,1.5773,2.2937,0.7163,0.227,0.7261,0.4992,V
128,128,0.49922,0.1,1,0.30785,0.4077,0.89028,128,2.87885,0.546,0.27457,0.7738,5,2D1U,1.0,True,0.258,9,True,left,0.0,0.3153,1.0902,0.7749,1.9827,2.4827,0.5,V
129,129,0.49922,1.2,1,0.29953,0.43266,0.857,129,2.42123,-0.33,-0.16641,0.33282,5,2U1D,1.0,False,0.233,5,False,left,0.0,0.3109,0.6441,0.3332,1.5026,2.0022,0.4996,A
130,130,0.49922,0.1,2,0.24961,0.29121,0.83204,130,2.18826,-0.366,-0.18305,0.31618,5,3U1D,1.0,True,0.349,4,True,left,0.0,1.5868,1.9032,0.3163,0.2535,0.7535,0.5001,A
131,131,0.49922,1.2,1,0.44098,0.20801,0.82372,131,2.02185,-0.9,-0.4493,0.04992,5,lapse_rate,1.0,False,0.468,0,False,left,0.0,0.452,0.502,0.05,1.327,1.8269,0.4998,V
132,132,0.49922,1.2,2,0.39106,0.34946,0.44098,132,2.41292,0.47,0.23297,0.7322,5,3D1U,2.0,True,0.293,7,True,right,0.0,1.3426,2.0761,0.7334,0.4009,0.9006,0.4997,V
133,133,0.49922,0.1,1,0.23297,0.34114,0.63235,133,2.65421,0.9,0.4493,0.94853,5,lapse_rate,1.0,True,0.343,0,False,left,0.0,0.2409,1.191,0.9501,1.8242,2.3241,0.4999,A
134,134,0.49922,0.1,2,0.3245,0.34114,0.45762,134,2.39628,0.546,0.27457,0.7738,5,2D1U,2.0,True,0.285,9,True,right,0.0,1.2897,2.0646,0.7749,0.3313,0.8314,0.5001,V
135,135,0.49922,1.2,2,0.26625,0.35778,0.50754,135,1.94697,-0.366,-0.18305,0.31618,5,2U1D,2.0,False,0.584,5,False,right,0.0,1.2809,1.5981,0.3172,0.2722,0.7727,0.5005,A
136,136,0.49922,0.1,2,0.39938,0.42434,0.8986,136,2.53772,-0.366,-0.18305,0.31618,5,3U1D,1.0,True,0.318,4,True,left,0.0,1.8102,2.1267,0.3165,0.4101,0.91,0.4999,A
137,137,0.49922,1.2,2,0.19969,0.28289,0.7738,137,2.4878,0.47,0.23297,0.7322,5,3D1U,2.0,True,0.369,7,True,right,0.0,1.4835,2.2168,0.7332,0.2088,0.7087,0.4999,V
138,138,0.49922,0.1,2,0.28289,0.34114,0.83204,138,2.27147,-0.366,-0.18305,0.31618,5,3U1D,1.0,True,0.318,4,True,left,0.0,1.619,1.9368,0.3178,0.2869,0.7868,0.4999,A
139,139,0.49922,1.2,2,0.3661,0.29121,0.8986,139,2.81229,0.51,0.25793,0.75716,5,2D1U,2.0,True,0.35,9,False,right,0.0,1.775,2.5331,0.7581,0.3744,0.8751,0.5007,V
140,140,0.49922,1.2,2,0.3245,0.3661,0.80708,140,2.04682,-0.9,-0.4493,0.04992,5,lapse_rate,1.0,True,0.468,0,False,left,0.0,1.641,1.6912,0.0502,0.3318,0.8322,0.5004,V
141,141,0.49922,0.1,2,0.39938,0.29121,0.79044,141,2.27978,-0.402,-0.19969,0.29953,5,2U1D,1.0,True,0.518,5,False,left,0.0,1.6937,1.9946,0.3008,0.403,0.9029,0.4999,V
142,142,0.49922,1.2,2,0.43266,0.25793,0.70723,142,2.6542,0.51,0.25793,0.75716,5,2D1U,2.0,True,0.45,9,False,right,0.0,1.6463,2.4045,0.7582,0.4381,0.938,0.4999,V
143,143,0.49922,0.1,2,0.33282,0.23297,0.76548,143,2.56269,0.47,0.23297,0.7322,5,3D1U,2.0,True,0.467,7,True,right,0.0,1.6103,2.3435,0.7332,0.3437,0.8437,0.5,A
144,144,0.49922,1.2,2,0.26625,0.27457,0.69891,144,2.4545,0.434,0.21633,0.71555,5,3D1U,1.0,False,0.375,8,True,left,0.0,1.472,2.1886,0.7166,0.2712,0.7719,0.5007,A
145,145,0.49922,0.1,2,0.19969,0.39938,0.7322,145,2.16331,-0.33,-0.16641,0.33282,5,3U1D,1.0,True,0.301,4,False,left,0.0,1.4399,1.7727,0.3328,0.2056,0.7062,0.5006,V
146,146,0.49922,1.2,1,0.34114,0.26625,0.59907,146,2.00521,-0.402,-0.19969,0.29953,5,2U1D,1.0,False,1.226,5,False,left,0.0,0.3451,0.645,0.3,1.245,1.744,0.499,A
147,147,0.49922,0.1,2,0.24961,0.44098,0.54083,147,2.06346,-0.33,-0.16641,0.33282,5,3U1D,1.0,True,0.258,4,False,left,0.0,1.2944,1.6276,0.3331,0.2532,0.753,0.4997,A
148,148,0.49922,1.2,2,0.22465,0.29953,0.56579,148,1.87208,-0.438,-0.21633,0.28289,5,2U1D,1.0,True,0.301,5,False,left,0.0,1.2947,1.5783,0.2836,0.2289,0.7287,0.4998,V
149,149,0.49922,0.1,1,0.34114,0.39106,0.69059,149,2.66253,0.474,0.23297,0.74052,5,2D1U,1.0,True,0.267,9,False,left,0.0,0.3512,1.0924,0.7412,1.7845,2.284,0.4995,V
150,150,0.49922,1.2,2,0.44098,0.30785,0.45762,150,2.43787,0.47,0.23297,0.7322,5,3D1U,1.0,False,0.393,9,True,left,0.0,1.4106,2.1437,0.7331,0.4522,0.9519,0.4998,V
151,151,0.49922,0.1,1,0.20801,0.29121,0.88196,151,2.21322,-0.33,-0.16641,0.33282,5,3U1D,2.0,True,0.476,4,False,right,0.0,0.2168,0.5513,0.3345,1.4346,1.9347,0.5002,V
152,152,0.49922,1.2,2,0.31618,0.37442,0.44098,152,1.91369,-0.438,-0.21633,0.28289,5,2U1D,1.0,True,0.31,5,False,left,0.0,1.2679,1.5514,0.2835,0.3256,0.8263,0.5006,A
153,153,0.49922,0.1,1,0.29953,0.24129,0.70723,153,2.50443,0.506,0.24961,0.75716,5,3D1U,1.0,True,0.343,9,False,left,0.0,0.3074,1.0651,0.7578,1.7745,2.2744,0.4999,V
154,154,0.49922,1.2,2,0.22465,0.34946,0.43266,154,2.26315,0.506,0.24961,0.75716,5,3D1U,1.0,False,0.391,9,False,left,0.0,1.1664,1.9247,0.7583,0.2327,0.733,0.5004,V
155,155,0.49922,0.1,1,0.34946,0.26625,0.71555,155,2.17994,-0.294,-0.14977,0.34946,5,3U1D,2.0,True,0.526,4,False,right,0.0,0.3602,0.7106,0.3504,1.4265,1.9271,0.5005,V
156,156,0.49922,1.2,1,0.31618,0.4077,0.857,156,2.82062,0.474,0.23297,0.74052,5,2D1U,1.0,True,0.333,9,False,left,0.0,0.3272,1.0686,0.7414,1.9278,2.4278,0.5,A
157,157,0.49922,0.1,2,0.34946,0.22465,0.69059,157,2.11338,-0.294,-0.14977,0.34946,5,3U1D,1.0,True,0.484,4,False,left,0.0,1.5452,1.8953,0.3501,0.3529,0.8533,0.5003,A
158,158,0.49922,1.2,1,0.35778,0.22465,0.84036,158,2.69581,0.542,0.27457,0.7738,5,3D1U,1.0,True,1.009,9,False,left,0.0,0.3636,1.1384,0.7748,1.9802,2.4804,0.5002,V
159,159,0.49922,0.1,2,0.34114,0.29121,0.59907,159,2.44619,0.438,0.21633,0.71555,5,2D1U,2.0,True,0.501,9,False,right,0.0,1.447,2.1642,0.7173,0.3467,0.8472,0.5004,A
160,160,0.49922,1.2,2,0.3661,0.28289,0.65731,160,2.52107,0.438,0.21633,0.71555,5,2D1U,2.0,True,0.467,9,False,right,0.0,1.5345,2.2506,0.7161,0.3756,0.8759,0.5003,A
161,161,0.49922,0.1,1,0.41602,0.20801,0.63235,161,2.05513,-0.402,-0.19969,0.29953,5,2U1D,2.0,True,0.5,6,True,right,0.0,0.4236,0.7237,0.3001,1.3573,1.8566,0.4992,V
162,162,0.49922,1.2,1,0.43266,0.21633,0.8154,162,2.66252,0.402,0.19969,0.69891,5,2D1U,2.0,False,1.127,9,False,right,0.0,0.4391,1.14,0.7009,1.9565,2.4567,0.5002,A
163,163,0.49922,0.1,1,0.4077,0.21633,0.44098,163,2.33803,0.542,0.27457,0.7738,5,3D1U,1.0,True,0.434,9,False,left,0.0,0.4112,1.1859,0.7747,1.6284,2.1284,0.5,A
164,164,0.49922,1.2,2,0.44098,0.24961,0.7322,164,2.22154,-0.402,-0.19969,0.29953,5,2U1D,1.0,True,0.616,6,True,left,0.0,1.682,1.9818,0.2998,0.4483,0.9479,0.4996,V
165,165,0.49922,0.1,2,0.20801,0.20801,0.7322,165,1.9969,-0.294,-0.14977,0.34946,5,3U1D,1.0,True,0.401,4,False,left,0.0,1.4482,1.7984,0.3503,0.215,0.7152,0.5002,A
166,166,0.49922,1.2,2,0.26625,0.25793,0.74884,166,2.48779,0.438,0.21633,0.71555,5,2D1U,2.0,True,0.368,10,True,right,0.0,1.5244,2.2409,0.7165,0.2736,0.7746,0.501,V
167,167,0.49922,0.1,1,0.30785,0.24129,0.63235,167,1.99689,-0.366,-0.18305,0.31618,5,2U1D,2.0,True,0.485,6,False,right,0.0,0.3129,0.6289,0.316,1.262,1.7627,0.5008,A
168,168,0.49922,1.2,1,0.29121,0.34946,0.54083,168,2.39627,0.438,0.21633,0.71555,5,2D1U,1.0,True,0.417,10,True,left,0.0,0.3017,1.0187,0.717,1.5598,2.0593,0.4995,A
169,169,0.49922,0.1,1,0.24961,0.3661,0.80708,169,2.29643,-0.258,-0.13313,0.37442,5,3U1D,2.0,True,0.434,4,False,right,0.0,0.2601,0.6351,0.3751,1.443,1.9432,0.5003,A
170,170,0.49922,1.2,1,0.37442,0.39938,0.4077,170,2.45452,0.542,0.27457,0.7738,5,3D1U,2.0,False,0.4,9,False,right,0.0,0.3834,1.1592,0.7758,1.5667,2.0675,0.5008,A
171,171,0.49922,0.1,2,0.22465,0.24961,0.49922,171,2.26314,0.578,0.29121,0.79044,5,3D1U,2.0,True,0.459,9,False,right,0.0,1.2352,2.0268,0.7916,0.2351,0.7356,0.5006,A
172,172,0.49922,1.2,2,0.22465,0.31618,0.41602,172,2.15498,0.402,0.19969,0.69891,5,2D1U,2.0,True,0.642,11,True,right,0.0,1.1501,1.85,0.6998,0.2334,0.7332,0.4997,V
173,173,0.49922,0.1,2,0.43266,0.24129,0.39938,173,2.36299,0.578,0.29121,0.79044,5,3D1U,2.0,True,0.375,9,False,right,0.0,1.3434,2.1348,0.7913,0.442,0.9422,0.5003,A
174,174,0.49922,1.2,2,0.21633,0.34946,0.7322,174,2.11339,-0.366,-0.18305,0.31618,5,2U1D,2.0,False,3.05,6,False,right,0.0,1.4606,1.7765,0.3159,0.2263,0.7272,0.501,V
175,175,0.49922,0.1,1,0.29953,0.41602,0.59907,175,2.18826,-0.258,-0.13313,0.37442,5,3U1D,2.0,True,0.493,4,False,right,0.0,0.3081,0.6838,0.3757,1.284,1.7837,0.4997,A
176,176,0.49922,1.2,2,0.24961,0.34114,0.79044,176,2.25483,-0.258,-0.13313,0.37442,5,3U1D,1.0,True,0.384,4,False,left,0.0,1.5485,1.9235,0.375,0.2577,0.7575,0.4998,A
177,177,0.49922,0.1,2,0.37442,0.24129,0.58243,177,2.4878,0.578,0.29121,0.79044,5,3D1U,2.0,True,0.35,9,False,right,0.0,1.4673,2.2585,0.7911,0.3841,0.8836,0.4995,A
178,178,0.49922,1.2,1,0.3245,0.34946,0.49922,178,2.4462,0.542,0.27457,0.7738,5,3D1U,1.0,True,0.267,10,True,left,0.0,0.3296,1.105,0.7754,1.6045,2.1047,0.5002,A
179,179,0.49922,0.1,2,0.27457,0.4077,0.64899,179,2.13001,-0.402,-0.19969,0.29953,5,2U1D,1.0,True,0.401,7,True,left,0.0,1.4343,1.7342,0.3,0.2836,0.7843,0.5007,A
180,180,0.49922,1.2,1,0.3661,0.39106,0.51586,180,2.1633,-0.222,-0.10817,0.39106,5,3U1D,2.0,True,0.308,4,False,right,0.0,0.371,0.7626,0.3916,1.2789,1.7791,0.5002,A
181,181,0.49922,0.1,1,0.25793,0.29121,0.78212,181,2.52939,0.402,0.19969,0.69891,5,2D1U,1.0,True,0.283,11,True,left,0.0,0.2618,0.9617,0.6999,1.7451,2.2451,0.5,A
182,182,0.49922,1.2,2,0.20801,0.31618,0.57411,182,1.98858,-0.222,-0.10817,0.39106,5,3U1D,1.0,True,0.323,4,False,left,0.0,1.2884,1.681,0.3926,0.2144,0.7145,0.5002,A
183,183,0.49922,0.1,1,0.4077,0.3245,0.89028,183,2.80397,0.366,0.18305,0.68227,5,2D1U,1.0,True,0.55,11,False,left,0.0,0.4121,1.0942,0.682,1.986,2.4872,0.5012,A
184,184,0.49922,1.2,2,0.41602,0.26625,0.57411,184,2.05513,-0.402,-0.19969,0.29953,5,2U1D,1.0,True,0.275,7,True,left,0.0,1.5019,1.8026,0.3007,0.4277,0.9275,0.4998,V
185,185,0.49922,0.1,2,0.30785,0.25793,0.58243,185,2.42123,0.542,0.27457,0.7738,5,3D1U,2.0,True,0.325,10,True,right,0.0,1.3972,2.1723,0.7751,0.314,0.8144,0.5004,A
186,186,0.49922,1.2,1,0.28289,0.26625,0.46594,186,2.2881,0.542,0.27457,0.7738,5,3D1U,1.0,True,0.308,10,True,left,0.0,0.2878,1.0633,0.7755,1.5293,2.0293,0.5,V
187,187,0.49922,0.1,2,0.44098,0.29953,0.8154,187,2.81229,0.506,0.24961,0.75716,5,3D1U,2.0,True,0.358,10,False,right,0.0,1.7616,2.5203,0.7587,0.445,0.9444,0.4994,A
188,188,0.49922,1.2,1,0.24961,0.26625,0.52419,188,1.85545,-0.366,-0.18305,0.31618,5,2U1D,1.0,False,0.566,8,True,left,0.0,0.2581,0.5746,0.3165,1.0995,1.5986,0.4992,A
189,189,0.49922,0.1,1,0.19969,0.38274,0.8154,189,2.19658,-0.402,-0.19969,0.29953,5,2U1D,2.0,True,0.299,9,True,right,0.0,0.205,0.5049,0.2999,1.3214,1.8213,0.4999,A
190,190,0.49922,1.2,2,0.21633,0.24961,0.56579,190,1.92201,-0.222,-0.10817,0.39106,5,3U1D,1.0,True,0.417,4,False,left,0.0,1.286,1.6779,0.3919,0.2191,0.7193,0.5001,V
191,191,0.49922,0.1,2,0.23297,0.37442,0.48258,191,2.27146,0.366,0.18305,0.68227,5,2D1U,2.0,True,0.309,11,False,right,0.0,1.2266,1.9106,0.684,0.2438,0.7437,0.4999,V
192,192,0.49922,1.2,1,0.21633,0.21633,0.62403,192,2.31307,0.506,0.24961,0.75716,5,3D1U,2.0,False,0.225,10,False,right,0.0,0.225,0.9829,0.758,1.6081,2.1083,0.5002,A
193,193,0.49922,0.1,2,0.43266,0.4493,0.67395,193,2.46283,-0.186,-0.09152,0.4077,5,3U1D,1.0,True,0.235,4,False,left,0.0,1.6163,2.0249,0.4086,0.4412,0.9419,0.5007,A
194,194,0.49922,1.2,1,0.44098,0.37442,0.86532,194,2.47947,-0.402,-0.19969,0.29953,5,2U1D,2.0,True,0.26,9,True,right,0.0,0.4522,0.7523,0.3001,1.6186,2.1185,0.4999,V
195,195,0.49922,0.1,1,0.22465,0.29121,0.68227,195,2.36298,0.33,0.16641,0.66563,5,2D1U,1.0,True,0.309,11,False,left,0.0,0.2312,0.8974,0.6662,1.5817,2.0814,0.4997,V
196,196,0.49922,1.2,1,0.41602,0.39106,0.69891,196,2.77901,0.542,0.27457,0.7738,5,3D1U,2.0,False,0.267,11,True,right,0.0,0.4267,1.201,0.7743,1.9018,2.4028,0.501,V
197,197,0.49922,0.1,1,0.38274,0.33282,0.43266,197,1.96362,-0.366,-0.18305,0.31618,5,2U1D,2.0,True,0.45,10,True,right,0.0,0.3899,0.7065,0.3167,1.1398,1.639,0.4992,V
198,198,0.49922,1.2,1,0.21633,0.3661,0.54915,198,2.29643,0.33,0.16641,0.66563,5,2D1U,2.0,False,0.743,11,False,right,0.0,0.2208,0.8876,0.6668,1.4377,1.9367,0.4991,A
199,199,0.49922,0.1,1,0.37442,0.3245,0.47426,199,2.0801,-0.186,-0.09152,0.4077,5,3U1D,2.0,True,0.309,4,False,right,0.0,0.3812,0.7895,0.4083,1.2646,1.7649,0.5003,V
200,200,0.49922,1.2,2,0.29953,0.19969,0.76548,200,2.55436,0.578,0.29121,0.79044,5,3D1U,1.0,False,0.792,11,False,left,0.0,1.5769,2.3685,0.7916,0.3101,0.8101,0.5,V
201,201,0.49922,0.1,2,0.35778,0.23297,0.8154,201,2.22155,-0.366,-0.18305,0.31618,5,2U1D,1.0,True,0.359,10,True,left,0.0,1.6805,1.9965,0.316,0.3643,0.8641,0.4998,V
202,202,0.49922,1.2,1,0.33282,0.38274,0.79044,202,2.41292,-0.186,-0.09152,0.4077,5,3U1D,1.0,False,0.376,4,False,left,0.0,0.3414,0.7495,0.4081,1.542,2.0417,0.4997,A
203,203,0.49922,0.1,2,0.39106,0.38274,0.51586,203,2.17994,-0.222,-0.10817,0.39106,5,3U1D,1.0,True,0.26,5,True,left,0.0,1.4124,1.8043,0.3918,0.3959,0.8949,0.499,V
204,204,0.49922,1.2,1,0.24129,0.43266,0.68227,204,2.53771,0.366,0.18305,0.68227,5,2D1U,2.0,False,0.316,12,True,right,0.0,0.2466,0.9308,0.6843,1.6136,2.1139,0.5004,V
205,205,0.49922,0.1,1,0.39938,0.39106,0.72387,205,2.82061,0.614,0.30785,0.80708,5,3D1U,1.0,True,0.309,11,False,left,0.0,0.4102,1.2181,0.8079,1.9426,2.4435,0.5009,V
206,206,0.49922,1.2,2,0.28289,0.22465,0.69891,206,2.03849,-0.33,-0.16641,0.33282,5,2U1D,1.0,True,0.351,10,False,left,0.0,1.4936,1.8269,0.3334,0.2935,0.7929,0.4994,V
207,207,0.49922,0.1,1,0.39106,0.29953,0.66563,207,2.18826,-0.33,-0.16641,0.33282,5,2U1D,2.0,True,0.392,10,False,right,0.0,0.3961,0.7297,0.3336,1.396,1.8962,0.5002,A
208,208,0.49922,1.2,1,0.34114,0.33282,0.69891,208,2.22155,-0.294,-0.14977,0.34946,5,2U1D,2.0,True,0.376,10,False,right,0.0,0.3485,0.6987,0.3502,1.3984,1.8986,0.5001,A
209,209,0.49922,0.1,1,0.38274,0.28289,0.44098,209,1.99689,-0.222,-0.10817,0.39106,5,3U1D,1.0,False,0.416,5,True,left,0.0,0.3902,0.7817,0.3915,1.2233,1.7225,0.4992,V
210,210,0.49922,1.2,1,0.29121,0.37442,0.47426,210,2.33802,0.402,0.19969,0.69891,5,2D1U,2.0,False,0.568,12,False,right,0.0,0.3006,1.0012,0.7006,1.476,1.9762,0.5002,A
211,211,0.49922,0.1,2,0.24961,0.28289,0.66563,211,2.50443,0.614,0.30785,0.80708,5,3D1U,2.0,True,0.292,11,False,right,0.0,1.4227,2.2316,0.8089,0.2561,0.7553,0.4993,A
212,212,0.49922,1.2,2,0.41602,0.34114,0.74884,212,2.8123,0.614,0.30785,0.80708,5,3D1U,1.0,False,0.667,11,False,left,0.0,1.6738,2.4816,0.8078,0.4231,0.9232,0.5001,A
213,213,0.49922,0.1,1,0.28289,0.44098,0.54915,213,2.59596,0.65,0.3245,0.82372,5,3D1U,1.0,True,0.243,11,False,left,0.0,0.2905,1.1154,0.8249,1.6654,2.1654,0.5,V
214,214,0.49922,1.2,1,0.22465,0.35778,0.7322,214,2.16331,-0.294,-0.14977,0.34946,5,2U1D,1.0,False,0.6,10,False,left,0.0,0.2332,0.5831,0.35,1.3165,1.8166,0.5001,A
215,215,0.49922,0.1,1,0.43266,0.21633,0.66563,215,2.18826,-0.258,-0.13313,0.37442,5,3U1D,2.0,True,0.408,5,False,right,0.0,0.4401,0.8156,0.3755,1.4823,1.9823,0.5001,V
216,216,0.49922,1.2,2,0.3661,0.4077,0.80708,216,2.79565,0.438,0.21633,0.71555,5,2D1U,2.0,True,0.401,12,False,right,0.0,1.6788,2.3959,0.717,0.3707,0.8711,0.5005,V
217,217,0.49922,0.1,1,0.4493,0.34946,0.84036,217,2.85389,0.438,0.21633,0.71555,5,2D1U,2.0,False,0.451,12,False,right,0.0,0.4571,1.1734,0.7163,2.0153,2.5152,0.4999,V
218,218,0.49922,1.2,2,0.28289,0.28289,0.68227,218,2.57099,0.65,0.3245,0.82372,5,3D1U,2.0,True,0.285,11,False,right,0.0,1.4699,2.2938,0.824,0.2865,0.7859,0.4994,V
219,219,0.49922,0.1,2,0.39106,0.30785,0.52419,219,2.54604,0.65,0.3245,0.82372,5,3D1U,2.0,True,0.327,11,False,right,0.0,1.4209,2.2468,0.8259,0.3967,0.8967,0.4999,A
220,220,0.49922,1.2,2,0.22465,0.22465,0.88196,220,2.2049,-0.258,-0.13313,0.37442,5,3U1D,2.0,False,0.492,5,False,right,0.0,1.6135,1.9885,0.375,0.2308,0.7306,0.4998,A
221,221,0.49922,0.1,2,0.27457,0.20801,0.66563,221,1.98025,-0.33,-0.16641,0.33282,5,2U1D,1.0,True,0.433,11,True,left,0.0,1.4513,1.7851,0.3338,0.2848,0.7849,0.5001,V
222,222,0.49922,1.2,2,0.39106,0.22465,0.47426,222,2.39627,0.614,0.30785,0.80708,5,3D1U,2.0,True,0.443,12,True,right,0.0,1.372,2.1798,0.8077,0.3971,0.8962,0.4991,V
223,223,0.49922,0.1,2,0.27457,0.19969,0.56579,223,1.88873,-0.294,-0.14977,0.34946,5,3U1D,2.0,False,2.876,5,False,right,0.0,1.3484,1.6979,0.3495,0.2816,0.7808,0.4992,A
224,224,0.49922,1.2,2,0.21633,0.34114,0.44098,224,1.83049,-0.33,-0.16641,0.33282,5,3U1D,1.0,True,0.676,5,False,left,0.0,1.1654,1.4984,0.333,0.2234,0.7236,0.5002,A
225,225,0.49922,0.1,1,0.3245,0.44098,0.88196,225,2.47948,-0.33,-0.16641,0.33282,5,2U1D,2.0,True,0.326,11,True,right,0.0,0.3354,0.669,0.3336,1.5528,2.0524,0.4997,A
226,226,0.49922,1.2,2,0.19969,0.39106,0.67395,226,2.50444,0.474,0.23297,0.74052,5,2D1U,2.0,True,0.234,12,False,right,0.0,1.3782,2.12,0.7418,0.2033,0.7033,0.5,A
227,227,0.49922,0.1,2,0.42434,0.31618,0.64067,227,2.21323,-0.33,-0.16641,0.33282,5,3U1D,2.0,False,0.459,5,False,right,0.0,1.5716,1.9054,0.3337,0.4307,0.93,0.4993,A
228,228,0.49922,1.2,1,0.35778,0.31618,0.60739,228,2.09675,-0.366,-0.18305,0.31618,5,3U1D,2.0,True,1.209,5,False,right,0.0,0.3632,0.6789,0.3157,1.2881,1.7882,0.5001,V
229,229,0.49922,0.1,2,0.41602,0.39938,0.857,229,2.52108,-0.294,-0.14977,0.34946,5,2U1D,1.0,True,0.268,12,True,left,0.0,1.7802,2.1299,0.3498,0.4212,0.922,0.5007,V
230,230,0.49922,1.2,1,0.38274,0.26625,0.62403,230,2.51276,0.474,0.23297,0.74052,5,2D1U,1.0,True,0.418,12,False,left,0.0,0.3861,1.1289,0.7428,1.7533,2.2537,0.5004,V
231,231,0.49922,0.1,2,0.3661,0.21633,0.58243,231,2.47116,0.614,0.30785,0.80708,5,3D1U,2.0,True,0.417,12,True,right,0.0,1.4546,2.2631,0.8085,0.3723,0.8716,0.4993,V
232,232,0.49922,1.2,1,0.23297,0.20801,0.7322,232,1.98858,-0.366,-0.18305,0.31618,5,3U1D,2.0,True,1.859,5,False,right,0.0,0.2431,0.5598,0.3167,1.2927,1.7934,0.5007,A
233,233,0.49922,0.1,2,0.37442,0.27457,0.74884,233,2.6126,0.438,0.21633,0.71555,5,2D1U,2.0,True,2.135,13,True,right,0.0,1.6334,2.3497,0.7164,0.3831,0.8824,0.4993,V
234,234,0.49922,1.2,2,0.39938,0.38274,0.60739,234,2.23819,-0.294,-0.14977,0.34946,5,2U1D,1.0,True,1.726,12,True,left,0.0,1.5177,1.8675,0.3498,0.4097,0.9099,0.5002,A
235,235,0.49922,0.1,2,0.29953,0.30785,0.82372,235,2.30474,-0.258,-0.13313,0.37442,5,2U1D,1.0,True,0.351,12,False,left,0.0,1.6318,2.0063,0.3744,0.3071,0.8076,0.5005,A
236,236,0.49922,1.2,1,0.41602,0.33282,0.62403,236,2.67917,0.614,0.30785,0.80708,5,3D1U,2.0,False,0.609,12,True,right,0.0,0.4234,1.2316,0.8082,1.8566,2.3564,0.4998,V
237,237,0.49922,0.1,1,0.38274,0.22465,0.59075,237,2.07178,-0.258,-0.13313,0.37442,5,2U1D,1.0,False,0.792,12,False,left,0.0,0.3893,0.7645,0.3752,1.3563,1.8563,0.5,V
238,238,0.49922,1.2,2,0.41602,0.26625,0.61571,238,2.14666,-0.294,-0.14977,0.34946,5,2U1D,1.0,True,0.525,13,True,left,0.0,1.5417,1.892,0.3503,0.4253,0.9251,0.4999,V
239,239,0.49922,0.1,1,0.35778,0.42434,0.51586,239,2.11338,-0.366,-0.18305,0.31618,5,3U1D,2.0,True,0.351,5,False,right,0.0,0.3623,0.6792,0.3169,1.1959,1.6956,0.4997,A
240,240,0.49922,1.2,2,0.21633,0.39938,0.80708,240,2.74573,0.65,0.3245,0.82372,5,3D1U,2.0,True,0.476,13,True,right,0.0,1.528,2.3522,0.8242,0.2189,0.7196,0.5007,A
241,241,0.49922,0.1,2,0.34114,0.44098,0.42434,241,2.42123,0.438,0.21633,0.71555,5,2D1U,2.0,True,0.268,13,True,right,0.0,1.271,1.9879,0.7169,0.3462,0.8458,0.4996,A
242,242,0.49922,1.2,1,0.34946,0.24961,0.59075,242,2.51276,0.65,0.3245,0.82372,5,3D1U,2.0,False,1.2,13,True,right,0.0,0.3602,1.1854,0.8251,1.7761,2.276,0.4999,A
243,243,0.49922,0.1,1,0.25793,0.3245,0.80708,243,2.58764,0.402,0.19969,0.69891,5,2D1U,1.0,True,0.3,13,False,left,0.0,0.268,0.9679,0.6999,1.7757,2.2761,0.5004,V
244,244,0.49922,1.2,1,0.22465,0.26625,0.59907,244,1.92201,-0.33,-0.16641,0.33282,5,3U1D,1.0,False,0.359,6,True,left,0.0,0.2331,0.5656,0.3324,1.1664,1.6662,0.4997,V
245,245,0.49922,0.1,2,0.27457,0.22465,0.88196,245,2.22986,-0.294,-0.14977,0.34946,5,2U1D,1.0,True,0.408,13,True,left,0.0,1.6617,2.0121,0.3503,0.2782,0.778,0.4998,V
246,246,0.49922,1.2,2,0.26625,0.4493,0.79044,246,2.37963,-0.258,-0.13313,0.37442,5,2U1D,1.0,True,0.475,14,True,left,0.0,1.5689,1.9441,0.3752,0.2768,0.7775,0.5007,V
247,247,0.49922,0.1,1,0.34114,0.24961,0.56579,247,2.35467,0.402,0.19969,0.69891,5,2D1U,2.0,False,0.618,13,False,right,0.0,0.3466,1.0465,0.6999,1.6132,2.1134,0.5002,V
248,248,0.49922,1.2,2,0.37442,0.24961,0.76548,248,2.20491,-0.366,-0.18305,0.31618,5,3U1D,1.0,True,0.493,7,True,left,0.0,1.6499,1.9666,0.3167,0.3835,0.8834,0.4999,A
249,249,0.49922,0.1,1,0.43266,0.21633,0.64899,249,2.63756,0.686,0.34114,0.84036,5,3D1U,2.0,False,0.783,13,False,right,0.0,0.4427,1.2846,0.842,1.9337,2.4343,0.5006,A
250,250,0.49922,1.2,1,0.41602,0.38274,0.55747,250,2.22987,-0.258,-0.13313,0.37442,5,2U1D,2.0,True,0.426,14,True,right,0.0,0.4264,0.8012,0.3747,1.3596,1.8595,0.4999,A
251,251,0.49922,0.1,1,0.37442,0.22465,0.49922,251,2.31306,0.438,0.21633,0.71555,5,2D1U,1.0,True,1.801,14,True,left,0.0,0.385,1.1024,0.7174,1.6024,2.1018,0.4994,A
252,252,0.49922,1.2,1,0.39106,0.23297,0.54915,252,2.06346,-0.222,-0.10817,0.39106,5,2U1D,2.0,True,0.559,14,False,right,0.0,0.4,0.792,0.392,1.3422,1.8425,0.5002,V
253,253,0.49922,0.1,1,0.29953,0.29953,0.52419,253,1.93865,-0.366,-0.18305,0.31618,5,3U1D,2.0,True,1.708,7,True,right,0.0,0.307,0.6236,0.3166,1.1481,1.6486,0.5005,A
254,254,0.49922,1.2,1,0.21633,0.44098,0.84036,254,2.85389,0.722,0.35778,0.857,5,3D1U,1.0,True,0.426,13,False,left,0.0,0.2197,1.079,0.8593,1.9207,2.4206,0.4999,V
255,255,0.49922,0.1,1,0.3245,0.34114,0.72387,255,2.74573,0.722,0.35778,0.857,5,3D1U,2.0,False,3.718,13,False,right,0.0,0.3349,1.1937,0.8587,1.918,2.4187,0.5007,A
256,256,0.49922,1.2,2,0.31618,0.25793,0.51586,256,2.30474,0.438,0.21633,0.71555,5,2D1U,2.0,True,0.392,14,True,right,0.0,1.3362,2.0537,0.7175,0.3195,0.8205,0.501,A
257,257,0.49922,0.1,2,0.43266,0.27457,0.54083,257,2.44619,0.402,0.19969,0.69891,5,2D1U,2.0,True,0.385,15,True,right,0.0,1.4801,2.1796,0.6995,0.438,0.9384,0.5005,V
258,258,0.49922,1.2,1,0.23297,0.21633,0.75716,258,2.58764,0.758,0.38274,0.88196,5,3D1U,2.0,False,0.315,13,False,right,0.0,0.2382,1.1215,0.8833,1.879,2.3798,0.5008,A
259,259,0.49922,0.1,2,0.35778,0.44098,0.84036,259,3.03694,0.794,0.39938,0.8986,5,3D1U,2.0,True,0.342,13,False,right,0.0,1.7076,2.608,0.9003,0.3661,0.866,0.4999,V
260,260,0.49922,1.2,2,0.39938,0.42434,0.83204,260,2.54604,-0.222,-0.10817,0.39106,5,2U1D,1.0,True,0.458,14,False,left,0.0,1.7429,2.1353,0.3924,0.411,0.911,0.5,V
261,261,0.49922,0.1,2,0.37442,0.22465,0.41602,261,1.83049,-0.366,-0.18305,0.31618,5,3U1D,1.0,True,0.367,7,True,left,0.0,1.3001,1.6166,0.3165,0.3832,0.883,0.4998,V
262,262,0.49922,1.2,2,0.4077,0.30785,0.75716,262,2.37963,-0.186,-0.09152,0.4077,5,2U1D,2.0,False,2.241,14,False,right,0.0,1.6745,2.0832,0.4086,0.416,0.9161,0.5,A
263,263,0.49922,0.1,2,0.38274,0.34114,0.42434,263,1.98026,-0.33,-0.16641,0.33282,5,3U1D,1.0,True,2.368,8,True,left,0.0,1.3153,1.6485,0.3332,0.3901,0.8901,0.5,V
264,264,0.49922,1.2,2,0.20801,0.4493,0.61571,264,2.10506,-0.33,-0.16641,0.33282,5,3U1D,1.0,True,0.517,8,True,left,0.0,1.33,1.6623,0.3323,0.213,0.7132,0.5002,V
265,265,0.49922,0.1,2,0.30785,0.29121,0.64899,265,2.44618,0.402,0.19969,0.69891,5,2D1U,2.0,True,0.416,15,True,right,0.0,1.4651,2.1644,0.6993,0.3148,0.8148,0.4999,V
266,266,0.49922,1.2,1,0.23297,0.43266,0.54083,266,2.60428,0.794,0.39938,0.8986,5,3D1U,2.0,False,0.55,13,False,right,0.0,0.2384,1.1386,0.9002,1.6803,2.1802,0.4999,A
267,267,0.49922,0.1,1,0.25793,0.23297,0.79044,267,2.17162,-0.222,-0.10817,0.39106,5,2U1D,2.0,True,0.417,15,True,right,0.0,0.2622,0.6545,0.3923,1.4464,1.9464,0.5,A
268,268,0.49922,1.2,1,0.3661,0.42434,0.57411,268,2.54604,0.366,0.18305,0.68227,5,2D1U,2.0,False,0.342,15,False,right,0.0,0.3765,1.0603,0.6838,1.6347,2.1349,0.5002,A
269,269,0.49922,0.1,2,0.28289,0.35778,0.44098,269,2.49611,0.83,0.41602,0.91524,5,3D1U,2.0,True,0.325,13,False,right,0.0,1.2344,2.151,0.9166,0.2929,0.7926,0.4997,A
270,270,0.49922,1.2,2,0.25793,0.22465,0.49922,270,1.81384,-0.33,-0.16641,0.33282,5,3U1D,1.0,True,0.485,8,True,left,0.0,1.2666,1.5996,0.333,0.2666,0.7663,0.4997,V
271,271,0.49922,0.1,2,0.39938,0.23297,0.55747,271,2.0801,-0.222,-0.10817,0.39106,5,2U1D,1.0,True,0.367,15,True,left,0.0,1.4639,1.8559,0.392,0.4061,0.9051,0.499,V
272,272,0.49922,1.2,1,0.38274,0.27457,0.44098,272,2.51275,0.83,0.41602,0.91524,5,3D1U,2.0,False,0.667,13,False,right,0.0,0.3911,1.3076,0.9165,1.7494,2.249,0.4996,A
273,273,0.49922,0.1,1,0.3245,0.3661,0.59075,273,2.18827,-0.186,-0.09152,0.4077,5,2U1D,2.0,True,0.808,16,True,right,0.0,0.3334,0.7421,0.4087,1.3338,1.8331,0.4993,V
274,274,0.49922,1.2,2,0.39938,0.34114,0.63235,274,2.571,0.402,0.19969,0.69891,5,2D1U,1.0,False,0.242,16,True,left,0.0,1.5419,2.2419,0.7,0.4082,0.908,0.4998,A
275,275,0.49922,0.1,1,0.28289,0.29953,0.78212,275,2.57931,0.438,0.21633,0.71555,5,2D1U,1.0,True,0.316,16,False,left,0.0,0.29,1.0063,0.7163,1.7901,2.29,0.4999,V
276,276,0.49922,1.2,1,0.4077,0.21633,0.47426,276,1.94697,-0.294,-0.14977,0.34946,5,3U1D,1.0,False,1.051,8,False,left,0.0,0.419,0.7689,0.3499,1.244,1.7433,0.4993,V
277,277,0.49922,0.1,2,0.38274,0.22465,0.75716,277,2.27147,-0.186,-0.09152,0.4077,5,2U1D,1.0,True,0.451,16,True,left,0.0,1.648,2.0565,0.4085,0.3899,0.8896,0.4997,V
278,278,0.49922,1.2,2,0.27457,0.43266,0.4909,278,2.12169,-0.15,-0.07488,0.42434,5,2U1D,1.0,True,0.434,16,False,left,0.0,1.2743,1.6992,0.4249,0.2819,0.7824,0.5005,V
279,279,0.49922,0.1,2,0.41602,0.29953,0.47426,279,2.40458,0.438,0.21633,0.71555,5,2D1U,2.0,True,0.342,16,False,right,0.0,1.3995,2.116,0.7165,0.4247,0.9235,0.4988,V
280,280,0.49922,1.2,2,0.39106,0.24129,0.64067,280,2.10506,-0.33,-0.16641,0.33282,5,3U1D,2.0,False,1.192,9,True,right,0.0,1.5403,1.873,0.3327,0.3984,0.8984,0.5001,A
281,281,0.49922,0.1,2,0.38274,0.29953,0.69059,281,2.80396,0.866,0.43266,0.93188,5,3D1U,2.0,True,0.376,13,False,right,0.0,1.5823,2.515,0.9327,0.3896,0.8909,0.5012,A
282,282,0.49922,1.2,2,0.23297,0.23297,0.66563,282,1.94697,-0.366,-0.18305,0.31618,5,3U1D,1.0,True,0.809,9,False,left,0.0,1.4026,1.72,0.3174,0.2363,0.7368,0.5005,A
283,283,0.49922,0.1,2,0.3661,0.37442,0.62403,283,2.79565,0.866,0.43266,0.93188,5,3D1U,2.0,True,0.376,13,False,right,0.0,1.4984,2.4316,0.9332,0.3729,0.8729,0.5001,A
284,284,0.49922,1.2,1,0.35778,0.34114,0.69059,284,2.58764,0.402,0.19969,0.69891,5,2D1U,2.0,False,1.126,17,True,right,0.0,0.3637,1.0639,0.7002,1.7554,2.2553,0.4999,V
285,285,0.49922,0.1,2,0.39106,0.34114,0.45762,285,2.40459,0.438,0.21633,0.71555,5,2D1U,2.0,True,0.491,18,True,right,0.0,1.3554,2.0719,0.7165,0.3966,0.896,0.4994,V
286,286,0.49922,1.2,2,0.41602,0.37442,0.41602,286,2.13002,-0.15,-0.07488,0.42434,5,2U1D,2.0,False,0.3,16,False,right,0.0,1.3404,1.7651,0.4247,0.4234,0.9233,0.4999,V
287,287,0.49922,0.1,2,0.38274,0.33282,0.60739,287,2.75405,0.866,0.43266,0.93188,5,3D1U,2.0,True,0.444,13,False,right,0.0,1.5018,2.4346,0.9328,0.3932,0.8929,0.4997,V
288,288,0.49922,1.2,2,0.33282,0.35778,0.41602,288,2.32139,0.438,0.21633,0.71555,5,2D1U,2.0,True,0.385,18,True,right,0.0,1.2543,1.9709,0.7166,0.3372,0.8377,0.5005,V
289,289,0.49922,0.1,2,0.24129,0.29953,0.39938,289,2.13833,0.402,0.19969,0.69891,5,2D1U,2.0,True,0.667,19,True,right,0.0,1.1448,1.8443,0.6995,0.245,0.7449,0.4999,A
290,290,0.49922,1.2,2,0.21633,0.33282,0.88196,290,2.33803,-0.186,-0.09152,0.4077,5,2U1D,2.0,False,0.525,17,True,right,0.0,1.6037,2.0119,0.4082,0.2204,0.7206,0.5002,V
291,291,0.49922,0.1,1,0.4493,0.28289,0.59075,291,2.13834,-0.366,-0.18305,0.31618,5,3U1D,2.0,True,0.85,9,False,right,0.0,0.46,0.7764,0.3165,1.3679,1.868,0.5001,A
292,292,0.49922,1.2,1,0.25793,0.41602,0.56579,292,2.05514,-0.366,-0.18305,0.31618,5,3U1D,2.0,True,0.692,9,False,right,0.0,0.2612,0.5787,0.3175,1.1453,1.6449,0.4997,V
293,293,0.49922,0.1,2,0.3245,0.26625,0.89028,293,2.89549,0.83,0.41602,0.91524,5,3D1U,2.0,True,0.51,14,True,right,0.0,1.7222,2.6389,0.9166,0.3302,0.8301,0.4999,V
294,294,0.49922,1.2,2,0.38274,0.27457,0.50754,294,2.36298,0.402,0.19969,0.69891,5,2D1U,2.0,True,0.3,19,True,right,0.0,1.3971,2.0973,0.7002,0.388,0.8879,0.5,A
295,295,0.49922,0.1,2,0.3661,0.43266,0.51586,295,2.49611,0.366,0.18305,0.68227,5,2D1U,2.0,True,0.292,19,False,right,0.0,1.3905,2.0736,0.683,0.3737,0.8738,0.5001,A
296,296,0.49922,1.2,2,0.38274,0.19969,0.79044,296,2.26315,-0.222,-0.10817,0.39106,5,2U1D,2.0,False,0.451,17,False,right,0.0,1.6836,2.0753,0.3917,0.3919,0.8922,0.5003,A
297,297,0.49922,0.1,1,0.41602,0.29121,0.46594,297,2.35466,0.366,0.18305,0.68227,5,2D1U,2.0,False,0.435,19,False,right,0.0,0.4213,1.1046,0.6833,1.571,2.0714,0.5003,V
298,298,0.49922,1.2,2,0.23297,0.35778,0.72387,298,2.14666,-0.33,-0.16641,0.33282,5,3U1D,2.0,False,0.316,10,True,right,0.0,1.4651,1.7985,0.3334,0.2393,0.7403,0.5009,V
299,299,0.49922,0.1,2,0.43266,0.4077,0.53251,299,2.24651,-0.258,-0.13313,0.37442,5,2U1D,1.0,True,0.4,17,False,left,0.0,1.4722,1.8474,0.3752,0.4381,0.939,0.5009,A
300,300,0.49922,1.2,2,0.28289,0.4077,0.41602,300,2.30474,0.402,0.19969,0.69891,5,2D1U,1.0,False,0.225,20,True,left,0.0,1.2051,1.9047,0.6996,0.2884,0.7885,0.5002,A
301,301,0.49922,0.1,2,0.26625,0.23297,0.69891,301,2.4129,0.438,0.21633,0.71555,5,2D1U,2.0,True,0.401,20,False,right,0.0,1.4752,2.1915,0.7163,0.275,0.775,0.5,A
302,302,0.49922,1.2,2,0.26625,0.34946,0.52419,302,2.35467,0.438,0.21633,0.71555,5,2D1U,1.0,False,0.418,20,False,left,0.0,1.2953,2.0112,0.7158,0.2697,0.7696,0.5,V
303,303,0.49922,0.1,2,0.4077,0.29121,0.58243,303,2.15498,-0.258,-0.13313,0.37442,5,2U1D,2.0,False,0.568,17,False,right,0.0,1.4962,1.8712,0.375,0.4123,0.9128,0.5005,A
304,304,0.49922,1.2,1,0.29953,0.20801,0.7322,304,2.05514,-0.366,-0.18305,0.31618,5,3U1D,2.0,True,1.733,11,True,right,0.0,0.3072,0.6237,0.3166,1.3567,1.8571,0.5003,A
305,305,0.49922,0.1,2,0.33282,0.38274,0.69891,305,2.22987,-0.366,-0.18305,0.31618,5,3U1D,1.0,True,0.317,11,True,left,0.0,1.5428,1.8593,0.3165,0.3429,0.8425,0.4996,A
306,306,0.49922,1.2,2,0.35778,0.43266,0.78212,306,2.38796,-0.366,-0.18305,0.31618,5,3U1D,1.0,True,0.201,11,True,left,0.0,1.6472,1.9636,0.3164,0.363,0.8637,0.5007,A
307,307,0.49922,0.1,2,0.28289,0.37442,0.45762,307,1.94697,-0.33,-0.16641,0.33282,5,3U1D,1.0,True,0.259,12,True,left,0.0,1.2497,1.5832,0.3335,0.2912,0.7919,0.5007,A
