Unnamed: 0,standardDur,audNoise,order,preDur,postDur,isiDur,trial_num,totalDur,delta_dur_percents,deltaDurS,testDurS,intensities,current_stair,responses,is_correct,response_rts,stair_num_reversal,stair_is_reversal,response_keys,conflictDur,recordedOnsetVisualTest,recordedOffsetVisualTest,recordedDurVisualTest,recordedOnsetVisualStandard,recordedOffsetVisualStandard,recordedDurVisualStandard,modalityCue,VisualPSE,participantID
0,0.49802,1.2,2,0.29881,0.25731,0.41501,0,1.76796,-0.4,-0.19921,0.29881,5,1D2U,1.0,True,0.293,0,False,left,0.24901,1.33,1.5711,0.2411,0.1957,0.8871,0.6914,A,-0.06,hh
1,0.49802,1.2,2,0.22411,0.25731,0.58932,1,2.11658,0.1,0.0498,0.54782,5,2D1U,2.0,True,0.289,0,False,right,0.0,1.3055,1.7971,0.4916,0.2471,0.6885,0.4414,A,-0.06,hh
2,0.49802,1.2,2,0.29051,0.29051,0.61422,2,2.63949,0.9,0.44821,0.94623,5,lapse_rate,2.0,True,0.198,0,False,right,-0.16601,1.3185,2.2104,0.8919,0.4023,0.6774,0.2751,A,-0.06,hh
3,0.49802,1.2,2,0.25731,0.43161,0.77192,3,2.25767,-0.4,-0.19921,0.29881,5,1D2U,1.0,True,8.966,0,False,left,0.24901,1.6526,1.8945,0.2419,0.161,0.8524,0.6914,A,-0.06,hh
4,0.49802,0.1,1,0.36521,0.25731,0.70552,4,2.37388,0.1,0.0498,0.54782,5,2D1U,2.0,False,0.25,0,False,right,0.0,0.3036,0.9706,0.667,1.6205,2.2371,0.6166,A,0.12,hh
5,0.49802,0.1,1,0.22411,0.38181,0.73042,5,2.46518,0.26,0.1328,0.63082,5,2D1U,1.0,True,0.226,0,False,left,-0.16601,0.1688,0.9187,0.7499,1.6776,2.1271,0.4495,A,0.12,hh
6,0.49802,0.1,2,0.39841,0.23241,0.73872,6,2.24937,-0.24,-0.1162,0.38181,5,1D2U,1.0,True,0.113,0,False,left,0.24901,1.7662,2.2737,0.5075,0.2161,1.0827,0.8666,A,0.12,hh
7,0.49802,0.1,1,0.21581,0.34861,0.89643,7,2.20788,-0.4959999999999999,-0.24901,0.24901,5,lapse_rate,2.0,True,0.113,0,False,right,0.0,0.154,0.52,0.366,1.3623,1.9789,0.6167,A,0.12,hh
8,0.49802,1.2,2,0.25731,0.33201,0.57272,8,2.60629,0.9,0.44821,0.94623,5,lapse_rate,2.0,True,0.19,0,False,right,-0.16601,1.2414,2.1329,0.8915,0.3662,0.6413,0.2751,A,-0.06,hh
9,0.49802,1.2,1,0.42331,0.26561,0.48141,9,2.05016,-0.24,-0.1162,0.38181,5,1D2U,2.0,True,0.834,0,False,right,0.24901,0.4527,0.7776,0.3249,1.1609,1.8525,0.6916,A,-0.06,hh
10,0.49802,1.2,2,0.42331,0.26561,0.71382,10,2.53158,0.26,0.1328,0.63082,5,2D1U,2.0,True,0.267,0,False,right,0.0,1.6317,2.2066,0.5749,0.4484,0.8894,0.441,A,-0.06,hh
11,0.49802,1.2,2,0.22411,0.44821,0.53122,11,2.29088,0.18,0.0913,0.58932,5,2D1U,1.0,False,0.306,1,True,left,-0.16601,1.1623,1.695,0.5327,0.3286,0.6039,0.2754,A,-0.06,hh
12,0.49802,0.1,1,0.24071,0.40671,0.72212,12,2.11657,-0.4959999999999999,-0.24901,0.24901,5,lapse_rate,2.0,True,0.324,0,False,right,0.24901,0.1864,0.553,0.3666,1.0953,1.9619,0.8666,A,0.12,hh
13,0.49802,0.1,1,0.26561,0.29881,0.58102,13,2.09997,-0.08,-0.0415,0.45651,5,1D2U,1.0,False,0.25,0,False,left,0.0,0.2093,0.7843,0.575,1.3093,1.9262,0.617,A,0.12,hh
14,0.49802,0.1,2,0.32371,0.37351,0.83833,14,2.63949,0.22,0.1079,0.60592,5,2D1U,2.0,True,0.192,2,True,right,-0.16601,1.5785,2.3034,0.7249,0.3451,0.7953,0.4502,A,0.12,hh
15,0.49802,1.2,2,0.33201,0.29881,0.76362,15,2.14147,-0.4959999999999999,-0.24901,0.24901,5,lapse_rate,1.0,True,0.243,0,False,left,0.24901,1.7188,1.9106,0.1919,0.2355,0.9274,0.6919,A,-0.06,hh
16,0.49802,0.1,2,0.41501,0.25731,0.66402,16,2.25767,-0.16,-0.083,0.42331,5,1D2U,1.0,True,0.2,1,True,left,0.0,1.5797,2.1208,0.5411,0.3541,0.9712,0.6171,A,0.12,hh
17,0.49802,1.2,1,0.25731,0.40671,0.87153,17,2.45688,-0.16,-0.083,0.42331,5,1D2U,1.0,False,0.215,1,True,left,-0.16601,0.2845,0.6511,0.3666,1.6339,1.9095,0.2755,A,-0.06,hh
18,0.49802,1.2,1,0.42331,0.20751,0.72212,18,2.45688,0.22,0.1079,0.60592,5,2D1U,2.0,False,0.251,2,True,right,0.24901,0.4512,1.0013,0.5501,1.6264,2.3182,0.6918,A,-0.06,hh
19,0.49802,0.1,1,0.35691,0.32371,0.79682,19,2.22447,-0.4959999999999999,-0.24901,0.24901,5,lapse_rate,2.0,True,0.125,0,False,right,0.0,0.3021,0.6693,0.3672,1.4112,2.0274,0.6163,A,0.12,hh
20,0.49802,1.2,1,0.39011,0.23241,0.48971,20,2.24107,0.26,0.1328,0.63082,5,2D1U,1.0,True,0.214,2,False,left,-0.16601,0.4119,0.9869,0.575,1.5867,1.8621,0.2754,A,-0.06,hh
21,0.49802,0.1,2,0.33201,0.29881,0.48971,21,2.00036,-0.24,-0.1162,0.38181,5,1D2U,1.0,True,0.201,1,False,left,0.24901,1.4451,1.945,0.4999,0.1454,1.0115,0.8661,A,0.12,hh
22,0.49802,0.1,2,0.33201,0.44821,0.75532,22,2.28257,-0.4959999999999999,-0.24901,0.24901,5,lapse_rate,1.0,True,0.141,0,False,left,0.0,1.5888,1.9554,0.3666,0.272,0.889,0.617,A,0.12,hh
23,0.49802,0.1,2,0.36521,0.32371,0.70552,23,2.27427,-0.24,-0.1162,0.38181,5,1D2U,1.0,True,0.292,1,False,left,-0.16601,1.4893,1.9898,0.5005,0.3897,0.8396,0.4499,A,0.12,hh
24,0.49802,0.1,2,0.24901,0.20751,0.45651,24,2.04187,0.26,0.1328,0.63082,5,2D1U,2.0,True,0.484,2,False,right,0.24901,1.3334,2.0833,0.7499,0.0665,0.9331,0.8666,A,0.12,hh
25,0.49802,0.1,1,0.39011,0.37351,0.71382,25,2.22447,-0.4959999999999999,-0.24901,0.24901,5,lapse_rate,2.0,True,0.225,0,False,right,0.0,0.3289,0.6957,0.3667,1.3544,1.971,0.6166,A,0.12,hh
26,0.49802,1.2,1,0.23241,0.43991,0.59762,26,2.37388,0.22,0.1079,0.60592,5,2D1U,1.0,True,0.345,3,True,left,-0.16601,0.2605,0.811,0.5505,1.5188,1.7944,0.2755,A,-0.06,hh
27,0.49802,1.2,1,0.26561,0.37351,0.48971,27,2.02526,-0.2,-0.0996,0.39841,5,1D2U,2.0,True,0.25,2,True,right,0.24901,0.2911,0.6331,0.342,1.0248,1.7164,0.6915,A,-0.06,hh
28,0.49802,0.1,2,0.34031,0.41501,0.83833,28,3.0379,0.9,0.44821,0.94623,5,lapse_rate,2.0,True,0.114,0,False,right,0.0,1.6857,2.7521,1.0664,0.2857,0.902,0.6162,A,0.12,hh
29,0.49802,1.2,2,0.31541,0.28221,0.51462,29,2.21618,0.22,0.1079,0.60592,5,2D1U,1.0,False,0.286,3,True,left,-0.16601,1.2396,1.7895,0.5499,0.4229,0.6976,0.2747,A,-0.06,hh
30,0.49802,1.2,1,0.28221,0.40671,0.56442,30,2.69759,0.9,0.44821,0.94623,5,lapse_rate,1.0,True,0.191,0,False,left,0.24901,0.3112,1.2026,0.8915,1.6692,2.3604,0.6912,A,-0.06,hh
31,0.49802,0.1,1,0.43991,0.42331,0.46481,31,2.22446,-0.2,-0.0996,0.39841,5,1D2U,2.0,True,0.225,2,True,right,0.0,0.3815,0.8979,0.5164,1.3067,1.9235,0.6168,A,0.12,hh
32,0.49802,0.1,1,0.26561,0.31541,0.43161,32,1.75966,-0.4959999999999999,-0.24901,0.24901,5,lapse_rate,2.0,True,0.226,0,False,right,-0.16601,0.2111,0.5775,0.3664,1.0359,1.4857,0.4498,A,0.12,hh
33,0.49802,0.1,2,0.37351,0.29051,0.43161,33,2.01696,-0.16,-0.083,0.42331,5,1D2U,1.0,True,0.116,2,False,left,0.24901,1.432,1.9735,0.5414,0.1902,1.057,0.8667,A,0.12,hh
34,0.49802,0.1,2,0.43161,0.30711,0.55612,34,2.42368,0.26,0.1328,0.63082,5,2D1U,2.0,True,0.2,4,True,right,0.0,1.4884,2.2385,0.7501,0.372,0.9887,0.6167,A,0.12,hh
35,0.49802,1.2,1,0.21581,0.20751,0.56442,35,2.11658,0.26,0.1328,0.63082,5,2D1U,1.0,True,0.248,4,True,left,-0.16601,0.2432,0.818,0.5748,1.4932,1.7684,0.2753,A,-0.06,hh
36,0.49802,0.1,2,0.29051,0.27391,0.56442,36,2.57309,0.9,0.44821,0.94623,5,lapse_rate,2.0,True,0.113,0,False,right,0.24901,1.481,2.5474,1.0664,0.1061,0.9728,0.8667,A,0.12,hh
37,0.49802,1.2,1,0.24071,0.28221,0.42331,37,1.86756,-0.16,-0.083,0.42331,5,1D2U,1.0,False,0.316,2,False,left,0.0,0.2671,0.634,0.3668,1.0832,1.5252,0.442,A,-0.06,hh
38,0.49802,1.2,2,0.34031,0.43161,0.53122,38,2.74739,0.9,0.44821,0.94623,5,lapse_rate,2.0,True,0.196,0,False,right,-0.16601,1.2852,2.1768,0.8916,0.4522,0.7267,0.2745,A,-0.06,hh
39,0.49802,1.2,1,0.24071,0.37351,0.54782,39,2.26598,0.22,0.1079,0.60592,5,2D1U,1.0,True,0.2,5,True,left,0.24901,0.264,0.8137,0.5497,1.2635,1.9554,0.6919,A,-0.06,hh
40,0.49802,0.1,2,0.32371,0.22411,0.48141,40,1.92566,-0.2,-0.0996,0.39841,5,1D2U,1.0,True,0.566,3,True,left,0.0,1.3115,1.8284,0.5169,0.2697,0.886,0.6163,A,0.12,hh
41,0.49802,0.1,1,0.39011,0.43991,0.48141,41,2.41537,0.22,0.1079,0.60592,5,2D1U,1.0,True,0.208,5,True,left,-0.16601,0.3314,1.0567,0.7254,1.565,2.0147,0.4497,A,0.12,hh
42,0.49802,0.1,2,0.38181,0.38181,0.80512,42,2.46517,-0.2,-0.0996,0.39841,5,1D2U,1.0,True,0.141,3,True,left,0.24901,1.8156,2.3318,0.5162,0.1995,1.0657,0.8662,A,0.12,hh
43,0.49802,1.2,2,0.28221,0.25731,0.78022,43,2.06677,-0.4959999999999999,-0.24901,0.24901,5,lapse_rate,1.0,True,0.312,0,False,left,0.0,1.5556,1.7473,0.1918,0.3057,0.7475,0.4418,A,-0.06,hh
44,0.49802,1.2,1,0.23241,0.43991,0.78022,44,2.89679,0.9,0.44821,0.94623,5,lapse_rate,1.0,True,0.273,0,False,left,-0.16601,0.2561,1.1472,0.8911,2.0394,2.3145,0.275,A,-0.06,hh
45,0.49802,1.2,2,0.36521,0.26561,0.59762,45,2.31578,0.18,0.0913,0.58932,5,2D1U,1.0,False,0.359,5,False,left,0.24901,1.5869,2.1204,0.5335,0.2701,0.9618,0.6917,A,-0.06,hh
46,0.49802,1.2,1,0.42331,0.20751,0.78852,46,2.34067,-0.16,-0.083,0.42331,5,1D2U,2.0,True,0.417,4,True,right,0.0,0.449,0.8159,0.3668,1.6323,2.0739,0.4416,A,-0.06,hh
47,0.49802,1.2,1,0.19921,0.19921,0.39841,47,1.90077,0.22,0.1079,0.60592,5,2D1U,1.0,True,0.259,6,True,left,-0.16601,0.2253,0.7753,0.55,1.2844,1.5596,0.2752,A,-0.06,hh
48,0.49802,1.2,2,0.21581,0.35691,0.79682,48,2.11657,-0.4959999999999999,-0.24901,0.24901,5,lapse_rate,1.0,True,0.251,0,False,left,0.24901,1.6312,1.8224,0.1912,0.1141,0.8056,0.6915,A,-0.06,hh
49,0.49802,0.1,2,0.30711,0.43161,0.53122,49,2.19127,-0.16,-0.083,0.42331,5,1D2U,1.0,True,0.568,4,True,left,0.0,1.3394,1.8804,0.541,0.2478,0.8638,0.6161,A,0.12,hh
50,0.49802,0.1,2,0.19921,0.23241,0.58932,50,1.95887,-0.12,-0.0581,0.43991,5,1D2U,2.0,False,0.275,4,False,right,-0.16601,1.2056,1.7639,0.5583,0.2223,0.6723,0.45,A,0.12,hh
51,0.49802,0.1,2,0.38181,0.29881,0.47311,51,2.25767,0.22,0.1079,0.60592,5,2D1U,2.0,True,0.267,6,True,right,0.24901,1.482,2.2069,0.7249,0.1982,1.0652,0.867,A,0.12,hh
52,0.49802,1.2,1,0.29881,0.20751,0.88813,52,2.14148,-0.4959999999999999,-0.24901,0.24901,5,lapse_rate,2.0,True,0.249,0,False,right,0.0,0.3265,0.5179,0.1914,1.435,1.8763,0.4413,A,-0.06,hh
53,0.49802,1.2,2,0.34031,0.23241,0.68062,53,2.00037,-0.4959999999999999,-0.24901,0.24901,5,lapse_rate,1.0,True,0.274,0,False,left,-0.16601,1.4308,1.6227,0.1919,0.4475,0.7234,0.2758,A,-0.06,hh
54,0.49802,1.2,2,0.26561,0.20751,0.84663,54,2.24108,-0.16,-0.083,0.42331,5,1D2U,1.0,True,0.325,5,True,left,0.24901,1.7496,2.116,0.3665,0.1658,0.8573,0.6915,A,-0.06,hh
55,0.49802,1.2,2,0.37351,0.29881,0.88813,55,2.64779,0.18,0.0913,0.58932,5,2D1U,2.0,True,0.325,7,True,right,0.0,1.7562,2.2891,0.533,0.398,0.8391,0.4412,A,-0.06,hh
56,0.49802,0.1,1,0.25731,0.30711,0.61422,56,2.62289,0.9,0.44821,0.94623,5,lapse_rate,1.0,True,0.241,0,False,left,-0.16601,0.1985,1.265,1.0665,1.9069,2.3568,0.4499,A,0.12,hh
57,0.49802,1.2,2,0.26561,0.26561,0.60592,57,2.22448,0.18,0.0913,0.58932,5,2D1U,1.0,False,0.325,7,True,left,0.24901,1.4901,2.0231,0.5329,0.1646,0.8573,0.6927,A,-0.06,hh
58,0.49802,0.1,1,0.39841,0.21581,0.78022,58,2.31577,-0.16,-0.083,0.42331,5,1D2U,2.0,True,0.224,5,True,right,0.0,0.3399,0.8817,0.5418,1.6069,2.2234,0.6165,A,0.12,hh
59,0.49802,0.1,1,0.27391,0.23241,0.68892,59,2.13317,-0.12,-0.0581,0.43991,5,1D2U,2.0,True,0.284,6,True,right,-0.16601,0.2192,0.7778,0.5587,1.4941,1.9441,0.45,A,0.12,hh
60,0.49802,0.1,2,0.23241,0.40671,0.65572,60,2.39878,0.22,0.1079,0.60592,5,2D1U,2.0,True,0.112,8,True,right,0.24901,1.5181,2.2433,0.7252,0.051,0.918,0.867,A,0.12,hh
61,0.49802,1.2,2,0.27391,0.44821,0.48971,61,2.65608,0.9,0.44821,0.94623,5,lapse_rate,2.0,True,0.178,0,False,right,0.0,1.2583,2.1501,0.8918,0.2996,0.7417,0.4421,A,-0.06,hh
62,0.49802,1.2,1,0.34031,0.27391,0.87153,62,2.58969,0.22,0.1079,0.60592,5,2D1U,1.0,True,0.219,8,True,left,-0.16601,0.3656,0.9157,0.5501,1.8992,2.1741,0.2749,A,-0.06,hh
63,0.49802,0.1,2,0.42331,0.29881,0.86323,63,3.0296,0.9,0.44821,0.94623,5,lapse_rate,2.0,True,0.267,0,False,right,0.24901,1.9142,2.9808,1.0666,0.239,1.1056,0.8667,A,0.12,hh
64,0.49802,1.2,2,0.24901,0.44821,0.52292,64,2.15807,-0.12,-0.0581,0.43991,5,1D2U,1.0,True,0.152,6,True,left,0.0,1.2694,1.6527,0.3833,0.2779,0.7195,0.4415,A,-0.06,hh
65,0.49802,0.1,1,0.25731,0.24901,0.63912,65,2.58969,0.9,0.44821,0.94623,5,lapse_rate,1.0,True,10.117,0,False,left,-0.16601,0.2004,1.2672,1.0668,1.9338,2.3836,0.4498,A,0.12,hh
66,0.49802,1.2,2,0.39841,0.31541,0.69722,66,2.36557,-0.08,-0.0415,0.45651,5,1D2U,1.0,True,0.3,6,False,left,0.24901,1.7169,2.1165,0.3996,0.3003,0.9917,0.6914,A,-0.06,hh
67,0.49802,0.1,2,0.23241,0.39841,0.40671,67,2.12487,0.18,0.0913,0.58932,5,2D1U,2.0,True,0.184,9,True,right,0.0,1.1435,1.8513,0.7078,0.1761,0.7926,0.6165,A,0.12,hh
68,0.49802,0.1,2,0.33201,0.41501,0.71382,68,2.54818,0.18,0.0913,0.58932,5,2D1U,2.0,True,0.234,9,True,right,-0.16601,1.466,2.1738,0.7078,0.3568,0.8073,0.4505,A,0.12,hh
69,0.49802,0.1,2,0.28221,0.39841,0.50632,69,2.63119,0.9,0.44821,0.94623,5,lapse_rate,2.0,True,0.113,0,False,right,0.24901,1.4135,2.4806,1.0671,0.0974,0.9639,0.8665,A,0.12,hh
70,0.49802,0.1,1,0.29051,0.36521,0.76362,70,2.37387,-0.08,-0.0415,0.45651,5,1D2U,1.0,False,0.717,6,False,left,0.0,0.2331,0.808,0.5749,1.5162,2.1328,0.6166,A,0.12,hh
71,0.49802,1.2,2,0.26561,0.28221,0.77192,71,2.25767,-0.12,-0.0581,0.43991,5,1D2U,1.0,True,0.201,7,True,left,-0.16601,1.4469,1.8304,0.3835,0.3719,0.6468,0.2749,A,-0.06,hh
72,0.49802,1.2,2,0.35691,0.20751,0.71382,72,2.02527,-0.4959999999999999,-0.24901,0.24901,5,lapse_rate,1.0,True,0.333,0,False,left,0.24901,1.69,1.8816,0.1916,0.2561,0.9488,0.6928,A,-0.06,hh
73,0.49802,1.2,1,0.29051,0.34861,0.40671,73,2.11657,0.14,0.0664,0.57272,5,2D1U,1.0,True,0.24,9,False,left,0.0,0.32,0.8367,0.5167,1.2698,1.7116,0.4418,A,-0.06,hh
74,0.49802,1.2,2,0.24901,0.24901,0.48141,74,1.91736,-0.12,-0.0581,0.43991,5,1D2U,2.0,False,0.243,7,True,right,-0.16601,1.14,1.5232,0.3832,0.3565,0.6317,0.2752,A,-0.06,hh
75,0.49802,0.1,2,0.22411,0.31541,0.83833,75,2.44859,0.14,0.0664,0.57272,5,2D1U,2.0,True,0.367,9,False,right,0.24901,1.6881,2.3797,0.6916,0.0381,0.9051,0.867,A,0.12,hh
76,0.49802,0.1,2,0.39841,0.22411,0.68892,76,2.35728,0.1,0.0498,0.54782,5,2D1U,2.0,True,0.325,9,False,right,0.0,1.5886,2.2554,0.6668,0.3387,0.9556,0.6169,A,0.12,hh
77,0.49802,0.1,2,0.32371,0.24071,0.82172,77,2.43198,0.1,0.0498,0.54782,5,2D1U,1.0,False,0.342,9,False,left,-0.16601,1.5645,2.2308,0.6663,0.3473,0.7979,0.4506,A,0.12,hh
78,0.49802,1.2,1,0.27391,0.38181,0.68062,78,2.40708,0.14,0.0664,0.57272,5,2D1U,2.0,False,0.15,10,True,right,0.24901,0.3029,0.8194,0.5165,1.4027,2.0949,0.6922,A,-0.06,hh
79,0.49802,1.2,1,0.34031,0.30711,0.43991,79,2.00866,-0.16,-0.083,0.42331,5,1D2U,1.0,False,0.73,7,False,left,0.0,0.3622,0.7287,0.3665,1.1954,1.637,0.4416,A,-0.06,hh
80,0.49802,1.2,2,0.37351,0.43991,0.87153,80,2.58138,-0.2,-0.0996,0.39841,5,1D2U,1.0,True,0.575,7,False,left,-0.16601,1.6551,1.9971,0.3421,0.4797,0.7553,0.2756,A,-0.06,hh
81,0.49802,0.1,1,0.41501,0.29881,0.61422,81,2.22447,-0.2,-0.0996,0.39841,5,1D2U,2.0,True,0.508,7,False,right,0.24901,0.3541,0.8706,0.5165,1.3036,2.1711,0.8676,A,0.12,hh
82,0.49802,0.1,2,0.39841,0.24071,0.61422,82,2.34068,0.18,0.0913,0.58932,5,2D1U,1.0,False,0.25,10,False,left,0.0,1.5177,2.2255,0.7078,0.3428,0.9594,0.6166,A,0.12,hh
83,0.49802,0.1,2,0.42331,0.34861,0.52292,83,2.21617,-0.16,-0.083,0.42331,5,1D2U,1.0,True,0.184,8,True,left,-0.16601,1.3686,1.9108,0.5421,0.4529,0.9021,0.4492,A,0.12,hh
84,0.49802,1.2,2,0.36521,0.29881,0.44821,84,2.03356,-0.16,-0.083,0.42331,5,1D2U,1.0,True,0.225,8,True,left,0.24901,1.436,1.8021,0.3661,0.269,0.9607,0.6918,A,-0.06,hh
85,0.49802,1.2,2,0.35691,0.23241,0.48971,85,2.18297,0.22,0.1079,0.60592,5,2D1U,2.0,True,0.304,10,False,right,0.0,1.3377,1.8878,0.5501,0.3786,0.8209,0.4423,A,-0.06,hh
86,0.49802,1.2,2,0.28221,0.34861,0.58932,86,2.32408,0.22,0.1079,0.60592,5,2D1U,2.0,True,0.259,10,False,right,-0.16601,1.2812,1.8315,0.5503,0.3909,0.6658,0.2749,A,-0.06,hh
87,0.49802,0.1,1,0.26561,0.39011,0.80512,87,2.54818,0.18,0.0913,0.58932,5,2D1U,1.0,True,0.113,11,True,left,0.24901,0.2061,0.914,0.7079,1.5394,2.4057,0.8663,A,0.12,hh
88,0.49802,0.1,2,0.25731,0.36521,0.76362,88,2.32407,-0.12,-0.0581,0.43991,5,1D2U,1.0,True,0.217,8,False,left,0.0,1.5228,2.0812,0.5584,0.198,0.8144,0.6164,A,0.12,hh
89,0.49802,0.1,2,0.29881,0.35691,0.52292,89,2.11657,-0.12,-0.0581,0.43991,5,1D2U,1.0,True,0.258,8,False,left,-0.16601,1.2385,1.7972,0.5587,0.3226,0.7722,0.4496,A,0.12,hh
90,0.49802,1.2,2,0.22411,0.22411,0.62252,90,2.15808,0.18,0.0913,0.58932,5,2D1U,1.0,False,0.267,11,True,left,0.24901,1.4639,1.9975,0.5336,0.1228,0.8143,0.6915,A,-0.06,hh
91,0.49802,1.2,2,0.44821,0.24901,0.76362,91,2.56478,0.22,0.1079,0.60592,5,2D1U,2.0,True,0.2,12,True,right,0.0,1.7048,2.2544,0.5496,0.4715,0.9132,0.4417,A,-0.06,hh
92,0.49802,1.2,1,0.39011,0.22411,0.56442,92,2.13317,-0.08,-0.0415,0.45651,5,1D2U,1.0,False,0.199,8,False,left,-0.16601,0.4161,0.8168,0.4008,1.4911,1.767,0.276,A,-0.06,hh
93,0.49802,0.1,2,0.37351,0.39841,0.49802,93,2.37388,0.22,0.1079,0.60592,5,2D1U,2.0,True,0.114,12,True,right,0.24901,1.4999,2.2254,0.7255,0.1919,1.0584,0.8665,A,0.12,hh
94,0.49802,0.1,1,0.31541,0.24071,0.72212,94,2.36558,0.18,0.0913,0.58932,5,2D1U,1.0,True,0.242,13,True,left,0.0,0.257,0.9654,0.7084,1.6326,2.2488,0.6162,A,0.12,hh
95,0.49802,0.1,2,0.23241,0.23241,0.78022,95,2.18297,-0.12,-0.0581,0.43991,5,1D2U,2.0,False,0.359,9,True,right,-0.16601,1.4315,1.9892,0.5577,0.2566,0.7059,0.4493,A,0.12,hh
96,0.49802,1.2,2,0.40671,0.38181,0.42331,96,2.13316,-0.16,-0.083,0.42331,5,1D2U,1.0,True,0.167,9,False,left,0.24901,1.4469,1.8139,0.367,0.3056,0.9969,0.6913,A,-0.06,hh
97,0.49802,1.2,1,0.43161,0.30711,0.49802,97,2.32408,0.18,0.0913,0.58932,5,2D1U,1.0,True,0.272,13,True,left,0.0,0.46,0.9934,0.5334,1.5184,1.9601,0.4417,A,-0.06,hh
98,0.49802,1.2,1,0.30711,0.29051,0.81342,98,2.48178,0.14,0.0664,0.57272,5,2D1U,1.0,True,0.184,13,False,left,-0.16601,0.33,0.847,0.517,1.7718,2.0467,0.2749,A,-0.06,hh
99,0.49802,0.1,1,0.36521,0.38181,0.55612,99,2.22447,-0.16,-0.083,0.42331,5,1D2U,2.0,True,0.114,9,False,right,0.24901,0.3064,0.8476,0.5412,1.2228,2.0893,0.8665,A,0.12,hh
100,0.49802,0.1,1,0.25731,0.23241,0.76362,100,2.19127,-0.12,-0.0581,0.43991,5,1D2U,1.0,False,0.266,10,True,left,0.0,0.1969,0.7551,0.5582,1.4636,2.08,0.6164,A,0.12,hh
101,0.49802,0.1,2,0.43991,0.34031,0.61422,101,2.31577,-0.16,-0.083,0.42331,5,1D2U,1.0,True,0.209,11,True,left,-0.16601,1.4708,2.0126,0.5418,0.4622,0.9125,0.4503,A,0.12,hh
102,0.49802,1.2,1,0.34861,0.24901,0.82172,102,2.34067,-0.16,-0.083,0.42331,5,1D2U,2.0,True,0.233,11,True,right,0.24901,0.3722,0.7384,0.3661,1.4636,2.1553,0.6916,A,-0.06,hh
103,0.49802,1.2,2,0.44821,0.42331,0.83833,103,2.78059,0.14,0.0664,0.57272,5,2D1U,1.0,False,0.275,13,False,left,0.0,1.7863,2.3029,0.5166,0.4779,0.9198,0.4419,A,-0.06,hh
104,0.49802,1.2,1,0.43161,0.43161,0.84663,104,2.79719,0.18,0.0913,0.58932,5,2D1U,1.0,True,0.243,14,True,left,-0.16601,0.4564,0.9893,0.5329,1.948,2.2231,0.2751,A,-0.06,hh
105,0.49802,0.1,2,0.34861,0.20751,0.56442,105,2.05847,-0.12,-0.0581,0.43991,5,1D2U,1.0,True,0.167,12,True,left,0.24901,1.5448,2.1031,0.5583,0.1698,1.0366,0.8667,A,0.12,hh
106,0.49802,0.1,1,0.40671,0.23241,0.79682,106,2.37387,-0.12,-0.0581,0.43991,5,1D2U,2.0,True,0.275,12,True,right,0.0,0.351,0.9091,0.5581,1.6509,2.2675,0.6166,A,0.12,hh
107,0.49802,0.1,1,0.33201,0.20751,0.64742,107,2.27428,0.18,0.0913,0.58932,5,2D1U,1.0,True,0.275,14,True,left,-0.16601,0.2761,0.9842,0.7082,1.6593,2.1094,0.4501,A,0.12,hh
108,0.49802,1.2,1,0.36521,0.37351,0.75532,108,2.44857,-0.08,-0.0415,0.45651,5,1D2U,2.0,True,0.166,12,False,right,0.24901,0.3893,0.7897,0.4004,1.4476,2.1394,0.6918,A,-0.06,hh
109,0.49802,1.2,2,0.33201,0.25731,0.45651,109,2.00036,-0.08,-0.0415,0.45651,5,1D2U,1.0,True,0.289,12,False,left,0.0,1.2859,1.686,0.4,0.3612,0.8027,0.4415,A,-0.06,hh
110,0.49802,1.2,1,0.38181,0.26561,0.53122,110,2.15807,-0.04,-0.0166,0.48141,5,1D2U,1.0,False,0.241,12,False,left,-0.16601,0.4067,0.8323,0.4256,1.4744,1.7489,0.2745,A,-0.06,hh
111,0.49802,0.1,1,0.36521,0.39841,0.87983,111,2.71419,0.14,0.0664,0.57272,5,2D1U,1.0,True,0.113,15,True,left,0.24901,0.307,0.9988,0.6918,1.6985,2.5652,0.8667,A,0.12,hh
112,0.49802,0.1,2,0.34861,0.32371,0.75532,112,2.38217,-0.08,-0.0415,0.45651,5,1D2U,1.0,True,0.175,13,True,left,0.0,1.6117,2.1869,0.5751,0.2948,0.9119,0.6171,A,0.12,hh
113,0.49802,0.1,1,0.44821,0.29051,0.75532,113,2.44857,-0.08,-0.0415,0.45651,5,1D2U,2.0,True,0.359,13,True,right,-0.16601,0.3905,0.9649,0.5744,1.7483,2.1983,0.45,A,0.12,hh
114,0.49802,1.2,1,0.26561,0.26561,0.81342,114,2.32407,-0.04,-0.0166,0.48141,5,1D2U,2.0,True,0.218,14,True,right,0.24901,0.288,0.7127,0.4246,1.4301,2.1218,0.6917,A,-0.06,hh
115,0.49802,1.2,1,0.33201,0.29881,0.67232,115,2.37388,0.14,0.0664,0.57272,5,2D1U,2.0,False,0.357,15,True,right,0.0,0.3562,0.8724,0.5162,1.5729,2.0145,0.4417,A,-0.06,hh
116,0.49802,1.2,1,0.36521,0.24071,0.41501,116,2.10827,0.18,0.0913,0.58932,5,2D1U,1.0,True,0.25,16,True,left,-0.16601,0.3896,0.9232,0.5336,1.448,1.7231,0.2751,A,-0.06,hh
117,0.49802,0.1,2,0.27391,0.38181,0.43161,117,2.06676,-0.04,-0.0166,0.48141,5,1D2U,1.0,True,0.114,14,True,left,0.24901,1.3303,1.9298,0.5995,0.0887,0.9549,0.8662,A,0.12,hh
118,0.49802,0.1,1,0.32371,0.28221,0.73042,118,2.33238,-0.0,0.0,0.49802,5,1D2U,1.0,False,0.292,14,False,left,0.0,0.2694,0.8861,0.6167,1.5611,2.1777,0.6165,A,0.12,hh
119,0.49802,0.1,2,0.39841,0.29881,0.54782,119,2.33238,0.18,0.0913,0.58932,5,2D1U,2.0,True,0.275,16,True,right,-0.16601,1.3676,2.0764,0.7088,0.4264,0.8759,0.4495,A,0.12,hh
120,0.49802,1.2,2,0.39841,0.27391,0.70552,120,2.44858,0.14,0.0664,0.57272,5,2D1U,2.0,True,0.208,17,True,right,0.24901,1.721,2.2377,0.5166,0.2961,0.9878,0.6917,A,-0.06,hh
121,0.49802,1.2,1,0.22411,0.43161,0.81342,121,2.44857,-0.04,-0.0166,0.48141,5,1D2U,2.0,True,0.164,15,True,right,0.0,0.2456,0.6703,0.4248,1.5119,1.9535,0.4415,A,-0.06,hh
122,0.49802,1.2,2,0.29051,0.41501,0.57272,122,2.25767,-0.04,-0.0166,0.48141,5,1D2U,2.0,False,0.164,15,True,right,-0.16601,1.2784,1.7033,0.4249,0.4033,0.678,0.2747,A,-0.06,hh
123,0.49802,0.1,1,0.20751,0.29051,0.53122,123,1.98377,-0.08,-0.0415,0.45651,5,1D2U,1.0,False,0.583,15,False,left,0.24901,0.1465,0.7211,0.5745,1.0719,1.938,0.8661,A,0.12,hh
124,0.49802,0.1,2,0.38181,0.42331,0.68062,124,2.55648,0.14,0.0664,0.57272,5,2D1U,2.0,True,0.113,17,True,right,0.0,1.5641,2.2559,0.6918,0.3221,0.9391,0.6171,A,0.12,hh
125,0.49802,0.1,1,0.38181,0.26561,0.64742,125,2.23277,-0.12,-0.0581,0.43991,5,1D2U,1.0,False,0.217,15,False,left,-0.16601,0.3275,0.8853,0.5578,1.5608,2.0109,0.4502,A,0.12,hh
126,0.49802,1.2,1,0.24901,0.29051,0.58932,126,2.17468,0.1,0.0498,0.54782,5,2D1U,2.0,False,0.192,17,False,right,0.24901,0.2722,0.7641,0.4919,1.2559,1.9471,0.6913,A,-0.06,hh
127,0.49802,1.2,1,0.43161,0.35691,0.81342,127,2.52327,-0.16,-0.083,0.42331,5,1D2U,2.0,True,0.258,15,False,right,0.0,0.4569,0.8234,0.3666,1.665,2.1068,0.4418,A,-0.06,hh
128,0.49802,1.2,1,0.37351,0.39841,0.47311,128,2.16636,-0.16,-0.083,0.42331,5,1D2U,1.0,False,0.626,15,False,left,-0.16601,0.398,0.7644,0.3664,1.3482,1.6233,0.275,A,-0.06,hh
129,0.49802,0.1,2,0.21581,0.25731,0.79682,129,2.16637,-0.2,-0.0996,0.39841,5,1D2U,1.0,True,0.114,15,False,left,0.24901,1.6428,2.1592,0.5164,0.0343,0.901,0.8667,A,0.12,hh
130,0.49802,0.1,2,0.34861,0.34861,0.89643,130,2.66439,0.14,0.0664,0.57272,5,2D1U,2.0,True,0.233,18,True,right,0.0,1.7506,2.4425,0.6919,0.2929,0.9088,0.6159,A,0.12,hh
131,0.49802,0.1,1,0.21581,0.44821,0.78852,131,2.34897,-0.2,-0.0996,0.39841,5,1D2U,2.0,True,0.166,15,False,right,-0.16601,0.1571,0.6738,0.5167,1.4897,1.9411,0.4514,A,0.12,hh
132,0.49802,1.2,2,0.39011,0.20751,0.80512,132,2.47348,0.14,0.0664,0.57272,5,2D1U,2.0,True,0.218,18,True,right,0.24901,1.8146,2.331,0.5164,0.2891,0.9808,0.6917,A,-0.06,hh
133,0.49802,1.2,1,0.37351,0.39841,0.81342,133,2.63118,0.1,0.0498,0.54782,5,2D1U,1.0,True,0.209,19,True,left,0.0,0.4027,0.8939,0.4912,1.7359,2.1778,0.4419,A,-0.06,hh
134,0.49802,1.2,2,0.37351,0.26561,0.47311,134,2.03356,-0.16,-0.083,0.42331,5,1D2U,1.0,True,0.234,16,True,left,-0.16601,1.254,1.6213,0.3673,0.4789,0.7541,0.2752,A,-0.06,hh
135,0.49802,0.1,2,0.30711,0.43991,0.65572,135,2.44858,0.1,0.0498,0.54782,5,2D1U,2.0,True,0.113,19,True,right,0.24901,1.5897,2.2565,0.6668,0.1239,0.9897,0.8658,A,0.12,hh
136,0.49802,0.1,1,0.43991,0.40671,0.80512,136,2.57307,-0.16,-0.083,0.42331,5,1D2U,2.0,True,0.114,16,True,right,0.0,0.3816,0.9226,0.541,1.6729,2.2898,0.6169,A,0.12,hh
137,0.49802,0.1,1,0.44821,0.29881,0.85493,137,2.63119,0.06,0.0332,0.53122,5,2D1U,1.0,True,0.217,19,False,left,-0.16601,0.3883,1.0382,0.65,1.9214,2.3716,0.4501,A,0.12,hh
138,0.49802,1.2,1,0.43991,0.34031,0.85493,138,2.57308,-0.12,-0.0581,0.43991,5,1D2U,2.0,True,0.25,16,False,right,0.24901,0.4643,0.8473,0.3829,1.6058,2.2975,0.6917,A,-0.06,hh
139,0.49802,1.2,1,0.25731,0.20751,0.60592,139,2.00867,-0.12,-0.0581,0.43991,5,1D2U,2.0,True,0.355,16,False,right,0.0,0.2802,0.6638,0.3836,1.297,1.7387,0.4417,A,-0.06,hh
140,0.49802,1.2,1,0.40671,0.28221,0.44821,140,2.16637,0.06,0.0332,0.53122,5,2D1U,1.0,True,0.155,19,False,left,-0.16601,0.4311,0.9065,0.4754,1.4644,1.7396,0.2752,A,-0.06,hh
141,0.49802,0.1,1,0.24901,0.32371,0.87983,141,2.40708,-0.08,-0.0415,0.45651,5,1D2U,2.0,True,0.474,16,False,right,0.24901,0.1885,0.7636,0.5751,1.4635,2.3303,0.8668,A,0.12,hh
142,0.49802,0.1,2,0.33201,0.25731,0.74702,142,2.34068,0.02,0.0083,0.50632,5,2D1U,1.0,False,0.216,19,False,left,0.0,1.5796,2.2047,0.6251,0.272,0.8875,0.6156,A,0.12,hh
143,0.49802,0.1,2,0.22411,0.40671,0.68892,143,2.27427,-0.08,-0.0415,0.45651,5,1D2U,1.0,True,0.25,16,False,left,-0.16601,1.3317,1.9066,0.5749,0.2483,0.6982,0.4499,A,0.12,hh
144,0.49802,1.2,2,0.30711,0.34861,0.59762,144,2.23277,-0.04,-0.0166,0.48141,5,1D2U,1.0,True,0.391,16,False,left,0.24901,1.5278,1.9527,0.425,0.2113,0.9028,0.6915,A,-0.06,hh
145,0.49802,1.2,2,0.20751,0.32371,0.76362,145,2.32408,0.06,0.0332,0.53122,5,2D1U,2.0,True,0.277,20,True,right,0.0,1.4676,1.9426,0.475,0.2344,0.676,0.4415,A,-0.06,hh
146,0.49802,1.2,1,0.35691,0.34861,0.53952,146,2.22447,-0.04,-0.0166,0.48141,5,1D2U,1.0,False,0.178,16,False,left,-0.16601,0.3837,0.8087,0.425,1.4586,1.7337,0.2752,A,-0.06,hh
147,0.49802,0.1,1,0.24071,0.22411,0.50632,147,1.92567,-0.08,-0.0415,0.45651,5,1D2U,2.0,True,0.192,17,True,right,0.24901,0.1818,0.7568,0.575,1.0825,1.9569,0.8744,A,0.12,hh
148,0.49802,0.1,1,0.42331,0.30711,0.53952,148,2.29918,0.06,0.0332,0.53122,5,2D1U,1.0,True,0.192,20,True,left,0.0,0.3648,1.0147,0.6499,1.4983,2.1147,0.6164,A,0.12,hh
149,0.49802,0.1,2,0.43161,0.39841,0.65572,149,2.44027,-0.08,-0.0415,0.45651,5,1D2U,2.0,False,0.113,17,True,right,-0.16601,1.5082,2.0828,0.5746,0.458,0.9079,0.4499,A,0.12,hh
150,0.49802,1.2,1,0.29881,0.24071,0.48971,150,1.96716,-0.12,-0.0581,0.43991,5,1D2U,2.0,True,0.141,17,False,right,0.24901,0.3241,0.7083,0.3842,1.0989,1.791,0.6921,A,-0.06,hh
151,0.49802,1.2,2,0.29881,0.21581,0.47311,151,1.99207,0.02,0.0083,0.50632,5,2D1U,2.0,True,0.246,21,True,right,0.0,1.2689,1.7184,0.4494,0.3272,0.7689,0.4418,A,-0.06,hh
152,0.49802,1.2,1,0.41501,0.22411,0.55612,152,2.19958,0.02,0.0083,0.50632,5,2D1U,1.0,True,0.206,21,True,left,-0.16601,0.4393,0.8899,0.4506,1.5571,1.8319,0.2748,A,-0.06,hh
153,0.49802,0.1,1,0.25731,0.40671,0.85493,153,2.45688,-0.12,-0.0581,0.43991,5,1D2U,2.0,True,0.234,17,False,right,0.24901,0.1984,0.7556,0.5573,1.4311,2.2979,0.8668,A,0.12,hh
154,0.49802,0.1,1,0.22411,0.32371,0.87983,154,2.41538,-0.02,-0.0083,0.48971,5,2D1U,2.0,True,0.192,21,False,right,0.0,0.1647,0.7732,0.6084,1.5975,2.2145,0.617,A,0.12,hh
155,0.49802,0.1,1,0.43161,0.24901,0.62252,155,2.25767,-0.08,-0.0415,0.45651,5,1D2U,2.0,True,0.25,18,True,right,-0.16601,0.3705,0.9462,0.5757,1.5962,2.0463,0.4501,A,0.12,hh
156,0.49802,1.2,2,0.33201,0.25731,0.65572,156,2.24938,0.02,0.0083,0.50632,5,2D1U,2.0,True,0.516,22,True,right,0.24901,1.6062,2.0558,0.4496,0.2311,0.9231,0.692,A,-0.06,hh
157,0.49802,1.2,2,0.21581,0.24071,0.42331,157,1.88417,0.02,0.0083,0.50632,5,2D1U,1.0,False,0.24,22,True,left,0.0,1.1302,1.5803,0.4501,0.2386,0.6802,0.4416,A,-0.06,hh
158,0.49802,1.2,1,0.38181,0.24071,0.71382,158,2.29087,-0.08,-0.0415,0.45651,5,1D2U,1.0,False,0.334,18,True,left,-0.16601,0.4051,0.8047,0.3996,1.6304,1.9047,0.2743,A,-0.06,hh
159,0.49802,0.1,2,0.32371,0.43991,0.75532,159,2.54818,0.06,0.0332,0.53122,5,2D1U,2.0,True,0.114,22,False,right,0.24901,1.71,2.3609,0.6509,0.1441,1.0106,0.8665,A,0.12,hh
160,0.49802,0.1,2,0.29881,0.30711,0.82172,160,2.45688,0.06,0.0332,0.53122,5,2D1U,2.0,True,0.217,22,False,right,0.0,1.6207,2.2706,0.6499,0.2379,0.8536,0.6157,A,0.12,hh
161,0.49802,0.1,1,0.35691,0.29881,0.40671,161,2.00036,-0.12,-0.0581,0.43991,5,1D2U,1.0,False,0.217,19,True,left,-0.16601,0.2945,0.8528,0.5583,1.287,1.7367,0.4497,A,0.12,hh
162,0.49802,1.2,2,0.23241,0.20751,0.46481,162,1.90907,0.02,0.0083,0.50632,5,2D1U,2.0,True,0.284,23,True,right,0.24901,1.3131,1.7632,0.4501,0.1293,0.822,0.6927,A,-0.06,hh
163,0.49802,1.2,1,0.24071,0.29051,0.82172,163,2.27427,-0.16,-0.083,0.42331,5,1D2U,2.0,True,0.273,19,False,right,0.0,0.2681,0.6347,0.3666,1.4846,1.9263,0.4418,A,-0.06,hh
164,0.49802,1.2,2,0.29881,0.29881,0.40671,164,1.92566,-0.16,-0.083,0.42331,5,1D2U,1.0,True,0.214,19,False,left,-0.16601,1.1204,1.4871,0.3667,0.4114,0.687,0.2756,A,-0.06,hh
165,0.49802,0.1,2,0.24071,0.20751,0.46481,165,1.91737,0.02,0.0083,0.50632,5,2D1U,2.0,True,0.113,23,True,right,0.24901,1.3335,1.959,0.6254,0.0587,0.9252,0.8665,A,0.12,hh
166,0.49802,0.1,2,0.21581,0.43991,0.53952,166,2.18297,-0.02,-0.0083,0.48971,5,2D1U,1.0,True,0.125,23,False,left,0.0,1.2616,1.8699,0.6083,0.1619,0.7783,0.6164,A,0.12,hh
167,0.49802,0.1,1,0.21581,0.25731,0.53122,167,1.94227,-0.12,-0.0581,0.43991,5,1D2U,2.0,True,0.25,20,True,right,-0.16601,0.1606,0.7189,0.5583,1.2779,1.7273,0.4494,A,0.12,hh
168,0.49802,1.2,1,0.39841,0.42331,0.72212,168,2.54818,0.02,0.0083,0.50632,5,2D1U,2.0,False,0.15,24,True,right,0.24901,0.4247,0.8748,0.45,1.4997,2.1916,0.692,A,-0.06,hh
169,0.49802,1.2,2,0.42331,0.43991,0.57272,169,2.37387,-0.12,-0.0581,0.43991,5,1D2U,1.0,True,0.167,20,True,left,0.0,1.4875,1.8705,0.383,0.4458,0.8875,0.4417,A,-0.06,hh
170,0.49802,1.2,1,0.25731,0.31541,0.51462,170,2.04187,-0.08,-0.0415,0.45651,5,1D2U,1.0,False,0.166,20,False,left,-0.16601,0.2852,0.6851,0.3999,1.3101,1.5849,0.2748,A,-0.06,hh
171,0.49802,0.1,1,0.21581,0.41501,0.74702,171,2.40708,0.06,0.0332,0.53122,5,2D1U,2.0,False,0.115,24,False,right,0.24901,0.1553,0.8053,0.65,1.3719,2.2384,0.8664,A,0.12,hh
172,0.49802,0.1,2,0.39841,0.43161,0.62252,172,2.39047,-0.12,-0.0581,0.43991,5,1D2U,1.0,True,0.113,21,True,left,0.0,1.5212,2.0793,0.5582,0.3378,0.9543,0.6166,A,0.12,hh
173,0.49802,0.1,2,0.34031,0.29051,0.49802,173,2.17468,0.1,0.0498,0.54782,5,2D1U,2.0,True,0.191,24,False,right,-0.16601,1.2591,1.926,0.6669,0.3674,0.8171,0.4497,A,0.12,hh
174,0.49802,1.2,2,0.39841,0.31541,0.44821,174,2.09996,-0.12,-0.0581,0.43991,5,1D2U,1.0,True,0.175,21,True,left,0.24901,1.4631,1.8465,0.3835,0.2968,0.9884,0.6916,A,-0.06,hh
175,0.49802,1.2,1,0.39011,0.26561,0.63912,175,2.34068,0.1,0.0498,0.54782,5,2D1U,2.0,False,0.3,24,False,right,0.0,0.412,0.9035,0.4915,1.5701,2.0117,0.4416,A,-0.06,hh
176,0.49802,1.2,2,0.42331,0.41501,0.51462,176,2.30747,-0.08,-0.0415,0.45651,5,1D2U,2.0,False,0.235,22,True,right,-0.16601,1.3524,1.752,0.3996,0.5358,0.81,0.2743,A,-0.06,hh
177,0.49802,0.1,2,0.28221,0.42331,0.62252,177,2.39878,0.14,0.0664,0.57272,5,2D1U,2.0,True,0.2,24,False,right,0.24901,1.5368,2.2285,0.6917,0.1027,0.9698,0.8671,A,0.12,hh
178,0.49802,0.1,2,0.34861,0.31541,0.68892,178,2.42368,0.14,0.0664,0.57272,5,2D1U,2.0,True,0.183,24,False,right,0.0,1.5369,2.2286,0.6917,0.287,0.9031,0.6161,A,0.12,hh
179,0.49802,0.1,2,0.20751,0.23241,0.88813,179,2.26598,-0.12,-0.0581,0.43991,5,1D2U,2.0,False,0.399,23,True,right,-0.16601,1.5196,2.0776,0.558,0.2363,0.6854,0.4492,A,0.12,hh
180,0.49802,1.2,1,0.24901,0.36521,0.53952,180,2.19958,0.1,0.0498,0.54782,5,2D1U,2.0,False,0.317,25,True,right,0.24901,0.2777,0.7701,0.4924,1.2118,1.9039,0.6921,A,-0.06,hh
181,0.49802,1.2,2,0.21581,0.34031,0.40671,181,1.88416,-0.16,-0.083,0.42331,5,1D2U,1.0,True,0.185,23,False,left,0.0,1.1173,1.4836,0.3663,0.2423,0.6837,0.4413,A,-0.06,hh
182,0.49802,1.2,2,0.30711,0.20751,0.43991,182,2.02527,0.14,0.0664,0.57272,5,2D1U,2.0,True,0.263,26,True,right,-0.16601,1.1536,1.6706,0.517,0.4125,0.687,0.2745,A,-0.06,hh
183,0.49802,0.1,2,0.25731,0.30711,0.49802,183,1.98377,-0.16,-0.083,0.42331,5,1D2U,1.0,True,0.416,23,False,left,0.24901,1.3868,1.9285,0.5417,0.0784,0.9445,0.8661,A,0.12,hh
184,0.49802,0.1,2,0.39841,0.39011,0.82172,184,2.54817,-0.12,-0.0581,0.43991,5,1D2U,1.0,True,0.114,24,True,left,0.0,1.7233,2.2816,0.5583,0.3398,0.9562,0.6164,A,0.12,hh
185,0.49802,0.1,1,0.43161,0.22411,0.89643,185,2.62289,0.14,0.0664,0.57272,5,2D1U,1.0,True,0.283,26,True,left,-0.16601,0.3785,1.0696,0.6911,1.9951,2.4454,0.4504,A,0.12,hh
186,0.49802,1.2,2,0.26561,0.39841,0.86323,186,2.46518,-0.12,-0.0581,0.43991,5,1D2U,2.0,False,0.209,24,True,right,0.24901,1.7484,2.1317,0.3833,0.1648,0.8566,0.6917,A,-0.06,hh
187,0.49802,1.2,2,0.24901,0.32371,0.59762,187,2.21618,0.1,0.0498,0.54782,5,2D1U,1.0,False,0.299,27,True,left,0.0,1.3393,1.8308,0.4914,0.2726,0.7142,0.4416,A,-0.06,hh
188,0.49802,1.2,2,0.38181,0.42331,0.67232,188,2.39877,-0.16,-0.083,0.42331,5,1D2U,2.0,False,0.126,25,True,right,-0.16601,1.4697,1.8367,0.3669,0.4945,0.7699,0.2754,A,-0.06,hh
189,0.49802,0.1,2,0.23241,0.41501,0.43161,189,1.97546,-0.2,-0.0996,0.39841,5,1D2U,1.0,True,0.425,25,False,left,0.24901,1.2929,1.8089,0.516,0.0511,0.9173,0.8662,A,0.12,hh
190,0.49802,0.1,2,0.21581,0.36521,0.52292,190,2.17468,0.14,0.0664,0.57272,5,2D1U,1.0,False,0.116,28,True,left,0.0,1.24,1.9321,0.6921,0.157,0.7731,0.6161,A,0.12,hh
191,0.49802,0.1,2,0.28221,0.34031,0.83833,191,2.54819,0.18,0.0913,0.58932,5,2D1U,2.0,True,0.209,28,False,right,-0.16601,1.5375,2.2455,0.7079,0.3044,0.7542,0.4498,A,0.12,hh
192,0.49802,1.2,2,0.41501,0.23241,0.77192,192,2.50668,0.18,0.0913,0.58932,5,2D1U,1.0,False,0.342,28,False,left,0.24901,1.8061,2.3392,0.5331,0.3141,1.0056,0.6915,A,-0.06,hh
193,0.49802,1.2,1,0.30711,0.25731,0.63082,193,2.09167,-0.2,-0.0996,0.39841,5,1D2U,2.0,True,0.317,25,False,right,0.0,0.3345,0.6761,0.3416,1.3346,1.7765,0.4419,A,-0.06,hh
194,0.49802,1.2,1,0.32371,0.26561,0.48971,194,2.18297,0.22,0.1079,0.60592,5,2D1U,1.0,True,0.263,28,False,left,-0.16601,0.3485,0.8985,0.55,1.4983,1.7733,0.275,A,-0.06,hh
195,0.49802,0.1,2,0.34861,0.22411,0.48971,195,1.98376,-0.16,-0.083,0.42331,5,1D2U,1.0,True,0.142,26,True,left,0.24901,1.4633,2.0046,0.5413,0.1631,1.0301,0.8669,A,0.12,hh
196,0.49802,0.1,1,0.29051,0.20751,0.41501,196,1.83436,-0.16,-0.083,0.42331,5,1D2U,2.0,True,0.233,26,True,right,0.0,0.2311,0.7725,0.5414,1.131,1.7476,0.6166,A,0.12,hh
197,0.49802,0.1,2,0.42331,0.35691,0.61422,197,2.33237,-0.12,-0.0581,0.43991,5,1D2U,1.0,True,0.225,26,False,left,-0.16601,1.4541,2.0124,0.5583,0.4458,0.8962,0.4503,A,0.12,hh
198,0.49802,1.2,1,0.32371,0.36521,0.74702,198,2.37387,-0.12,-0.0581,0.43991,5,1D2U,2.0,True,0.167,26,False,right,0.24901,0.3466,0.7304,0.3839,1.3804,2.072,0.6916,A,-0.06,hh
199,0.49802,1.2,2,0.36521,0.21581,0.53122,199,2.21618,0.22,0.1079,0.60592,5,2D1U,2.0,True,0.267,28,False,right,0.0,1.3877,1.9373,0.5496,0.3875,0.8287,0.4412,A,-0.06,hh
200,0.49802,1.2,2,0.28221,0.38181,0.77192,200,2.39047,-0.08,-0.0415,0.45651,5,1D2U,2.0,False,0.275,26,False,right,-0.16601,1.4691,1.8691,0.4001,0.3944,0.6693,0.2749,A,-0.06,hh
201,0.49802,0.1,1,0.27391,0.40671,0.83003,201,2.59799,0.18,0.0913,0.58932,5,2D1U,2.0,False,0.45,29,True,right,0.24901,0.216,0.9238,0.7079,1.574,2.4404,0.8664,A,0.12,hh
202,0.49802,0.1,2,0.43991,0.43161,0.73042,202,2.70588,0.22,0.1079,0.60592,5,2D1U,2.0,True,0.242,30,True,right,0.0,1.6733,2.3987,0.7255,0.3823,0.9989,0.6166,A,0.12,hh
203,0.49802,0.1,1,0.37351,0.35691,0.66402,203,2.33237,-0.12,-0.0581,0.43991,5,1D2U,1.0,False,0.208,27,True,left,-0.16601,0.3146,0.8733,0.5587,1.5649,2.0152,0.4503,A,0.12,hh
204,0.49802,1.2,2,0.36521,0.29051,0.48971,204,2.24937,0.22,0.1079,0.60592,5,2D1U,1.0,False,0.258,30,True,left,0.24901,1.4724,2.0225,0.5501,0.2643,0.9553,0.691,A,-0.06,hh
205,0.49802,1.2,1,0.21581,0.33201,0.54782,205,2.22448,0.26,0.1328,0.63082,5,2D1U,1.0,True,0.121,30,False,left,0.0,0.2453,0.8198,0.5744,1.3953,1.8369,0.4416,A,-0.06,hh
206,0.49802,1.2,2,0.27391,0.37351,0.68062,206,2.24937,-0.16,-0.083,0.42331,5,1D2U,1.0,True,0.252,27,False,left,-0.16601,1.368,1.7346,0.3666,0.3846,0.6595,0.2749,A,-0.06,hh
207,0.49802,0.1,2,0.36521,0.23241,0.83833,207,2.35728,-0.16,-0.083,0.42331,5,1D2U,1.0,True,0.183,27,False,left,0.24901,1.834,2.3786,0.5446,0.1844,1.051,0.8666,A,0.12,hh
208,0.49802,0.1,1,0.39841,0.24901,0.41501,208,2.19127,0.26,0.1328,0.63082,5,2D1U,1.0,True,0.2,30,False,left,0.0,0.3398,1.0896,0.7499,1.4484,2.0649,0.6165,A,0.12,hh
209,0.49802,0.1,1,0.23241,0.41501,0.52292,209,2.10827,-0.12,-0.0581,0.43991,5,1D2U,2.0,True,0.182,28,True,right,-0.16601,0.1733,0.7316,0.5583,1.2817,1.7317,0.4499,A,0.12,hh
210,0.49802,1.2,1,0.34861,0.22411,0.85493,210,2.36558,-0.12,-0.0581,0.43991,5,1D2U,2.0,True,0.217,28,True,right,0.24901,0.3709,0.7541,0.3831,1.5129,2.2042,0.6914,A,-0.06,hh
211,0.49802,1.2,1,0.19921,0.33201,0.44821,211,2.08337,0.22,0.1079,0.60592,5,2D1U,2.0,False,0.208,31,True,right,0.0,0.223,0.773,0.5501,1.2481,1.69,0.4419,A,-0.06,hh
212,0.49802,1.2,1,0.39841,0.33201,0.87153,212,2.55648,-0.08,-0.0415,0.45651,5,1D2U,1.0,False,0.164,28,False,left,-0.16601,0.4217,0.8218,0.4001,1.8047,2.0797,0.2751,A,-0.06,hh
213,0.49802,0.1,2,0.33201,0.42331,0.75532,213,2.63948,0.26,0.1328,0.63082,5,2D1U,2.0,True,0.115,32,True,right,0.24901,1.7129,2.4636,0.7507,0.1461,1.0135,0.8675,A,0.12,hh
214,0.49802,0.1,1,0.22411,0.28221,0.48141,214,1.92566,-0.12,-0.0581,0.43991,5,1D2U,2.0,True,0.208,29,True,right,0.0,0.164,0.7219,0.558,1.147,1.7635,0.6164,A,0.12,hh
215,0.49802,0.1,1,0.43991,0.36521,0.54782,215,2.48178,0.26,0.1328,0.63082,5,2D1U,1.0,True,0.217,32,True,left,-0.16601,0.3803,1.1302,0.7499,1.7057,2.1555,0.4498,A,0.12,hh
216,0.49802,1.2,1,0.26561,0.40671,0.63912,216,2.24937,-0.12,-0.0581,0.43991,5,1D2U,2.0,True,0.2,29,True,right,0.24901,0.2872,0.6706,0.3834,1.212,1.9033,0.6913,A,-0.06,hh
217,0.49802,1.2,1,0.35691,0.39011,0.67232,217,2.52328,0.22,0.1079,0.60592,5,2D1U,2.0,False,0.27,33,True,right,0.0,0.3799,0.9302,0.5502,1.6303,2.073,0.4427,A,-0.06,hh
218,0.49802,1.2,2,0.25731,0.39841,0.50632,218,2.29088,0.26,0.1328,0.63082,5,2D1U,2.0,True,0.157,34,True,right,-0.16601,1.1707,1.745,0.5743,0.3619,0.6371,0.2752,A,-0.06,hh
219,0.49802,0.1,2,0.34861,0.21581,0.73872,219,2.43198,0.26,0.1328,0.63082,5,2D1U,2.0,True,0.114,34,True,right,0.24901,1.7191,2.469,0.7499,0.1691,1.0355,0.8664,A,0.12,hh
220,0.49802,0.1,1,0.35691,0.32371,0.74702,220,2.53158,0.22,0.1079,0.60592,5,2D1U,2.0,False,1.292,35,True,right,0.0,0.3035,1.0284,0.7249,1.7198,2.3365,0.6167,A,0.12,hh
221,0.49802,0.1,1,0.29051,0.43161,0.74702,221,2.59798,0.26,0.1328,0.63082,5,2D1U,1.0,True,0.317,36,True,left,-0.16601,0.2349,0.9846,0.7498,1.7595,2.2095,0.45,A,0.12,hh
222,0.49802,1.2,2,0.32371,0.38181,0.44821,222,2.28257,0.26,0.1328,0.63082,5,2D1U,1.0,False,0.15,36,True,left,0.24901,1.3927,1.9685,0.5758,0.2268,0.9182,0.6914,A,-0.06,hh
223,0.49802,1.2,1,0.26561,0.24901,0.52292,223,2.18298,0.3,0.1494,0.64742,5,2D1U,1.0,True,0.199,36,False,left,0.0,0.2939,0.8859,0.592,1.4358,1.8774,0.4416,A,-0.06,hh
224,0.49802,1.2,1,0.24071,0.32371,0.47311,224,2.18297,0.3,0.1494,0.64742,5,2D1U,1.0,True,0.11,36,False,left,-0.16601,0.2649,0.8564,0.5916,1.4396,1.7146,0.275,A,-0.06,hh
225,0.49802,0.1,2,0.29051,0.41501,0.86323,225,2.69759,0.26,0.1328,0.63082,5,2D1U,2.0,True,0.392,37,True,right,0.24901,1.7795,2.5298,0.7503,0.1045,0.9715,0.867,A,0.12,hh
226,0.49802,0.1,2,0.40671,0.25731,0.48141,226,2.27427,0.26,0.1328,0.63082,5,2D1U,2.0,True,0.259,37,True,right,0.0,1.3905,2.1403,0.7498,0.3493,0.9659,0.6166,A,0.12,hh
227,0.49802,0.1,2,0.39841,0.34861,0.62252,227,2.47348,0.22,0.1079,0.60592,5,2D1U,2.0,True,0.191,37,False,right,-0.16601,1.4385,2.1634,0.7249,0.4219,0.8718,0.4499,A,0.12,hh
0,0.49884,1.2,1,0.25774,0.22448,0.43233,0,1.7127,-0.4,-0.19954,0.29931,5,1D2U,2.0,True,2.867,0,False,right,0.08314,0.2821,0.5238,0.2417,0.9396,1.4654,0.5258,A,-0.06,hh
1,0.49884,1.2,1,0.22448,0.31593,0.88129,1,2.46927,0.1,0.04988,0.54873,5,2D1U,1.0,True,0.115,0,False,left,-0.24942,0.2521,0.7438,0.4917,1.777,1.9686,0.1916,A,-0.06,hh
2,0.49884,0.1,1,0.36582,0.36582,0.61524,2,2.39445,0.1,0.04988,0.54873,5,2D1U,1.0,True,0.168,0,False,left,0.08314,0.3054,0.9723,0.6669,1.4895,2.1889,0.6994,A,0.12,hh
3,0.49884,1.2,1,0.30762,0.39076,0.83141,3,2.97643,0.9,0.44896,0.9478,5,lapse_rate,1.0,True,0.116,0,False,left,-0.24942,0.3301,1.2214,0.8913,2.2054,2.3966,0.1912,A,-0.06,hh
4,0.49884,0.1,2,0.33256,0.25774,0.52379,4,1.91224,-0.4,-0.19954,0.29931,5,1D2U,1.0,True,0.209,0,False,left,0.08314,1.3973,1.8131,0.4158,0.2297,0.9294,0.6997,A,0.12,hh
5,0.49884,1.2,1,0.34088,0.44896,0.54041,5,2.30299,-0.06,-0.03326,0.4739,5,2D1U,1.0,False,0.162,0,False,left,-0.24942,0.364,0.7808,0.4167,1.4727,1.6639,0.1912,A,-0.06,hh
6,0.49884,0.1,2,0.44896,0.20785,0.67344,6,2.77689,0.9,0.44896,0.9478,5,lapse_rate,2.0,True,0.208,0,False,right,0.08314,1.6688,2.7349,1.0661,0.3517,1.0515,0.6998,A,0.12,hh
7,0.49884,1.2,2,0.21617,0.34919,0.5321,7,1.97875,-0.24,-0.1164,0.38245,5,1D2U,2.0,False,0.112,0,False,right,-0.24942,1.1182,1.4428,0.3246,0.3681,0.5599,0.1918,A,-0.06,hh
8,0.49884,0.1,1,0.33256,0.29099,0.59861,8,2.06188,-0.32,-0.15797,0.34088,5,1D2U,2.0,True,0.113,1,True,right,0.08314,0.2748,0.7322,0.4574,1.233,1.9327,0.6998,A,0.12,hh
9,0.49884,1.2,2,0.20785,0.38245,0.44065,9,2.47759,0.9,0.44896,0.9478,5,lapse_rate,2.0,True,0.225,0,False,right,-0.24942,1.0136,1.9057,0.8922,0.3547,0.5469,0.1922,A,-0.06,hh
10,0.49884,0.1,2,0.40739,0.34088,0.52379,10,2.2448,-0.06,-0.03326,0.4739,5,2D1U,1.0,True,0.158,0,False,left,0.08314,1.4713,2.0627,0.5914,0.3042,1.0043,0.7001,A,0.12,hh
11,0.49884,1.2,1,0.29931,0.35751,0.62356,11,2.1201,-0.32,-0.15797,0.34088,5,1D2U,1.0,False,0.159,1,True,left,-0.24942,0.3232,0.6066,0.2834,1.3816,1.5729,0.1913,A,-0.06,hh
12,0.49884,1.2,1,0.21617,0.30762,0.58198,12,2.11177,0.02,0.00831,0.50716,5,2D1U,2.0,False,0.208,1,True,right,0.08314,0.2432,0.693,0.4498,1.2597,1.7842,0.5245,A,-0.06,hh
13,0.49884,0.1,1,0.24942,0.23279,0.75658,13,2.07019,-0.3299999999999999,-0.16628,0.33256,5,lapse_rate,2.0,True,0.267,0,False,right,-0.24942,0.193,0.6428,0.4498,1.468,1.8346,0.3666,A,0.12,hh
14,0.49884,0.1,2,0.26605,0.43233,0.81478,14,2.34456,-0.33,-0.16628,0.33256,5,1D2U,1.0,True,0.458,1,False,left,0.08314,1.6231,2.0739,0.4508,0.1655,0.8654,0.6999,A,0.12,hh
15,0.49884,1.2,2,0.31593,0.4157,0.59861,15,2.16164,-0.3299999999999999,-0.16628,0.33256,5,lapse_rate,1.0,True,0.113,0,False,left,-0.24942,1.2801,1.5551,0.275,0.4635,0.6551,0.1915,A,-0.06,hh
16,0.49884,0.1,1,0.36582,0.27436,0.58198,16,2.26973,0.1,0.04988,0.54873,5,2D1U,2.0,False,1.492,1,False,right,0.08314,0.3094,0.9765,0.6671,1.4597,2.1597,0.7001,A,0.12,hh
17,0.49884,1.2,2,0.30762,0.27436,0.49053,17,1.90391,-0.33,-0.16628,0.33256,5,1D2U,1.0,True,0.111,1,False,left,-0.24942,1.165,1.4405,0.2755,0.4568,0.6484,0.1916,A,-0.06,hh
18,0.49884,1.2,1,0.21617,0.19954,0.73995,18,2.2448,0.18,0.09145,0.5903,5,2D1U,2.0,False,0.254,1,False,right,0.08314,0.2451,0.7783,0.5333,1.5034,2.0283,0.5249,A,-0.06,hh
19,0.49884,0.1,1,0.43233,0.32425,0.4157,19,2.00368,-0.3299999999999999,-0.16628,0.33256,5,lapse_rate,2.0,True,0.195,0,False,right,-0.24942,0.3776,0.8275,0.4499,1.3109,1.6776,0.3667,A,0.12,hh
20,0.49884,0.1,2,0.29099,0.32425,0.87298,20,2.61893,0.26,0.13303,0.63187,5,2D1U,1.0,False,0.2,1,False,left,0.08314,1.7099,2.4597,0.7498,0.1931,0.8931,0.7,A,0.12,hh
21,0.49884,0.1,2,0.34919,0.40739,0.49884,21,2.11177,-0.29,-0.14134,0.35751,5,1D2U,1.0,True,0.112,2,True,left,-0.24942,1.2232,1.6981,0.4749,0.4148,0.782,0.3672,A,0.12,hh
22,0.49884,0.1,1,0.19954,0.19954,0.87298,22,2.10346,-0.3299999999999999,-0.16628,0.33256,5,lapse_rate,2.0,True,0.113,0,False,right,0.08314,0.1388,0.5894,0.4506,1.3642,2.0641,0.6999,A,0.12,hh
23,0.49884,1.2,1,0.30762,0.20785,0.42402,23,2.11177,0.34,0.16628,0.67344,5,2D1U,1.0,True,0.112,1,False,left,-0.24942,0.3295,0.9461,0.6166,1.5214,1.7126,0.1912,A,-0.06,hh
24,0.49884,1.2,1,0.25774,0.34919,0.78152,24,2.2448,-0.29,-0.14134,0.35751,5,1D2U,2.0,True,0.206,2,True,right,0.08314,0.2809,0.5807,0.2999,1.3474,1.8732,0.5258,A,-0.06,hh
25,0.49884,1.2,1,0.35751,0.25774,0.69007,25,2.13672,-0.3299999999999999,-0.16628,0.33256,5,lapse_rate,1.0,False,0.12,0,False,left,-0.24942,0.3811,0.6561,0.2749,1.4972,1.6893,0.1921,A,-0.06,hh
26,0.49884,0.1,1,0.39076,0.26605,0.61524,26,2.14502,-0.25,-0.12471,0.37413,5,1D2U,2.0,True,0.114,2,False,right,0.08314,0.3365,0.828,0.4916,1.3448,2.0449,0.7001,A,0.12,hh
27,0.49884,0.1,1,0.42402,0.34088,0.4157,27,2.35288,0.34,0.16628,0.67344,5,2D1U,1.0,True,0.159,1,False,left,-0.24942,0.3675,1.1585,0.791,1.6419,2.0088,0.3669,A,0.12,hh
28,0.49884,0.1,1,0.43233,0.34919,0.81478,28,3.04294,0.9,0.44896,0.9478,5,lapse_rate,1.0,True,0.125,0,False,left,0.08314,0.3771,1.4439,1.0668,2.1604,2.86,0.6996,A,0.12,hh
29,0.49884,1.2,2,0.36582,0.19954,0.73995,29,2.45265,0.3,0.14965,0.6485,5,2D1U,2.0,True,0.114,2,True,right,-0.24942,1.4738,2.0647,0.591,0.5156,0.7074,0.1918,A,-0.06,hh
30,0.49884,1.2,2,0.29099,0.44065,0.63187,30,2.23648,-0.25,-0.12471,0.37413,5,1D2U,1.0,True,0.203,2,False,left,0.08314,1.4597,1.7769,0.3172,0.2767,0.8018,0.525,A,-0.06,hh
31,0.49884,0.1,2,0.29099,0.23279,0.63187,31,2.60229,0.9,0.44896,0.9478,5,lapse_rate,2.0,True,0.209,0,False,right,-0.24942,1.2985,2.365,1.0665,0.3568,0.7236,0.3668,A,0.12,hh
32,0.49884,0.1,2,0.33256,0.4157,0.66513,32,2.56073,0.3,0.14965,0.6485,5,2D1U,2.0,True,0.159,2,True,right,0.08314,1.5419,2.309,0.7671,0.2337,0.9337,0.7,A,0.12,hh
33,0.49884,0.1,2,0.32425,0.29099,0.84804,33,2.29468,-0.3299999999999999,-0.16628,0.33256,5,lapse_rate,1.0,True,0.2,0,False,left,-0.24942,1.5473,1.9972,0.45,0.3885,0.7556,0.3671,A,0.12,hh
34,0.49884,0.1,2,0.32425,0.39908,0.4157,34,2.03695,-0.21,-0.10808,0.39908,5,1D2U,1.0,True,0.113,2,False,left,0.08314,1.2802,1.7967,0.5166,0.2217,0.9223,0.7006,A,0.12,hh
35,0.49884,1.2,2,0.35751,0.34919,0.69007,35,2.29469,-0.21,-0.10808,0.39908,5,1D2U,2.0,False,0.116,2,False,right,-0.24942,1.4196,1.7612,0.3416,0.5107,0.7023,0.1916,A,-0.06,hh
36,0.49884,1.2,1,0.44065,0.34919,0.42402,36,2.34457,0.26,0.13303,0.63187,5,2D1U,1.0,True,0.159,2,False,left,0.08314,0.4681,1.0432,0.575,1.4516,1.9761,0.5246,A,-0.06,hh
37,0.49884,1.2,1,0.38245,0.22448,0.85635,37,2.90992,0.9,0.44896,0.9478,5,lapse_rate,1.0,True,0.209,0,False,left,-0.24942,0.4075,1.299,0.8915,2.3075,2.4992,0.1917,A,-0.06,hh
38,0.49884,0.1,1,0.34919,0.39076,0.4157,38,2.28636,0.26,0.13303,0.63187,5,2D1U,1.0,True,0.113,2,False,left,0.08314,0.2892,1.04,0.7508,1.3565,2.0565,0.7,A,0.12,hh
39,0.49884,0.1,1,0.44065,0.44065,0.43233,39,2.1866,-0.25,-0.12471,0.37413,5,1D2U,2.0,True,0.138,3,True,right,-0.24942,0.3805,0.8721,0.4916,1.3722,1.7386,0.3664,A,0.12,hh
40,0.49884,1.2,1,0.39076,0.22448,0.7067,40,2.15334,-0.3299999999999999,-0.16628,0.33256,5,lapse_rate,2.0,True,0.265,0,False,right,0.08314,0.4203,0.6943,0.274,1.3866,1.9116,0.525,A,-0.06,hh
41,0.49884,1.2,1,0.39908,0.42402,0.44065,41,2.13672,-0.25,-0.12471,0.37413,5,1D2U,1.0,False,0.115,3,True,left,-0.24942,0.4208,0.7378,0.317,1.3293,1.5211,0.1918,A,-0.06,hh
42,0.49884,1.2,2,0.38245,0.29099,0.82309,42,2.94317,0.9,0.44896,0.9478,5,lapse_rate,2.0,True,0.276,0,False,right,0.08314,1.7453,2.6369,0.8916,0.3705,0.8955,0.525,A,-0.06,hh
43,0.49884,1.2,1,0.21617,0.44065,0.42402,43,2.18661,0.22,0.10808,0.60693,5,2D1U,1.0,True,0.108,2,False,left,-0.24942,0.2448,0.7949,0.5501,1.3699,1.5615,0.1916,A,-0.06,hh
44,0.49884,0.1,2,0.36582,0.31593,0.73164,44,2.51916,0.22,0.10808,0.60693,5,2D1U,2.0,True,0.209,2,False,right,0.08314,1.6425,2.368,0.7255,0.2679,0.9687,0.7008,A,0.12,hh
45,0.49884,0.1,2,0.42402,0.20785,0.42402,45,1.91224,-0.29,-0.14134,0.35751,5,1D2U,1.0,True,0.239,3,False,left,-0.24942,1.2225,1.6977,0.4753,0.4897,0.8556,0.3659,A,0.12,hh
46,0.49884,1.2,1,0.40739,0.42402,0.75658,46,2.41939,-0.3299999999999999,-0.16628,0.33256,5,lapse_rate,2.0,True,0.183,0,False,right,0.08314,0.4345,0.7096,0.2751,1.4514,1.9761,0.5247,A,-0.06,hh
47,0.49884,1.2,1,0.38245,0.39908,0.78984,47,2.66051,0.18,0.09145,0.5903,5,2D1U,1.0,True,0.113,2,False,left,-0.24942,0.4058,0.9393,0.5335,1.8815,2.0735,0.192,A,-0.06,hh
48,0.49884,1.2,2,0.27436,0.20785,0.72332,48,2.06188,-0.29,-0.14134,0.35751,5,1D2U,1.0,True,0.283,3,False,left,0.08314,1.5353,1.8354,0.3,0.2606,0.7848,0.5241,A,-0.06,hh
49,0.49884,0.1,1,0.43233,0.40739,0.4739,49,2.76026,0.9,0.44896,0.9478,5,lapse_rate,1.0,True,0.248,0,False,left,-0.24942,0.3756,1.4423,1.0666,1.9839,2.3506,0.3667,A,0.12,hh
50,0.49884,0.1,2,0.40739,0.23279,0.79815,50,2.52747,0.18,0.09145,0.5903,5,2D1U,2.0,True,0.133,2,False,right,0.08314,1.7491,2.4569,0.7078,0.3069,1.007,0.7001,A,0.12,hh
51,0.49884,0.1,1,0.30762,0.19954,0.89792,51,2.47759,0.14,0.06651,0.57367,5,2D1U,1.0,True,0.329,2,False,left,-0.24942,0.2515,0.9437,0.6922,1.9108,2.277,0.3662,A,0.12,hh
52,0.49884,1.2,2,0.26605,0.43233,0.49884,52,2.07019,-0.25,-0.12471,0.37413,5,1D2U,1.0,True,0.113,4,True,left,0.08314,1.3035,1.6196,0.3161,0.2528,0.7775,0.5246,A,-0.06,hh
53,0.49884,1.2,2,0.24111,0.34919,0.51547,53,2.17828,0.14,0.06651,0.57367,5,2D1U,2.0,True,0.111,2,False,right,-0.24942,1.1245,1.6409,0.5163,0.3908,0.5825,0.1917,A,-0.06,hh
54,0.49884,0.1,1,0.29931,0.34919,0.79815,54,2.31962,-0.25,-0.12471,0.37413,5,1D2U,2.0,True,0.111,4,True,right,0.08314,0.2393,0.7313,0.492,1.4318,2.1319,0.7001,A,0.12,hh
55,0.49884,0.1,2,0.26605,0.38245,0.4739,55,2.02032,-0.21,-0.10808,0.39908,5,1D2U,1.0,True,0.225,4,False,left,-0.24942,1.1179,1.6346,0.5167,0.3345,0.7017,0.3672,A,0.12,hh
56,0.49884,1.2,2,0.37413,0.19954,0.82309,56,2.29468,-0.21,-0.10808,0.39908,5,1D2U,1.0,True,0.359,4,False,left,0.08314,1.7309,2.0725,0.3417,0.3555,0.8808,0.5253,A,-0.06,hh
57,0.49884,1.2,1,0.28268,0.28268,0.78152,57,2.26142,-0.17,-0.08314,0.4157,5,1D2U,1.0,False,0.209,4,False,left,-0.24942,0.3101,0.6685,0.3584,1.6017,1.7933,0.1916,A,-0.06,hh
58,0.49884,0.1,2,0.38245,0.31593,0.69838,58,2.44433,0.1,0.04988,0.54873,5,2D1U,2.0,True,0.113,2,False,right,0.08314,1.6284,2.2954,0.667,0.2867,0.9867,0.7001,A,0.12,hh
59,0.49884,0.1,2,0.40739,0.23279,0.7067,59,2.2448,-0.21,-0.10808,0.39908,5,1D2U,2.0,False,1.759,5,True,right,-0.24942,1.4915,2.0083,0.5167,0.4759,0.8419,0.366,A,0.12,hh
60,0.49884,1.2,1,0.19954,0.20785,0.88129,60,2.33625,0.1,0.04988,0.54873,5,2D1U,1.0,True,0.363,2,False,left,0.08314,0.2231,0.7139,0.4908,1.581,2.1057,0.5247,A,-0.06,hh
61,0.49884,1.2,1,0.29931,0.34088,0.50716,61,2.02032,-0.25,-0.12471,0.37413,5,1D2U,1.0,False,0.159,5,False,left,-0.24942,0.3265,0.6443,0.3178,1.3026,1.4942,0.1916,A,-0.06,hh
62,0.49884,0.1,2,0.21617,0.27436,0.58198,62,1.92886,-0.29,-0.14134,0.35751,5,1D2U,1.0,True,0.14,5,False,left,0.08314,1.3395,1.8151,0.4757,0.1144,0.8143,0.6998,A,0.12,hh
63,0.49884,0.1,2,0.20785,0.33256,0.67344,63,2.0702,-0.29,-0.14134,0.35751,5,1D2U,1.0,True,0.215,5,False,left,-0.24942,1.2584,1.7337,0.4753,0.2756,0.6416,0.366,A,0.12,hh
64,0.49884,1.2,1,0.40739,0.27436,0.39908,64,2.11177,0.06,0.03326,0.5321,5,2D1U,2.0,False,0.35,2,False,right,0.08314,0.4356,0.9111,0.4755,1.2942,1.8189,0.5247,A,-0.06,hh
65,0.49884,1.2,1,0.39908,0.43233,0.51547,65,2.21985,-0.25,-0.12471,0.37413,5,1D2U,1.0,False,0.114,6,True,left,-0.24942,0.4221,0.7387,0.3165,1.4054,1.5969,0.1916,A,-0.06,hh
66,0.49884,0.1,1,0.28268,0.34919,0.5903,66,2.07852,-0.29,-0.14134,0.35751,5,1D2U,2.0,True,0.111,7,True,right,0.08314,0.2238,0.6968,0.473,1.1886,1.8887,0.7001,A,0.12,hh
67,0.49884,0.1,2,0.25774,0.4157,0.86466,67,2.58567,0.1,0.04988,0.54873,5,2D1U,2.0,True,0.249,3,True,right,-0.24942,1.4989,2.165,0.6661,0.3235,0.6903,0.3668,A,0.12,hh
68,0.49884,1.2,1,0.42402,0.36582,0.69838,68,2.34457,-0.29,-0.14134,0.35751,5,1D2U,2.0,True,0.222,7,True,right,0.08314,0.4486,0.748,0.2994,1.4315,1.957,0.5254,A,-0.06,hh
69,0.49884,1.2,2,0.39076,0.25774,0.77321,69,2.29468,-0.25,-0.12471,0.37413,5,1D2U,2.0,False,0.2,8,True,right,-0.24942,1.5297,1.8469,0.3172,0.5383,0.73,0.1917,A,-0.06,hh
70,0.49884,0.1,2,0.21617,0.34919,0.69007,70,2.303,0.1,0.04988,0.54873,5,2D1U,2.0,True,0.133,3,True,right,0.08314,1.4447,2.1116,0.6669,0.1116,0.8118,0.7002,A,0.12,hh
71,0.49884,0.1,1,0.36582,0.40739,0.44065,71,2.07021,-0.29,-0.14134,0.35751,5,1D2U,2.0,True,0.215,9,True,right,-0.24942,0.3036,0.7792,0.4755,1.2868,1.6534,0.3666,A,0.12,hh
72,0.49884,1.2,2,0.24942,0.23279,0.83972,72,2.35287,0.06,0.03326,0.5321,5,2D1U,2.0,True,0.249,4,True,right,0.08314,1.6276,2.1027,0.4752,0.2358,0.7614,0.5256,A,-0.06,hh
73,0.49884,1.2,1,0.38245,0.32425,0.72332,73,2.46096,0.06,0.03326,0.5321,5,2D1U,1.0,True,0.155,4,True,left,-0.24942,0.4051,0.8807,0.4755,1.7552,1.9473,0.192,A,-0.06,hh
74,0.49884,0.1,1,0.29931,0.4157,0.87298,74,2.44434,-0.29,-0.14134,0.35751,5,1D2U,2.0,True,0.367,9,True,right,0.08314,0.2392,0.714,0.4748,1.4886,2.1887,0.7001,A,0.12,hh
75,0.49884,0.1,2,0.26605,0.34088,0.72332,75,2.33625,0.02,0.00831,0.50716,5,2D1U,2.0,True,0.25,4,False,right,-0.24942,1.3648,1.9898,0.625,0.3315,0.6976,0.3661,A,0.12,hh
76,0.49884,1.2,1,0.26605,0.25774,0.49053,76,2.02032,0.02,0.00831,0.50716,5,2D1U,2.0,False,0.249,4,False,right,0.08314,0.2904,0.7404,0.45,1.2154,1.7404,0.525,A,-0.06,hh
77,0.49884,1.2,1,0.32425,0.32425,0.83141,77,2.51085,0.06,0.03326,0.5321,5,2D1U,1.0,True,0.116,5,True,left,-0.24942,0.3516,0.8265,0.4749,1.8096,2.0013,0.1917,A,-0.06,hh
78,0.49884,0.1,2,0.39076,0.21617,0.81478,78,2.29468,-0.25,-0.12471,0.37413,5,1D2U,1.0,True,0.167,10,True,left,0.08314,1.7483,2.2397,0.4914,0.2899,0.9901,0.7003,A,0.12,hh
79,0.49884,0.1,1,0.35751,0.4157,0.56536,79,2.21154,-0.25,-0.12471,0.37413,5,1D2U,2.0,True,0.192,10,True,right,-0.24942,0.298,0.7894,0.4914,1.4223,1.7892,0.3669,A,0.12,hh
80,0.49884,1.2,1,0.20785,0.33256,0.6485,80,2.21985,0.06,0.03326,0.5321,5,2D1U,2.0,False,0.232,5,True,right,0.08314,0.2295,0.7044,0.4749,1.3377,1.8632,0.5255,A,-0.06,hh
81,0.49884,1.2,1,0.29099,0.22448,0.88129,81,2.29468,-0.21,-0.10808,0.39908,5,1D2U,1.0,False,0.252,10,False,left,-0.24942,0.3203,0.6621,0.3418,1.6954,1.8871,0.1916,A,-0.06,hh
82,0.49884,0.1,2,0.44896,0.34919,0.73995,82,2.41107,-0.25,-0.12471,0.37413,5,1D2U,1.0,True,0.113,11,True,left,0.08314,1.731,2.2222,0.4913,0.3475,1.0476,0.7001,A,0.12,hh
83,0.49884,0.1,2,0.20785,0.26605,0.59861,83,1.94548,-0.25,-0.12471,0.37413,5,1D2U,1.0,True,0.271,11,True,left,-0.24942,1.1812,1.6727,0.4915,0.2728,0.6398,0.367,A,0.12,hh
84,0.49884,1.2,2,0.43233,0.40739,0.86466,84,2.75195,0.1,0.04988,0.54873,5,2D1U,1.0,False,0.275,5,False,left,0.08314,1.8338,2.3255,0.4916,0.4171,0.9425,0.5254,A,-0.06,hh
85,0.49884,1.2,2,0.24942,0.44065,0.68175,85,2.44433,0.14,0.06651,0.57367,5,2D1U,2.0,True,0.112,5,False,right,-0.24942,1.3007,1.8166,0.5158,0.4006,0.5925,0.1919,A,-0.06,hh
86,0.49884,0.1,1,0.21617,0.38245,0.54041,86,2.21154,0.14,0.06651,0.57367,5,2D1U,1.0,True,0.475,5,False,left,0.08314,0.1544,0.8472,0.6928,1.2876,1.9881,0.7005,A,0.12,hh
87,0.49884,0.1,2,0.34919,0.34088,0.42402,87,2.01201,-0.21,-0.10808,0.39908,5,1D2U,2.0,False,0.291,12,True,right,-0.24942,1.1518,1.6692,0.5174,0.4189,0.7856,0.3667,A,0.12,hh
88,0.49884,1.2,2,0.21617,0.34088,0.67344,88,2.27806,0.1,0.04988,0.54873,5,2D1U,2.0,True,0.186,6,True,right,0.08314,1.4231,1.9143,0.4913,0.1982,0.723,0.5247,A,-0.06,hh
89,0.49884,1.2,2,0.33256,0.35751,0.87298,89,2.61062,0.1,0.04988,0.54873,5,2D1U,2.0,True,0.255,6,True,right,-0.24942,1.5777,2.0693,0.4916,0.4861,0.6776,0.1915,A,-0.06,hh
90,0.49884,0.1,1,0.38245,0.44896,0.69838,90,2.40276,-0.25,-0.12471,0.37413,5,1D2U,2.0,True,0.112,13,True,right,0.08314,0.3253,0.8174,0.4921,1.4175,2.1173,0.6998,A,0.12,hh
91,0.49884,0.1,1,0.20785,0.22448,0.65681,91,2.12008,0.06,0.03326,0.5321,5,2D1U,1.0,True,0.25,6,False,left,-0.24942,0.1468,0.7967,0.65,1.5215,1.8882,0.3668,A,0.12,hh
92,0.49884,1.2,2,0.24942,0.25774,0.72332,92,2.10345,-0.25,-0.12471,0.37413,5,1D2U,2.0,False,0.308,13,True,right,0.08314,1.5031,1.8202,0.3171,0.2287,0.7541,0.5255,A,-0.06,hh
93,0.49884,1.2,1,0.39908,0.23279,0.49884,93,2.16165,0.06,0.03326,0.5321,5,2D1U,1.0,True,0.134,6,False,left,-0.24942,0.4246,0.8995,0.4749,1.5498,1.7415,0.1917,A,-0.06,hh
94,0.49884,0.1,2,0.4157,0.28268,0.68175,94,2.38613,0.02,0.00831,0.50716,5,2D1U,1.0,False,0.2,6,False,left,0.08314,1.64,2.2644,0.6244,0.3146,1.0144,0.6998,A,0.12,hh
95,0.49884,0.1,1,0.42402,0.43233,0.63187,95,2.51916,0.06,0.03326,0.5321,5,2D1U,1.0,True,0.111,7,True,left,-0.24942,0.3698,1.0196,0.6499,1.7195,2.0862,0.3667,A,0.12,hh
96,0.49884,1.2,2,0.32425,0.26605,0.68175,96,2.1284,-0.29,-0.14134,0.35751,5,1D2U,2.0,False,0.325,13,False,right,0.08314,1.5445,1.8447,0.3002,0.3113,0.8362,0.5249,A,-0.06,hh
97,0.49884,1.2,2,0.24111,0.38245,0.57367,97,2.22817,0.06,0.03326,0.5321,5,2D1U,2.0,True,0.162,7,True,right,-0.24942,1.1825,1.6579,0.4754,0.3906,0.5826,0.1919,A,-0.06,hh
98,0.49884,0.1,1,0.30762,0.24111,0.49053,98,2.04526,0.02,0.00831,0.50716,5,2D1U,1.0,True,0.175,8,True,left,0.08314,0.248,0.8728,0.6248,1.2646,1.9646,0.7,A,0.12,hh
99,0.49884,0.1,2,0.39076,0.23279,0.85635,99,2.3113,-0.33,-0.16628,0.33256,5,1D2U,1.0,True,0.308,13,False,left,-0.24942,1.6215,2.0721,0.4506,0.4555,0.8219,0.3664,A,0.12,hh
100,0.49884,1.2,1,0.22448,0.19954,0.87298,100,2.1284,-0.33,-0.16628,0.33256,5,1D2U,2.0,True,0.315,13,False,right,0.08314,0.2468,0.5223,0.2755,1.3803,1.9052,0.5249,A,-0.06,hh
101,0.49884,1.2,1,0.37413,0.39076,0.74827,101,2.36951,-0.29,-0.14134,0.35751,5,1D2U,1.0,False,0.137,14,True,left,-0.24942,0.3973,0.6971,0.2998,1.5971,1.7889,0.1918,A,-0.06,hh
102,0.49884,0.1,2,0.29931,0.38245,0.65681,102,2.34457,0.02,0.00831,0.50716,5,2D1U,1.0,False,0.133,8,True,left,0.08314,1.5012,2.1262,0.625,0.2014,0.9013,0.6998,A,0.12,hh
103,0.49884,0.1,2,0.31593,0.32425,0.44065,103,1.91223,-0.33,-0.16628,0.33256,5,1D2U,1.0,True,0.17,15,True,left,-0.24942,1.1333,1.5833,0.4499,0.3835,0.7503,0.3668,A,0.12,hh
104,0.49884,1.2,2,0.21617,0.38245,0.84804,104,2.4776,0.06,0.03326,0.5321,5,2D1U,2.0,True,0.183,9,True,right,0.08314,1.6017,2.0764,0.4747,0.2015,0.7264,0.5249,A,-0.06,hh
105,0.49884,1.2,2,0.27436,0.21617,0.83141,105,2.15334,-0.33,-0.16628,0.33256,5,1D2U,1.0,True,0.21,15,True,left,-0.24942,1.4724,1.7474,0.275,0.4226,0.6143,0.1917,A,-0.06,hh
106,0.49884,0.1,2,0.39908,0.29931,0.75658,106,2.31132,-0.29,-0.14134,0.35751,5,1D2U,1.0,True,0.125,16,True,left,0.08314,1.6955,2.1709,0.4754,0.2953,0.9958,0.7005,A,0.12,hh
107,0.49884,0.1,2,0.43233,0.4157,0.6485,107,2.35288,-0.29,-0.14134,0.35751,5,1D2U,1.0,True,0.166,16,True,left,-0.24942,1.4576,1.9329,0.4753,0.4993,0.8658,0.3665,A,0.12,hh
108,0.49884,1.2,2,0.27436,0.20785,0.82309,108,2.17827,-0.25,-0.12471,0.37413,5,1D2U,1.0,True,0.932,16,False,left,0.08314,1.6287,1.9448,0.3162,0.2536,0.7786,0.525,A,-0.06,hh
109,0.49884,1.2,1,0.33256,0.28268,0.51547,109,2.16165,0.06,0.03326,0.5321,5,2D1U,1.0,True,0.2,9,True,left,-0.24942,0.3603,0.8355,0.4753,1.5024,1.6935,0.1911,A,-0.06,hh
110,0.49884,0.1,2,0.34088,0.31593,0.78152,110,2.3113,-0.25,-0.12471,0.37413,5,1D2U,1.0,True,0.15,16,False,left,0.08314,1.6702,2.1617,0.4915,0.2454,0.945,0.6996,A,0.12,hh
111,0.49884,0.1,2,0.27436,0.29931,0.48222,111,2.06189,0.02,0.00831,0.50716,5,2D1U,2.0,True,0.249,10,True,right,-0.24942,1.135,1.7599,0.6249,0.3432,0.7099,0.3666,A,0.12,hh
112,0.49884,1.2,1,0.31593,0.20785,0.72332,112,2.14502,-0.21,-0.10808,0.39908,5,1D2U,2.0,True,0.292,16,False,right,0.08314,0.3437,0.6849,0.3412,1.3932,1.9185,0.5253,A,-0.06,hh
113,0.49884,1.2,2,0.34919,0.40739,0.88129,113,2.53579,-0.21,-0.10808,0.39908,5,1D2U,2.0,False,0.147,16,False,right,-0.24942,1.5976,1.9393,0.3417,0.497,0.6893,0.1922,A,-0.06,hh
114,0.49884,0.1,2,0.21617,0.35751,0.49053,114,2.07021,0.02,0.00831,0.50716,5,2D1U,1.0,False,0.25,10,True,left,0.08314,1.2522,1.8775,0.6253,0.1191,0.819,0.6999,A,0.12,hh
115,0.49884,0.1,1,0.34919,0.27436,0.61524,115,2.26973,0.06,0.03326,0.5321,5,2D1U,1.0,True,0.215,11,True,left,-0.24942,0.2898,0.9401,0.6503,1.6233,1.9899,0.3666,A,0.12,hh
116,0.49884,1.2,1,0.4157,0.19954,0.82309,116,2.46927,0.06,0.03326,0.5321,5,2D1U,2.0,False,0.277,11,True,right,0.08314,0.4366,0.9122,0.4756,1.7206,2.2455,0.5248,A,-0.06,hh
117,0.49884,1.2,2,0.25774,0.34919,0.51547,117,2.16997,0.1,0.04988,0.54873,5,2D1U,2.0,True,0.112,11,False,right,-0.24942,1.1406,1.6329,0.4923,0.4074,0.5992,0.1917,A,-0.06,hh
118,0.49884,0.1,2,0.34919,0.26605,0.59861,118,2.26142,0.1,0.04988,0.54873,5,2D1U,1.0,False,0.251,11,False,left,0.08314,1.4932,2.1598,0.6666,0.2513,0.9518,0.7004,A,0.12,hh
119,0.49884,0.1,2,0.40739,0.44896,0.66513,119,2.59399,0.14,0.06651,0.57367,5,2D1U,2.0,True,0.13,11,False,right,-0.24942,1.4533,2.145,0.6917,0.4783,0.8441,0.3659,A,0.12,hh
0,0.50022,1.2,1,0.27512,0.30847,0.86705,0,2.05924,-0.78,-0.39184,0.10838,5,1D2U,2.0,True,0.395,0,False,right,0.25011,0.2978,0.3478,0.0499,1.1147,1.8066,0.6919,A,-0.06,HH3
1,0.50022,1.2,2,0.39184,0.20843,0.80036,1,2.00923,-0.78,-0.39184,0.10838,5,2D1U,1.0,True,0.376,0,False,left,0.0,1.6796,1.7549,0.0754,0.4132,0.8557,0.4426,A,-0.06,HH3
2,0.50022,1.2,2,0.36683,0.30013,0.742,2,2.10093,-0.62,-0.30847,0.19175,5,2D1U,1.0,True,0.255,0,False,left,-0.16674,1.5143,1.6722,0.1579,0.4721,0.7475,0.2754,A,-0.06,HH3
3,0.50022,1.2,1,0.41685,0.30013,0.72532,3,2.89294,0.9,0.4502,0.95042,5,lapse_rate,1.0,True,0.311,0,False,left,0.25011,0.4452,1.3376,0.8924,1.9615,2.6542,0.6927,A,-0.06,HH3
4,0.50022,0.1,2,0.40018,0.2251,0.50856,4,1.74244,-0.78,-0.39184,0.10838,5,1D2U,1.0,True,0.359,0,False,left,0.0,1.4089,1.5758,0.1669,0.3422,0.9587,0.6166,A,0.12,HH3
5,0.50022,0.1,1,0.4502,0.24177,0.9004,5,2.35938,-0.46,-0.23344,0.26679,5,2D1U,2.0,True,0.332,0,False,right,-0.16674,0.3955,0.7786,0.3831,1.7038,2.1536,0.4498,A,0.12,HH3
6,0.50022,0.1,1,0.37517,0.23344,0.89207,6,2.10928,-0.78,-0.39184,0.10838,5,lapse_rate,2.0,True,0.416,0,False,right,0.25011,0.3203,0.5441,0.2238,1.2532,999.0,997.7468,A,0.12,HH3
7,0.50022,0.1,1,0.2918,0.3835,0.69198,7,2.05925,-0.62,-0.30847,0.19175,5,1D2U,2.0,True,0.345,0,False,right,0.0,0.2348,0.5431,0.3082,1.1764,1.793,0.6167,A,0.12,HH3
8,0.50022,1.2,1,0.24177,0.31681,0.66696,8,2.07592,-0.3,-0.15007,0.35016,5,2D1U,2.0,True,0.916,0,False,right,-0.16674,0.2699,0.5614,0.2916,1.3367,1.6107,0.2741,A,-0.06,HH3
9,0.50022,1.2,2,0.35016,0.31681,0.80036,9,2.1593,-0.62,-0.30847,0.19175,5,1D2U,1.0,True,0.321,0,False,left,0.25011,1.7645,1.9228,0.1584,0.249,0.9406,0.6916,A,-0.06,HH3
10,0.50022,0.1,2,0.4502,0.43353,0.6753,10,2.16763,-0.78,-0.39184,0.10838,5,lapse_rate,1.0,True,0.196,0,False,left,0.0,1.6241,1.79,0.1659,0.391,1.0065,0.6155,A,0.12,HH3
11,0.50022,1.2,1,0.20009,0.26679,0.79202,11,2.19265,-0.14,-0.0667,0.43353,5,2D1U,1.0,False,0.241,0,False,left,-0.16674,0.228,0.6035,0.3755,1.5027,1.7774,0.2747,A,-0.06,HH3
12,0.50022,0.1,1,0.33348,0.37517,0.79202,12,2.26768,-0.46,-0.23344,0.26679,5,1D2U,2.0,True,0.272,0,False,right,0.25011,0.2742,0.6575,0.3832,1.2661,2.1329,0.8668,A,0.12,HH3
13,0.50022,0.1,2,0.24177,0.33348,0.59193,13,2.61782,0.9,0.4502,0.95042,5,lapse_rate,2.0,True,0.227,0,False,right,0.0,1.3311,2.3398,1.0087,0.181,0.7984,0.6174,A,0.12,HH3
14,0.50022,0.1,1,0.4502,0.32515,0.78368,14,2.32604,-0.46,-0.23344,0.26679,5,1D2U,2.0,True,0.447,0,False,right,-0.16674,0.3876,0.771,0.3835,1.58,2.0288,0.4488,A,0.12,HH3
15,0.50022,0.1,2,0.24177,0.37517,0.81703,15,2.36772,-0.14,-0.0667,0.43353,5,2D1U,1.0,True,0.229,0,False,left,0.25011,1.682,2.1736,0.4916,0.0566,0.9237,0.8671,A,0.12,HH3
16,0.50022,0.1,1,0.30013,0.28346,0.44186,16,2.47609,0.9,0.4502,0.95042,5,lapse_rate,1.0,True,0.257,0,False,left,0.0,0.2392,1.3064,1.0672,1.6895,2.3062,0.6167,A,0.12,HH3
17,0.50022,1.2,2,0.31681,0.31681,0.60861,17,2.09261,-0.3,-0.15007,0.35016,5,1D2U,1.0,True,0.245,0,False,left,-0.16674,1.3312,1.6473,0.3161,0.4226,0.6978,0.2751,A,-0.06,HH3
18,0.50022,1.2,1,0.33348,0.42519,0.64195,18,2.4094,0.02,0.00834,0.50856,5,2D1U,2.0,False,0.647,0,False,right,0.25011,0.3589,0.8088,0.4498,1.351,2.043,0.6919,A,-0.06,HH3
19,0.50022,0.1,2,0.43353,0.35849,0.86705,19,2.26767,-0.78,-0.39184,0.10838,5,lapse_rate,1.0,True,0.273,0,False,left,0.0,1.7987,1.9649,0.1662,0.3731,0.9904,0.6173,A,0.12,HH3
20,0.50022,1.2,1,0.25011,0.37517,0.742,20,2.21766,-0.3,-0.15007,0.35016,5,1D2U,2.0,True,1.375,0,False,right,-0.16674,0.2724,0.5634,0.291,1.4146,1.6895,0.2749,A,-0.06,HH3
21,0.50022,0.1,1,0.37517,0.42519,0.60861,21,2.50112,0.18,0.09171,0.59193,5,2D1U,1.0,True,0.209,0,False,left,0.25011,0.3143,1.0215,0.7073,1.4472,2.3142,0.867,A,0.12,HH3
22,0.50022,1.2,1,0.21676,0.23344,0.83371,22,1.89251,-0.78,-0.39184,0.10838,5,lapse_rate,2.0,True,0.247,0,False,right,0.0,0.2444,0.2948,0.0503,1.1531,1.5949,0.4418,A,-0.06,HH3
23,0.50022,0.1,1,0.21676,0.4502,0.46688,23,2.06759,-0.14,-0.0667,0.43353,5,1D2U,2.0,True,0.379,0,False,right,-0.16674,0.1614,0.7113,0.5499,1.2027,1.6526,0.4499,A,0.12,HH3
24,0.50022,1.2,2,0.25011,0.21676,0.86705,24,2.78456,0.9,0.4502,0.95042,5,lapse_rate,2.0,True,0.268,0,False,right,0.25011,1.7324,2.6486,0.9162,0.1493,0.8399,0.6906,A,-0.06,HH3
25,0.50022,0.1,1,0.33348,0.2251,0.72532,25,2.37605,0.18,0.09171,0.59193,5,2D1U,1.0,True,0.342,0,False,left,0.0,0.2787,0.9867,0.7081,1.6528,2.2697,0.6169,A,0.12,HH3
26,0.50022,1.2,1,0.43353,0.24177,0.42519,26,2.03424,-0.14,-0.0667,0.43353,5,1D2U,1.0,False,0.301,0,False,left,-0.16674,0.457,0.8325,0.3756,1.3652,1.6407,0.2754,A,-0.06,HH3
27,0.50022,1.2,1,0.30013,0.27512,0.83371,27,2.8596,0.9,0.4502,0.95042,5,lapse_rate,1.0,True,0.272,0,False,left,0.25011,0.3237,1.2154,0.8918,1.9489,2.641,0.6921,A,-0.06,HH3
28,0.50022,1.2,1,0.40852,0.40018,0.68364,28,2.54281,0.1,0.05002,0.55025,5,2D1U,1.0,True,0.154,1,True,left,0.0,0.4344,0.9265,0.4921,1.6339,2.0764,0.4425,A,-0.06,HH3
29,0.50022,1.2,1,0.37517,0.20843,0.65029,29,2.28436,0.1,0.05002,0.55025,5,2D1U,1.0,True,0.234,1,True,left,-0.16674,0.4031,0.8946,0.4915,1.6529,1.9281,0.2753,A,-0.06,HH3
30,0.50022,0.1,2,0.37517,0.34182,0.87539,30,3.04302,0.9,0.4502,0.95042,5,lapse_rate,2.0,True,0.235,0,False,right,0.25011,1.8741,2.8825,1.0084,0.1899,1.0573,0.8674,A,0.12,HH3
31,0.50022,0.1,2,0.37517,0.42519,0.63362,31,2.32604,-0.22,-0.10838,0.39184,5,1D2U,1.0,True,0.164,1,True,left,0.0,1.5086,1.9586,0.45,0.3166,0.9337,0.6171,A,0.12,HH3
32,0.50022,0.1,2,0.37517,0.2251,0.5169,32,2.00923,-0.22,-0.10838,0.39184,5,1D2U,1.0,True,0.243,1,True,left,-0.16674,1.3097,1.7603,0.4507,0.4022,0.8521,0.4499,A,0.12,HH3
33,0.50022,1.2,1,0.3835,0.31681,0.83371,33,2.14262,-0.78,-0.39184,0.10838,5,lapse_rate,2.0,True,0.234,0,False,right,0.25011,0.4067,0.4568,0.0501,1.1901,1.8817,0.6916,A,-0.06,HH3
34,0.50022,0.1,1,0.27512,0.44186,0.40018,34,2.12594,0.02,0.00834,0.50856,5,2D1U,1.0,True,0.165,1,False,left,0.0,0.2211,0.8455,0.6243,1.1876,1.8044,0.6167,A,0.12,HH3
35,0.50022,1.2,1,0.28346,0.30013,0.46688,35,2.05925,0.02,0.00834,0.50856,5,2D1U,1.0,True,0.216,1,False,left,-0.16674,0.3072,0.7574,0.4501,1.3324,1.6071,0.2746,A,-0.06,HH3
36,0.50022,1.2,2,0.30847,0.26679,0.50022,36,1.98422,-0.18,-0.09171,0.40852,5,1D2U,1.0,True,0.255,2,True,left,0.25011,1.4257,1.8003,0.3747,0.2094,0.901,0.6916,A,-0.06,HH3
37,0.50022,0.1,2,0.21676,0.34182,0.4502,37,2.45942,0.9,0.4502,0.95042,5,lapse_rate,2.0,True,0.197,0,False,right,0.0,1.163,2.1714,1.0084,0.1553,0.7713,0.616,A,0.12,HH3
38,0.50022,1.2,2,0.20009,0.20009,0.40852,38,1.7758,-0.06,-0.03335,0.46688,5,2D1U,2.0,False,0.579,1,False,right,-0.16674,1.0155,1.448,0.4325,0.3076,0.5816,0.274,A,-0.06,HH3
39,0.50022,0.1,2,0.3835,0.35849,0.70865,39,2.35938,-0.18,-0.09171,0.40852,5,1D2U,1.0,True,0.236,2,True,left,0.25011,1.7114,2.1788,0.4674,0.1956,1.0624,0.8668,A,0.12,HH3
40,0.50022,1.2,2,0.2251,0.2918,0.63362,40,2.60116,0.9,0.4502,0.95042,5,lapse_rate,2.0,True,0.25,0,False,right,0.0,1.3464,2.2621,0.9158,0.245,0.6869,0.4419,A,-0.06,HH3
41,0.50022,0.1,1,0.2918,0.36683,0.70031,41,1.96754,-0.78,-0.39184,0.10838,5,lapse_rate,2.0,True,0.247,0,False,right,-0.16674,0.2342,0.4599,0.2256,1.1847,1.6343,0.4496,A,0.12,HH3
42,0.50022,0.1,1,0.23344,0.36683,0.62528,42,2.19265,-0.06,-0.03335,0.46688,5,2D1U,2.0,True,0.256,1,False,right,0.25011,0.1728,0.7556,0.5828,1.1985,2.066,0.8675,A,0.12,HH3
43,0.50022,0.1,2,0.34182,0.40852,0.41685,43,2.10094,-0.14,-0.0667,0.43353,5,1D2U,1.0,True,0.164,2,False,left,0.0,1.2594,1.7511,0.4917,0.2845,0.9009,0.6163,A,0.12,HH3
44,0.50022,1.2,2,0.2918,0.25011,0.87539,44,2.35105,-0.14,-0.0667,0.43353,5,1D2U,1.0,True,0.625,2,False,left,-0.16674,1.5758,1.9763,0.4005,0.4016,0.6759,0.2743,A,-0.06,HH3
45,0.50022,1.2,1,0.20843,0.21676,0.60861,45,1.6424,-0.78,-0.39184,0.10838,5,lapse_rate,2.0,True,0.326,0,False,right,0.25011,0.2311,0.2809,0.0498,0.7903,1.4816,0.6913,A,-0.06,HH3
46,0.50022,1.2,2,0.30013,0.35016,0.81703,46,2.45943,-0.02,-0.00834,0.49189,5,2D1U,2.0,False,0.228,2,True,right,0.0,1.6106,2.0692,0.4586,0.3275,0.7687,0.4411,A,-0.06,HH3
47,0.50022,1.2,2,0.28346,0.21676,0.59193,47,2.04257,-0.1,-0.05002,0.4502,5,1D2U,2.0,False,0.332,2,False,right,-0.16674,1.2847,1.702,0.4173,0.3937,0.6681,0.2744,A,-0.06,HH3
48,0.50022,0.1,2,0.2918,0.26679,0.80869,48,1.97588,-0.78,-0.39184,0.10838,5,lapse_rate,1.0,True,0.33,0,False,left,0.25011,1.7259,1.8919,0.166,0.1085,0.9757,0.8672,A,0.12,HH3
49,0.50022,0.1,1,0.31681,0.25845,0.4502,49,2.01757,-0.02,-0.00834,0.49189,5,2D1U,1.0,False,0.257,2,True,left,0.0,0.2601,0.8685,0.6085,1.2606,1.8771,0.6165,A,0.12,HH3
50,0.50022,0.1,1,0.35016,0.43353,0.56692,50,2.28436,-0.14,-0.0667,0.43353,5,1D2U,2.0,True,0.33,3,True,right,-0.16674,0.2925,0.843,0.5505,1.4351,1.8847,0.4497,A,0.12,HH3
51,0.50022,1.2,1,0.32515,0.25011,0.49189,51,2.51779,0.9,0.4502,0.95042,5,lapse_rate,1.0,True,0.271,0,False,left,0.25011,0.3528,1.2454,0.8926,1.637,2.3287,0.6917,A,-0.06,HH3
52,0.50022,0.1,1,0.2918,0.31681,0.70031,52,2.27602,-0.06,-0.03335,0.46688,5,2D1U,2.0,True,0.249,3,True,right,0.0,0.2351,0.8182,0.5831,1.4605,2.0766,0.6161,A,0.12,HH3
53,0.50022,1.2,1,0.34182,0.27512,0.85872,53,2.40941,-0.14,-0.0667,0.43353,5,1D2U,1.0,False,0.246,3,True,left,-0.16674,0.3634,0.7388,0.3754,1.7059,1.9807,0.2748,A,-0.06,HH3
54,0.50022,1.2,2,0.44186,0.41685,0.48355,54,2.33437,-0.02,-0.00834,0.49189,5,2D1U,1.0,True,0.159,4,True,left,0.25011,1.5431,2.002,0.4589,0.3437,1.0352,0.6915,A,-0.06,HH3
55,0.50022,1.2,2,0.2251,0.24177,0.44186,55,2.35937,0.9,0.4502,0.95042,5,lapse_rate,2.0,True,0.243,0,False,right,0.0,1.1594,2.0752,0.9158,0.2506,0.6913,0.4407,A,-0.06,HH3
56,0.50022,1.2,2,0.42519,0.40852,0.87539,56,2.3177,-0.78,-0.39184,0.10838,5,lapse_rate,1.0,True,0.215,0,False,left,-0.16674,1.7047,1.7798,0.075,0.5299,0.8048,0.2749,A,-0.06,HH3
57,0.50022,1.2,2,0.35016,0.36683,0.73366,57,2.35939,-0.18,-0.09171,0.40852,5,1D2U,1.0,True,0.189,3,False,left,0.25011,1.7021,2.0759,0.3738,0.2513,0.9434,0.6921,A,-0.06,HH3
58,0.50022,0.1,1,0.39184,0.2918,0.80036,58,2.49278,0.02,0.00834,0.50856,5,2D1U,2.0,False,0.264,4,False,right,0.0,0.3298,0.9551,0.6253,1.6969,2.3132,0.6163,A,0.12,HH3
59,0.50022,0.1,2,0.25011,0.36683,0.80869,59,2.45942,0.06,0.03335,0.53357,5,2D1U,2.0,True,0.185,4,False,right,-0.16674,1.4737,2.0651,0.5914,0.274,0.7231,0.4491,A,0.12,HH3
60,0.50022,0.1,2,0.30013,0.42519,0.50022,60,2.67618,0.9,0.4502,0.95042,5,lapse_rate,2.0,True,0.153,0,False,right,0.25011,1.424,2.4328,1.0087,0.1157,0.9824,0.8668,A,0.12,HH3
61,0.50022,0.1,1,0.3835,0.39184,0.82537,61,2.50945,-0.18,-0.09171,0.40852,5,1D2U,2.0,True,0.406,3,False,right,0.0,0.3225,0.8469,0.5244,1.6139,2.231,0.6171,A,0.12,HH3
62,0.50022,0.1,1,0.35016,0.39184,0.40018,62,1.75078,-0.78,-0.39184,0.10838,5,lapse_rate,2.0,True,0.192,0,False,right,-0.16674,0.2896,0.5151,0.2254,0.9404,1.3905,0.4501,A,0.12,HH3
63,0.50022,1.2,1,0.24177,0.42519,0.73366,63,2.43441,0.06,0.03335,0.53357,5,2D1U,2.0,False,0.217,4,False,right,0.25011,0.2694,0.7436,0.4742,1.3777,2.0695,0.6918,A,-0.06,HH3
64,0.50022,1.2,1,0.21676,0.21676,0.70031,64,2.06758,-0.14,-0.0667,0.43353,5,1D2U,1.0,False,0.304,4,True,left,0.0,0.2441,0.6189,0.3748,1.3443,1.7853,0.441,A,-0.06,HH3
65,0.50022,1.2,1,0.43353,0.27512,0.70031,65,2.45943,0.1,0.05002,0.55025,5,2D1U,1.0,True,0.256,4,False,left,-0.16674,0.4552,0.9461,0.4909,1.7548,2.0311,0.2763,A,-0.06,HH3
66,0.50022,0.1,1,0.2251,0.35849,0.85038,66,2.34271,-0.18,-0.09171,0.40852,5,1D2U,2.0,True,0.326,5,True,right,0.25011,0.1683,0.6931,0.5249,1.3604,2.2271,0.8667,A,0.12,HH3
67,0.50022,0.1,2,0.21676,0.25845,0.70865,67,1.79246,-0.78,-0.39184,0.10838,5,lapse_rate,1.0,True,0.295,0,False,left,0.0,1.4224,1.5895,0.1671,0.1562,0.7725,0.6163,A,0.12,HH3
68,0.50022,1.2,2,0.33348,0.33348,0.9004,68,3.018,0.9,0.4502,0.95042,5,lapse_rate,2.0,True,0.232,0,False,right,-0.16674,1.641,2.5584,0.9174,0.4421,0.7173,0.2752,A,-0.06,HH3
69,0.50022,0.1,1,0.2918,0.28346,0.43353,69,1.91753,-0.18,-0.09171,0.40852,5,1D2U,2.0,True,0.312,5,True,right,0.25011,0.2356,0.7614,0.5258,1.012,1.8778,0.8658,A,0.12,HH3
70,0.50022,0.1,1,0.43353,0.24177,0.75034,70,2.47611,0.1,0.05002,0.55025,5,2D1U,1.0,True,0.288,4,False,left,0.0,0.3777,1.0446,0.6669,1.7357,2.352,0.6163,A,0.12,HH3
71,0.50022,0.1,2,0.40852,0.20843,0.9004,71,2.12595,-0.78,-0.39184,0.10838,5,lapse_rate,1.0,True,0.3,0,False,left,-0.16674,1.7237,1.891,0.1673,0.4323,0.8818,0.4495,A,0.12,HH3
72,0.50022,1.2,2,0.4502,0.39184,0.40018,72,2.27601,0.06,0.03335,0.53357,5,2D1U,1.0,False,0.25,5,True,left,0.25011,1.4691,1.9701,0.501,0.3535,1.0445,0.691,A,-0.06,HH3
73,0.50022,1.2,2,0.21676,0.37517,0.58359,73,2.10927,-0.14,-0.0667,0.43353,5,1D2U,1.0,True,0.249,6,True,left,0.0,1.288,1.688,0.4,0.2381,0.6798,0.4418,A,-0.06,HH3
74,0.50022,1.2,2,0.23344,0.30013,0.63362,74,2.21766,0.1,0.05002,0.55025,5,2D1U,2.0,True,0.244,6,True,right,-0.16674,1.2777,1.7953,0.5176,0.3449,0.6201,0.2752,A,-0.06,HH3
75,0.50022,0.1,1,0.44186,0.24177,0.45854,75,2.59281,0.9,0.4502,0.95042,5,lapse_rate,1.0,True,0.238,0,False,left,0.25011,0.3863,1.4526,1.0663,1.7274,2.5941,0.8667,A,0.12,HH3
76,0.50022,0.1,1,0.32515,0.42519,0.60027,76,2.28436,-0.14,-0.0667,0.43353,5,1D2U,2.0,True,0.303,6,True,right,0.0,0.2627,0.8128,0.5502,1.3544,1.9712,0.6168,A,0.12,HH3
77,0.50022,0.1,1,0.34182,0.24177,0.87539,77,2.90962,0.9,0.4502,0.95042,5,lapse_rate,1.0,True,0.244,0,False,left,-0.16674,0.2852,1.3524,1.0672,2.252,2.7017,0.4497,A,0.12,HH3
78,0.50022,0.1,2,0.44186,0.32515,0.84204,78,2.65952,0.1,0.05002,0.55025,5,2D1U,2.0,True,0.472,6,True,right,0.25011,1.9098,2.518,0.6083,0.2604,1.1271,0.8667,A,0.12,HH3
79,0.50022,0.1,1,0.40852,0.41685,0.76701,79,2.5428,-0.1,-0.05002,0.4502,5,1D2U,2.0,True,0.288,6,False,right,0.0,0.3495,0.9163,0.5668,1.6244,2.2416,0.6171,A,0.12,HH3
80,0.50022,1.2,2,0.28346,0.20009,0.47521,80,1.56736,-0.78,-0.39184,0.10838,5,lapse_rate,1.0,True,0.329,0,False,left,-0.16674,1.1624,1.2376,0.0752,0.3879,0.663,0.275,A,-0.06,HH3
81,0.50022,1.2,2,0.30847,0.20009,0.50022,81,2.04257,0.06,0.03335,0.53357,5,2D1U,2.0,True,0.375,7,True,right,0.25011,1.4212,1.922,0.5008,0.2054,0.8966,0.6912,A,-0.06,HH3
82,0.50022,1.2,1,0.43353,0.28346,0.64195,82,2.30936,-0.1,-0.05002,0.4502,5,1D2U,1.0,False,0.268,6,False,left,0.0,0.4552,0.8471,0.3919,1.5136,1.9549,0.4413,A,-0.06,HH3
83,0.50022,1.2,2,0.40018,0.39184,0.48355,83,2.20932,-0.14,-0.0667,0.43353,5,1D2U,1.0,True,0.26,7,True,left,-0.16674,1.2928,1.693,0.4002,0.5096,0.7847,0.275,A,-0.06,HH3
84,0.50022,0.1,2,0.30013,0.20843,0.88373,84,2.42608,0.06,0.03335,0.53357,5,2D1U,1.0,False,0.412,7,True,left,0.25011,1.8048,2.3962,0.5914,0.1128,0.9798,0.867,A,0.12,HH3
85,0.50022,0.1,2,0.20009,0.28346,0.71699,85,1.80914,-0.78,-0.39184,0.10838,5,lapse_rate,1.0,True,0.201,0,False,left,0.0,1.4185,1.5846,0.1661,0.1419,0.7593,0.6174,A,0.12,HH3
86,0.50022,0.1,2,0.35849,0.36683,0.83371,86,2.49278,-0.14,-0.0667,0.43353,5,1D2U,2.0,False,0.209,7,True,right,-0.16674,1.6049,2.0973,0.4924,0.3799,0.8301,0.4502,A,0.12,HH3
87,0.50022,0.1,1,0.35016,0.2251,0.52523,87,2.15096,0.1,0.05002,0.55025,5,2D1U,1.0,True,0.28,8,True,left,0.25011,0.2892,0.9565,0.6673,1.2981,999.0,997.7019,A,0.12,HH3
88,0.50022,1.2,2,0.30847,0.32515,0.43353,88,1.67575,-0.78,-0.39184,0.10838,5,lapse_rate,1.0,True,0.221,0,False,left,0.0,1.2289,1.3047,0.0758,0.3298,0.771,0.4412,A,-0.06,HH3
89,0.50022,1.2,2,0.30013,0.31681,0.66696,89,1.8925,-0.78,-0.39184,0.10838,5,lapse_rate,1.0,True,0.198,0,False,left,-0.16674,1.3715,1.4466,0.0751,0.4049,0.68,0.2751,A,-0.06,HH3
90,0.50022,1.2,1,0.2918,0.42519,0.70865,90,2.33438,-0.18,-0.09171,0.40852,5,1D2U,2.0,True,0.573,7,False,right,0.25011,0.312,0.6612,0.3492,1.2703,1.9619,0.6916,A,-0.06,HH3
91,0.50022,1.2,1,0.26679,0.39184,0.87539,91,2.58449,0.1,0.05002,0.55025,5,2D1U,2.0,False,0.232,8,True,right,0.0,0.2865,0.7784,0.4919,1.6784,2.12,0.4417,A,-0.06,HH3
92,0.50022,1.2,2,0.37517,0.20009,0.41685,92,1.90085,-0.18,-0.09171,0.40852,5,1D2U,1.0,True,0.309,7,False,left,-0.16674,1.1995,1.5737,0.3742,0.4829,0.7579,0.275,A,-0.06,HH3
93,0.50022,0.1,2,0.25011,0.40018,0.6753,93,2.39273,0.14,0.0667,0.56692,5,2D1U,2.0,True,0.113,8,False,right,0.25011,1.5484,2.1738,0.6254,0.0649,0.9318,0.8669,A,0.12,HH3
94,0.50022,0.1,2,0.33348,0.39184,0.82537,94,3.00133,0.9,0.4502,0.95042,5,lapse_rate,2.0,True,0.134,0,False,right,0.0,1.6603,2.6693,1.0089,0.2773,0.8931,0.6158,A,0.12,HH3
95,0.50022,1.2,2,0.21676,0.20009,0.76701,95,1.79246,-0.78,-0.39184,0.10838,5,lapse_rate,1.0,True,0.274,0,False,left,-0.16674,1.3892,1.4644,0.0752,0.3232,0.5971,0.2739,A,-0.06,HH3
96,0.50022,0.1,2,0.42519,0.25845,0.79202,96,2.5428,0.14,0.0667,0.56692,5,2D1U,2.0,True,0.298,8,False,right,0.25011,1.8367,2.4622,0.6255,0.2378,1.1037,0.8659,A,0.12,HH3
97,0.50022,0.1,2,0.43353,0.40852,0.62528,97,2.40108,-0.14,-0.0667,0.43353,5,1D2U,1.0,True,0.158,8,True,left,0.0,1.5594,2.0511,0.4917,0.3762,0.993,0.6168,A,0.12,HH3
98,0.50022,1.2,1,0.2918,0.33348,0.82537,98,2.50112,0.1,0.05002,0.55025,5,2D1U,1.0,True,0.167,9,True,left,-0.16674,0.3156,0.8069,0.4913,1.7402,2.0153,0.275,A,-0.06,HH3
99,0.50022,1.2,2,0.30013,0.39184,0.40852,99,2.03424,-0.14,-0.0667,0.43353,5,1D2U,1.0,True,0.303,8,True,left,0.25011,1.3221,1.7218,0.3997,0.1968,0.8884,0.6916,A,-0.06,HH3
100,0.50022,0.1,2,0.44186,0.36683,0.69198,100,2.95131,0.9,0.4502,0.95042,5,lapse_rate,2.0,True,0.125,0,False,right,0.0,1.6313,2.6396,1.0083,0.3821,0.998,0.6159,A,0.12,HH3
101,0.50022,1.2,1,0.2251,0.3835,0.59193,101,2.65117,0.9,0.4502,0.95042,5,lapse_rate,1.0,True,0.222,0,False,left,-0.16674,0.2479,1.1391,0.8912,1.8398,2.1146,0.2748,A,-0.06,HH3
102,0.50022,1.2,2,0.41685,0.24177,0.78368,102,2.39272,-0.1,-0.05002,0.4502,5,1D2U,1.0,True,0.347,8,False,left,0.25011,1.8139,2.2308,0.4169,0.3142,1.0056,0.6914,A,-0.06,HH3
103,0.50022,0.1,1,0.35849,0.40852,0.55025,103,2.36773,0.1,0.05002,0.55025,5,2D1U,1.0,True,0.258,9,True,left,0.0,0.2985,0.9653,0.6668,1.4564,2.0727,0.6162,A,0.12,HH3
104,0.50022,1.2,1,0.26679,0.42519,0.52523,104,2.66785,0.9,0.4502,0.95042,5,lapse_rate,1.0,True,0.273,0,False,left,-0.16674,0.2893,1.1819,0.8927,1.8146,2.0892,0.2746,A,-0.06,HH3
105,0.50022,0.1,2,0.40852,0.28346,0.55025,105,2.27602,0.06,0.03335,0.53357,5,2D1U,2.0,True,0.268,9,False,right,0.25011,1.5824,2.1732,0.5908,0.224,1.0899,0.8659,A,0.12,HH3
106,0.50022,0.1,2,0.3835,0.23344,0.83371,106,2.40107,-0.1,-0.05002,0.4502,5,1D2U,1.0,True,0.28,8,False,left,0.0,1.7186,2.2267,0.5081,0.3262,0.9432,0.6171,A,0.12,HH3
107,0.50022,1.2,2,0.21676,0.44186,0.4502,107,2.07592,-0.06,-0.03335,0.46688,5,1D2U,2.0,False,0.4,8,False,right,-0.16674,1.0754,1.509,0.4336,0.3251,0.6007,0.2756,A,-0.06,HH3
108,0.50022,1.2,1,0.28346,0.25011,0.66696,108,2.23432,0.06,0.03335,0.53357,5,2D1U,1.0,True,0.274,9,False,left,0.25011,0.3074,0.7824,0.4751,1.349,2.0398,0.6908,A,-0.06,HH3
109,0.50022,1.2,2,0.26679,0.27512,0.56692,109,1.71743,-0.78,-0.39184,0.10838,5,lapse_rate,1.0,True,0.294,0,False,left,0.0,1.3278,1.4025,0.0747,0.2954,0.7356,0.4402,A,-0.06,HH3
110,0.50022,1.2,2,0.34182,0.41685,0.53357,110,2.30102,0.02,0.00834,0.50856,5,2D1U,2.0,True,0.167,9,False,right,-0.16674,1.2816,1.7568,0.4752,0.4486,0.7234,0.2747,A,-0.06,HH3
111,0.50022,1.2,1,0.30013,0.2251,0.56692,111,2.54279,0.9,0.4502,0.95042,5,lapse_rate,1.0,True,0.274,0,False,left,0.25011,0.3227,1.215,0.8922,1.6813,2.3734,0.6921,A,-0.06,HH3
112,0.50022,0.1,1,0.40852,0.23344,0.52523,112,2.11761,-0.1,-0.05002,0.4502,5,1D2U,1.0,False,0.383,9,True,left,0.0,0.3521,0.9184,0.5662,1.3851,2.0016,0.6164,A,0.12,HH3
113,0.50022,0.1,1,0.2251,0.27512,0.76701,113,2.20098,-0.14,-0.0667,0.43353,5,1D2U,2.0,True,0.367,9,False,right,-0.16674,0.1633,0.714,0.5507,1.5057,1.9553,0.4496,A,0.12,HH3
114,0.50022,1.2,2,0.41685,0.23344,0.70031,114,1.9592,-0.78,-0.39184,0.10838,5,lapse_rate,1.0,True,0.407,0,False,left,0.25011,1.7317,1.8061,0.0744,0.3151,1.0065,0.6914,A,-0.06,HH3
115,0.50022,0.1,1,0.26679,0.34182,0.56692,115,2.18431,0.02,0.00834,0.50856,5,2D1U,2.0,False,0.35,9,False,right,0.0,0.2081,0.8326,0.6245,1.3418,1.9581,0.6163,A,0.12,HH3
116,0.50022,1.2,1,0.30013,0.35849,0.5169,116,2.20931,0.06,0.03335,0.53357,5,2D1U,1.0,True,0.209,10,True,left,-0.16674,0.3275,0.8035,0.476,1.4279,1.7028,0.2749,A,-0.06,HH3
117,0.50022,1.2,2,0.3835,0.25845,0.72532,117,2.30102,-0.14,-0.0667,0.43353,5,1D2U,1.0,True,0.334,9,False,left,0.25011,1.7262,2.1259,0.3997,0.2846,0.9763,0.6917,A,-0.06,HH3
118,0.50022,1.2,2,0.25011,0.26679,0.73366,118,2.7012,0.9,0.4502,0.95042,5,lapse_rate,2.0,True,0.234,0,False,right,0.0,1.4726,2.3892,0.9166,0.2729,0.7145,0.4416,A,-0.06,HH3
119,0.50022,1.2,2,0.25011,0.44186,0.73366,119,2.45942,0.06,0.03335,0.53357,5,2D1U,2.0,True,0.298,10,True,right,-0.16674,1.3938,1.8937,0.5,0.3601,0.6345,0.2743,A,-0.06,HH3
120,0.50022,0.1,2,0.26679,0.32515,0.66696,120,2.20932,-0.1,-0.05002,0.4502,5,1D2U,1.0,True,0.202,10,True,left,0.25011,1.5599,2.0672,0.5074,0.0844,0.9504,0.866,A,0.12,HH3
121,0.50022,1.2,2,0.30013,0.36683,0.64195,121,1.91751,-0.78,-0.39184,0.10838,5,lapse_rate,1.0,True,0.219,0,False,left,0.0,1.4301,1.504,0.0739,0.3212,0.7628,0.4417,A,-0.06,HH3
122,0.50022,0.1,1,0.35849,0.23344,0.70031,122,2.30102,0.02,0.00834,0.50856,5,2D1U,2.0,False,0.566,11,True,right,-0.16674,0.3014,0.9264,0.625,1.6512,2.1006,0.4494,A,0.12,HH3
123,0.50022,0.1,2,0.20843,0.44186,0.70031,123,1.9592,-0.78,-0.39184,0.10838,5,lapse_rate,1.0,True,0.215,0,False,left,0.25011,1.5373,1.7037,0.1664,0.029,0.895,0.866,A,0.12,HH3
124,0.50022,0.1,2,0.34182,0.42519,0.87539,124,2.59282,-0.1,-0.05002,0.4502,5,1D2U,2.0,False,0.159,10,True,right,0.0,1.7142,2.2225,0.5083,0.281,0.8973,0.6163,A,0.12,HH3
125,0.50022,1.2,2,0.20843,0.2251,0.86705,125,2.33437,0.06,0.03335,0.53357,5,2D1U,2.0,True,0.251,12,True,right,-0.16674,1.4806,1.9802,0.4996,0.3141,0.5896,0.2754,A,-0.06,HH3
126,0.50022,0.1,2,0.30847,0.32515,0.61694,126,2.7012,0.9,0.4502,0.95042,5,lapse_rate,2.0,True,0.19,0,False,right,0.25011,1.5522,2.5607,1.0085,0.1269,0.9937,0.8668,A,0.12,HH3
127,0.50022,1.2,2,0.40018,0.35849,0.52523,127,2.21765,-0.14,-0.0667,0.43353,5,1D2U,2.0,False,0.368,11,True,right,0.0,1.4158,1.8168,0.401,0.4247,0.8665,0.4417,A,-0.06,HH3
128,0.50022,1.2,1,0.40018,0.25845,0.49189,128,2.18431,0.06,0.03335,0.53357,5,2D1U,1.0,True,0.195,12,True,left,-0.16674,0.424,0.8991,0.4751,1.4989,1.774,0.2752,A,-0.06,HH3
129,0.50022,0.1,2,0.32515,0.2918,0.62528,129,2.69287,0.9,0.4502,0.95042,5,lapse_rate,2.0,True,0.131,0,False,right,0.25011,1.5738,2.5815,1.0077,0.1401,1.0065,0.8663,A,0.12,HH3
130,0.50022,0.1,1,0.42519,0.2251,0.61694,130,2.17597,-0.18,-0.09171,0.40852,5,1D2U,2.0,True,0.312,11,False,right,0.0,0.3647,0.89,0.5253,1.4496,2.0658,0.6162,A,0.12,HH3
131,0.50022,0.1,2,0.26679,0.24177,0.70865,131,2.12595,-0.18,-0.09171,0.40852,5,1D2U,2.0,False,0.566,11,False,right,-0.16674,1.3907,1.857,0.4663,0.2896,0.7396,0.4501,A,0.12,HH3
132,0.50022,1.2,1,0.40852,0.30847,0.54191,132,1.8675,-0.78,-0.39184,0.10838,5,lapse_rate,2.0,True,0.185,0,False,right,0.25011,0.4348,0.4853,0.0505,0.9262,1.6183,0.6921,A,-0.06,HH3
133,0.50022,0.1,1,0.30847,0.26679,0.76701,133,2.35105,0.02,0.00834,0.50856,5,2D1U,2.0,False,0.251,13,True,right,0.0,0.2471,0.8718,0.6246,1.5808,2.1972,0.6164,A,0.12,HH3
134,0.50022,1.2,2,0.34182,0.44186,0.75867,134,2.57614,0.06,0.03335,0.53357,5,2D1U,2.0,True,0.113,14,True,right,-0.16674,1.5053,2.0052,0.5,0.4475,0.7223,0.2748,A,-0.06,HH3
135,0.50022,1.2,1,0.24177,0.40018,0.88373,135,2.41774,-0.22,-0.10838,0.39184,5,1D2U,2.0,True,0.213,11,False,right,0.25011,0.263,0.5962,0.3332,1.3797,2.0715,0.6918,A,-0.06,HH3
136,0.50022,0.1,2,0.23344,0.20843,0.57526,136,2.46777,0.9,0.4502,0.95042,5,lapse_rate,2.0,True,0.217,0,False,right,0.0,1.3054,2.3133,1.0078,0.1716,0.7884,0.6168,A,0.12,HH3
137,0.50022,1.2,2,0.34182,0.20009,0.60861,137,2.04258,-0.22,-0.10838,0.39184,5,1D2U,2.0,False,0.544,11,False,right,-0.16674,1.354,1.712,0.358,0.446,0.7203,0.2743,A,-0.06,HH3
138,0.50022,0.1,1,0.20843,0.39184,0.71699,138,2.35105,0.06,0.03335,0.53357,5,2D1U,2.0,False,0.197,14,True,right,0.25011,0.1461,0.7961,0.65,1.3288,2.1962,0.8674,A,0.12,HH3
139,0.50022,1.2,2,0.32515,0.36683,0.61694,139,1.91752,-0.78,-0.39184,0.10838,5,lapse_rate,1.0,True,0.224,0,False,left,0.0,1.4302,1.5055,0.0753,0.3468,0.788,0.4412,A,-0.06,HH3
140,0.50022,0.1,2,0.43353,0.31681,0.50022,140,2.30103,0.1,0.05002,0.55025,5,2D1U,1.0,False,0.25,14,False,left,-0.16674,1.3479,1.9561,0.6081,0.4561,0.9056,0.4495,A,0.12,HH3
141,0.50022,0.1,2,0.34182,0.35849,0.41685,141,1.98421,-0.26,-0.13339,0.36683,5,1D2U,1.0,True,0.208,11,False,left,0.25011,1.3844,1.8103,0.426,0.1603,1.0272,0.8668,A,0.12,HH3
142,0.50022,0.1,1,0.41685,0.40018,0.52523,142,1.95086,-0.78,-0.39184,0.10838,5,lapse_rate,2.0,True,0.133,0,False,right,0.0,0.3547,0.5787,0.2241,1.0446,1.662,0.6174,A,0.12,HH3
143,0.50022,1.2,2,0.40852,0.21676,0.44186,143,1.93419,-0.26,-0.13339,0.36683,5,1D2U,1.0,True,0.254,11,False,left,-0.16674,1.256,1.5893,0.3333,0.5151,0.7892,0.2741,A,-0.06,HH3
144,0.50022,1.2,2,0.36683,0.25011,0.57526,144,2.25934,0.14,0.0667,0.56692,5,2D1U,2.0,True,0.281,14,False,right,0.25011,1.5598,2.093,0.5332,0.2683,0.9598,0.6915,A,-0.06,HH3
145,0.50022,0.1,1,0.37517,0.35016,0.5169,145,2.69287,0.9,0.4502,0.95042,5,lapse_rate,1.0,True,0.208,0,False,left,0.0,0.3185,1.3841,1.0656,1.8424,2.4591,0.6167,A,0.12,HH3
146,0.50022,1.2,1,0.20843,0.20009,0.76701,146,2.24267,0.14,0.0667,0.56692,5,2D1U,1.0,True,0.266,14,False,left,-0.16674,0.2362,0.7446,0.5084,1.6196,1.8944,0.2748,A,-0.06,HH3
147,0.50022,1.2,1,0.3835,0.39184,0.61694,147,2.00088,-0.78,-0.39184,0.10838,5,lapse_rate,2.0,True,0.199,0,False,right,0.25011,0.4053,0.4564,0.0511,0.9729,1.664,0.6911,A,-0.06,HH3
148,0.50022,0.1,1,0.25845,0.3835,0.9004,148,2.43441,-0.22,-0.10838,0.39184,5,1D2U,2.0,True,0.109,12,True,right,0.0,0.1985,0.7064,0.5079,1.5487,2.1644,0.6157,A,0.12,HH3
149,0.50022,0.1,1,0.40852,0.37517,0.89207,149,2.56782,-0.22,-0.10838,0.39184,5,1D2U,2.0,True,0.239,12,True,right,-0.16674,0.3509,0.8594,0.5085,1.7759,2.2265,0.4506,A,0.12,HH3
150,0.50022,0.1,1,0.25011,0.44186,0.53357,150,2.67618,0.9,0.4502,0.95042,5,lapse_rate,1.0,True,0.113,0,False,left,0.25011,0.1901,1.2565,1.0664,1.6066,2.4734,0.8668,A,0.12,HH3
151,0.50022,0.1,2,0.41685,0.4502,0.69198,151,2.6095,0.1,0.05002,0.55025,5,2D1U,2.0,True,0.209,15,True,right,0.0,1.6078,2.2159,0.6081,0.3586,0.9746,0.616,A,0.12,HH3
152,0.50022,1.2,1,0.4502,0.40852,0.70031,152,2.46777,-0.18,-0.09171,0.40852,5,1D2U,2.0,True,0.207,12,False,right,-0.16674,0.4731,0.8227,0.3496,1.6313,1.9063,0.275,A,-0.06,HH3
153,0.50022,1.2,2,0.3835,0.37517,0.65863,153,2.46777,0.1,0.05002,0.55025,5,2D1U,1.0,False,0.21,15,True,left,0.25011,1.6589,2.1762,0.5173,0.2834,0.975,0.6916,A,-0.06,HH3
154,0.50022,1.2,2,0.35016,0.35016,0.58359,154,1.89251,-0.78,-0.39184,0.10838,5,lapse_rate,1.0,True,0.239,0,False,left,0.0,1.4275,1.5026,0.0751,0.3783,0.8198,0.4416,A,-0.06,HH3
155,0.50022,1.2,2,0.24177,0.30847,0.742,155,2.74288,0.9,0.4502,0.95042,5,lapse_rate,2.0,True,0.237,0,False,right,-0.16674,1.3952,2.3116,0.9164,0.3535,0.628,0.2745,A,-0.06,HH3
156,0.50022,1.2,1,0.2918,0.24177,0.88373,156,2.48444,0.14,0.0667,0.56692,5,2D1U,2.0,False,0.465,16,True,right,0.25011,0.3185,0.8271,0.5086,1.6113,2.3019,0.6906,A,-0.06,HH3
157,0.50022,0.1,2,0.40852,0.26679,0.77535,157,2.3594,-0.18,-0.09171,0.40852,5,1D2U,1.0,True,0.27,12,False,left,0.0,1.6827,2.149,0.4663,0.3488,0.9656,0.6168,A,0.12,HH3
158,0.50022,0.1,2,0.23344,0.34182,0.55025,158,2.21766,0.18,0.09171,0.59193,5,2D1U,2.0,True,0.181,16,False,right,-0.16674,1.1981,1.8472,0.6491,0.2565,0.7063,0.4498,A,0.12,HH3
159,0.50022,1.2,2,0.25011,0.40852,0.68364,159,2.79291,0.9,0.4502,0.95042,5,lapse_rate,2.0,True,0.106,0,False,right,0.25011,1.5534,2.4694,0.916,0.1533,0.8444,0.6911,A,-0.06,HH3
160,0.50022,0.1,1,0.39184,0.41685,0.41685,160,2.15929,-0.14,-0.0667,0.43353,5,1D2U,2.0,True,0.184,12,False,right,0.0,0.3325,0.8831,0.5507,1.2412,1.8576,0.6163,A,0.12,HH3
161,0.50022,1.2,1,0.26679,0.40018,0.76701,161,2.88462,0.9,0.4502,0.95042,5,lapse_rate,1.0,True,0.227,0,False,left,-0.16674,0.2898,1.1817,0.892,2.0566,2.3306,0.274,A,-0.06,HH3
162,0.50022,1.2,1,0.28346,0.35849,0.54191,162,2.11761,-0.14,-0.0667,0.43353,5,1D2U,2.0,True,0.255,12,False,right,0.25011,0.3059,0.6812,0.3753,1.1223,1.8132,0.691,A,-0.06,HH3
163,0.50022,1.2,1,0.28346,0.26679,0.65863,163,2.30103,0.18,0.09171,0.59193,5,2D1U,2.0,False,0.292,16,False,right,0.0,0.304,0.8367,0.5327,1.5211,1.9619,0.4408,A,-0.06,HH3
164,0.50022,1.2,1,0.34182,0.43353,0.59193,164,2.47611,0.22,0.10838,0.60861,5,2D1U,1.0,True,0.112,16,False,left,-0.16674,0.3656,0.9158,0.5502,1.6155,1.8905,0.275,A,-0.06,HH3
165,0.50022,0.1,2,0.20009,0.2251,0.54191,165,1.5757,-0.78,-0.39184,0.10838,5,lapse_rate,1.0,True,0.375,0,False,left,0.25011,1.3632,1.5307,0.1675,0.0133,0.8807,0.8674,A,0.12,HH3
166,0.50022,0.1,1,0.23344,0.21676,0.4502,166,1.85082,-0.1,-0.05002,0.4502,5,1D2U,1.0,False,0.291,12,False,left,0.0,0.172,0.7388,0.5667,1.1302,1.7468,0.6166,A,0.12,HH3
167,0.50022,0.1,1,0.25845,0.36683,0.84204,167,2.40107,-0.14,-0.0667,0.43353,5,1D2U,2.0,True,0.164,13,True,right,-0.16674,0.2022,0.7517,0.5495,1.6188,2.0685,0.4497,A,0.12,HH3
168,0.50022,0.1,2,0.30013,0.34182,0.41685,168,2.16763,0.22,0.10838,0.60861,5,2D1U,2.0,True,0.242,16,False,right,0.25011,1.3394,2.0055,0.6661,0.1143,0.9813,0.867,A,0.12,HH3
169,0.50022,0.1,2,0.33348,0.30013,0.57526,169,1.81747,-0.78,-0.39184,0.10838,5,lapse_rate,1.0,True,0.247,0,False,left,0.0,1.4083,1.5754,0.1671,0.2755,0.8926,0.6171,A,0.12,HH3
170,0.50022,1.2,1,0.20843,0.30013,0.60861,170,1.72577,-0.78,-0.39184,0.10838,5,lapse_rate,2.0,True,0.259,0,False,right,-0.16674,0.2339,0.2841,0.0502,1.0006,1.2757,0.2752,A,-0.06,HH3
171,0.50022,1.2,1,0.40852,0.31681,0.63362,171,2.4511,0.18,0.09171,0.59193,5,2D1U,2.0,False,0.367,17,True,right,0.25011,0.4313,0.964,0.5328,1.4979,2.1898,0.6919,A,-0.06,HH3
172,0.50022,1.2,2,0.33348,0.34182,0.50022,172,2.10927,-0.14,-0.0667,0.43353,5,1D2U,2.0,False,0.247,13,True,right,0.0,1.3218,1.7217,0.3999,0.3548,0.7967,0.4419,A,-0.06,HH3
173,0.50022,1.2,2,0.21676,0.20843,0.70865,173,2.24267,0.22,0.10838,0.60861,5,2D1U,2.0,True,0.258,18,True,right,-0.16674,1.3367,1.9119,0.5752,0.3284,0.6042,0.2758,A,-0.06,HH3
174,0.50022,0.1,2,0.40018,0.30847,0.70031,174,2.3177,-0.18,-0.09171,0.40852,5,1D2U,1.0,True,0.248,13,False,left,0.25011,1.7229,2.1902,0.4672,0.2147,1.0817,0.867,A,0.12,HH3
175,0.50022,1.2,2,0.40852,0.40018,0.80036,175,2.21766,-0.78,-0.39184,0.10838,5,lapse_rate,1.0,True,0.193,0,False,left,0.0,1.697,1.7716,0.0746,0.4292,0.8715,0.4422,A,-0.06,HH3
176,0.50022,0.1,1,0.35016,0.3835,0.54191,176,2.18431,-0.18,-0.09171,0.40852,5,1D2U,2.0,True,0.424,13,False,right,-0.16674,0.2889,0.8141,0.5252,1.3798,1.8307,0.4509,A,0.12,HH3
177,0.50022,0.1,2,0.43353,0.30013,0.53357,177,1.87583,-0.78,-0.39184,0.10838,5,lapse_rate,1.0,True,0.262,0,False,left,0.25011,1.5941,1.7607,0.1666,0.2523,1.1197,0.8674,A,0.12,HH3
178,0.50022,0.1,2,0.25845,0.40852,0.61694,178,2.39274,0.22,0.10838,0.60861,5,2D1U,2.0,True,0.112,18,True,right,0.0,1.3723,2.0384,0.6661,0.1977,0.8137,0.616,A,0.12,HH3
179,0.50022,1.2,2,0.21676,0.26679,0.68364,179,2.10094,-0.14,-0.0667,0.43353,5,1D2U,2.0,False,0.299,14,True,right,-0.16674,1.3063,1.7062,0.3998,0.3222,0.5974,0.2752,A,-0.06,HH3
180,0.50022,1.2,1,0.41685,0.24177,0.78368,180,2.53445,0.18,0.09171,0.59193,5,2D1U,2.0,False,0.311,19,True,right,0.25011,0.4388,0.9717,0.5329,1.6555,2.347,0.6915,A,-0.06,HH3
181,0.50022,0.1,1,0.32515,0.2251,0.69198,181,1.85083,-0.78,-0.39184,0.10838,5,lapse_rate,2.0,True,0.324,0,False,right,0.0,0.2655,0.49,0.2245,1.1229,1.7403,0.6174,A,0.12,HH3
182,0.50022,1.2,2,0.43353,0.31681,0.50022,182,2.35939,0.22,0.10838,0.60861,5,2D1U,2.0,True,0.242,20,True,right,-0.16674,1.3441,1.9192,0.5751,0.5445,0.819,0.2745,A,-0.06,HH3
183,0.50022,0.1,2,0.2918,0.35849,0.5169,183,2.07593,-0.18,-0.09171,0.40852,5,1D2U,1.0,True,0.132,15,True,left,0.25011,1.4355,1.9015,0.466,0.1105,0.9772,0.8667,A,0.12,HH3
184,0.50022,0.1,1,0.35016,0.25845,0.85872,184,2.91797,0.9,0.4502,0.95042,5,lapse_rate,1.0,True,0.242,0,False,left,0.0,0.2935,1.3601,1.0667,2.1599,2.777,0.6171,A,0.12,HH3
185,0.50022,0.1,1,0.41685,0.41685,0.82537,185,2.7679,0.22,0.10838,0.60861,5,2D1U,1.0,True,0.109,20,True,left,-0.16674,0.3607,1.0858,0.725,1.9355,2.3861,0.4506,A,0.12,HH3
186,0.50022,0.1,2,0.40018,0.25845,0.56692,186,1.83415,-0.78,-0.39184,0.10838,5,lapse_rate,1.0,True,0.271,0,False,left,0.25011,1.5931,1.7598,0.1667,0.2174,1.085,0.8676,A,0.12,HH3
187,0.50022,0.1,1,0.21676,0.35849,0.89207,187,2.37606,-0.18,-0.09171,0.40852,5,1D2U,2.0,True,0.247,15,True,right,0.0,0.1608,0.6867,0.5259,1.52,2.1369,0.6169,A,0.12,HH3
188,0.50022,1.2,2,0.24177,0.20009,0.85038,188,2.22599,-0.14,-0.0667,0.43353,5,1D2U,2.0,False,0.407,16,True,right,-0.16674,1.5037,1.9028,0.3991,0.3537,0.6289,0.2752,A,-0.06,HH3
189,0.50022,1.2,2,0.3835,0.40852,0.77535,189,3.01801,0.9,0.4502,0.95042,5,lapse_rate,2.0,True,0.111,0,False,right,0.25011,1.7766,2.6921,0.9156,0.2836,0.9756,0.692,A,-0.06,HH3
190,0.50022,1.2,2,0.42519,0.30013,0.70031,190,2.51778,0.18,0.09171,0.59193,5,2D1U,2.0,True,0.271,21,True,right,0.0,1.6198,2.1781,0.5583,0.4533,0.8944,0.4412,A,-0.06,HH3
191,0.50022,1.2,2,0.36683,0.3835,0.4502,191,2.10927,-0.18,-0.09171,0.40852,5,1D2U,1.0,True,0.246,17,True,left,-0.16674,1.2199,1.5946,0.3747,0.4701,0.7451,0.275,A,-0.06,HH3
192,0.50022,0.1,1,0.23344,0.40852,0.4502,192,1.70076,-0.78,-0.39184,0.10838,5,lapse_rate,2.0,True,0.111,0,False,right,0.25011,0.1713,0.3956,0.2242,0.662,1.5297,0.8676,A,0.12,HH3
193,0.50022,0.1,1,0.25011,0.42519,0.61694,193,2.38439,0.18,0.09171,0.59193,5,2D1U,2.0,False,0.267,21,True,right,0.0,0.1923,0.9007,0.7084,1.459,2.0763,0.6174,A,0.12,HH3
194,0.50022,1.2,1,0.2251,0.32515,0.69198,194,1.85083,-0.78,-0.39184,0.10838,5,lapse_rate,2.0,True,0.231,0,False,right,-0.16674,0.2479,0.2984,0.0504,1.0978,1.3731,0.2753,A,-0.06,HH3
195,0.50022,0.1,1,0.35016,0.32515,0.61694,195,2.40108,0.22,0.10838,0.60861,5,2D1U,2.0,False,0.42,22,True,right,0.25011,0.2912,1.016,0.7248,1.4482,2.3159,0.8676,A,0.12,HH3
196,0.50022,0.1,2,0.25845,0.2251,0.68364,196,2.07593,-0.18,-0.09171,0.40852,5,1D2U,1.0,True,0.29,17,True,left,0.0,1.443,1.9087,0.4657,0.201,0.8173,0.6163,A,0.12,HH3
197,0.50022,1.2,1,0.42519,0.20843,0.4502,197,2.01757,-0.14,-0.0667,0.43353,5,1D2U,1.0,False,0.249,18,True,left,-0.16674,0.4525,0.8269,0.3744,1.3858,1.6606,0.2748,A,-0.06,HH3
198,0.50022,1.2,2,0.32515,0.40018,0.9004,198,2.75957,0.26,0.13339,0.63362,5,2D1U,2.0,True,0.64,22,False,right,0.25011,1.8456,2.4452,0.5997,0.2289,0.9207,0.6918,A,-0.06,HH3
199,0.50022,1.2,1,0.3835,0.42519,0.42519,199,2.68452,0.9,0.4502,0.95042,5,lapse_rate,1.0,True,0.434,0,False,left,0.0,0.406,1.2973,0.8913,1.7467,2.1886,0.4419,A,-0.06,HH3
200,0.50022,1.2,2,0.37517,0.30847,0.86705,200,2.68453,0.26,0.13339,0.63362,5,2D1U,2.0,True,0.229,22,False,right,-0.16674,1.653,2.2529,0.6,0.4863,0.7606,0.2744,A,-0.06,HH3
201,0.50022,0.1,1,0.43353,0.30013,0.47521,201,2.11761,-0.18,-0.09171,0.40852,5,1D2U,2.0,True,0.422,19,True,right,0.25011,0.3767,0.9017,0.525,1.1937,2.0591,0.8654,A,0.12,HH3
202,0.50022,0.1,2,0.26679,0.25011,0.9004,202,2.0259,-0.78,-0.39184,0.10838,5,lapse_rate,1.0,True,0.345,0,False,left,0.0,1.6626,1.8284,0.1659,0.204,0.8208,0.6168,A,0.12,HH3
203,0.50022,0.1,2,0.32515,0.20009,0.50856,203,2.14263,0.22,0.10838,0.60861,5,2D1U,2.0,True,0.237,23,True,right,-0.16674,1.2534,1.9201,0.6667,0.3534,0.8037,0.4503,A,0.12,HH3
204,0.50022,1.2,1,0.2918,0.31681,0.85038,204,2.90963,0.9,0.4502,0.95042,5,lapse_rate,1.0,True,0.251,0,False,left,0.25011,0.319,1.2105,0.8915,1.9609,2.6529,0.6919,A,-0.06,HH3
205,0.50022,0.1,2,0.33348,0.26679,0.61694,205,2.12595,-0.18,-0.09171,0.40852,5,1D2U,1.0,True,0.303,19,True,left,0.0,1.447,1.9132,0.4663,0.2719,0.8888,0.6169,A,0.12,HH3
206,0.50022,1.2,1,0.31681,0.36683,0.42519,206,1.71743,-0.78,-0.39184,0.10838,5,lapse_rate,2.0,True,0.26,0,False,right,-0.16674,0.3398,0.3906,0.0507,0.9226,1.1986,0.2759,A,-0.06,HH3
207,0.50022,1.2,2,0.40852,0.3835,0.742,207,2.64285,0.22,0.10838,0.60861,5,2D1U,1.0,False,0.258,23,True,left,0.25011,1.7644,2.3399,0.5755,0.3071,0.9978,0.6907,A,-0.06,HH3
208,0.50022,1.2,1,0.31681,0.41685,0.43353,208,2.10094,-0.14,-0.0667,0.43353,5,1D2U,2.0,True,0.15,20,True,right,0.0,0.3387,0.7138,0.3751,1.1734,1.6138,0.4403,A,-0.06,HH3
209,0.50022,1.2,1,0.37517,0.42519,0.55858,209,2.80958,0.9,0.4502,0.95042,5,lapse_rate,1.0,True,0.189,0,False,left,-0.16674,0.4022,1.2942,0.892,1.9606,2.2349,0.2743,A,-0.06,HH3
210,0.50022,1.2,2,0.44186,0.20843,0.55858,210,2.34271,0.26,0.13339,0.63362,5,2D1U,2.0,True,0.275,24,True,right,0.25011,1.6191,2.2192,0.6001,0.3441,1.0363,0.6922,A,-0.06,HH3
211,0.50022,0.1,1,0.35016,0.42519,0.80869,211,2.51779,-0.14,-0.0667,0.43353,5,1D2U,2.0,True,0.341,20,True,right,0.0,0.294,0.8436,0.5496,1.594,2.2105,0.6165,A,0.12,HH3
212,0.50022,0.1,2,0.40018,0.3835,0.70865,212,2.94297,0.9,0.4502,0.95042,5,lapse_rate,2.0,True,0.141,0,False,right,-0.16674,1.5222,2.5314,1.0092,0.4234,0.8724,0.449,A,0.12,HH3
213,0.50022,0.1,2,0.34182,0.39184,0.73366,213,2.41774,-0.1,-0.05002,0.4502,5,1D2U,1.0,True,0.131,20,False,left,0.25011,1.6979,2.205,0.5071,0.1556,1.0221,0.8665,A,0.12,HH3
214,0.50022,0.1,1,0.27512,0.42519,0.48355,214,2.3177,0.26,0.13339,0.63362,5,2D1U,1.0,True,0.474,24,True,left,0.0,0.2192,0.9693,0.7501,1.3955,2.0115,0.616,A,0.12,HH3
215,0.50022,1.2,2,0.30013,0.20009,0.89207,215,2.84293,0.9,0.4502,0.95042,5,lapse_rate,2.0,True,0.245,0,False,right,-0.16674,1.597,2.514,0.9169,0.4058,0.6804,0.2747,A,-0.06,HH3
216,0.50022,1.2,2,0.30847,0.24177,0.58359,216,2.08425,-0.1,-0.05002,0.4502,5,1D2U,1.0,True,0.315,20,False,left,0.25011,1.5052,1.9225,0.4173,0.2057,0.8974,0.6917,A,-0.06,HH3
217,0.50022,1.2,2,0.30847,0.34182,0.49189,217,2.25101,0.22,0.10838,0.60861,5,2D1U,2.0,True,0.216,25,True,right,0.0,1.289,1.8652,0.5761,0.3301,0.7726,0.4425,A,-0.06,HH3
218,0.50022,1.2,2,0.20009,0.40852,0.77535,218,2.35106,-0.06,-0.03335,0.46688,5,1D2U,2.0,False,0.249,20,False,right,-0.16674,1.3813,1.8148,0.4335,0.3057,0.5814,0.2757,A,-0.06,HH3
219,0.50022,0.1,1,0.33348,0.32515,0.5169,219,2.62617,0.9,0.4502,0.95042,5,lapse_rate,1.0,True,0.132,0,False,left,0.25011,0.2746,1.3406,1.066,1.6745,2.5414,0.8669,A,0.12,HH3
220,0.50022,0.1,1,0.30847,0.23344,0.59193,220,2.24267,0.22,0.10838,0.60861,5,2D1U,1.0,True,0.275,25,True,left,0.0,0.2542,0.9789,0.7248,1.5122,2.1291,0.6169,A,0.12,HH3
221,0.50022,0.1,1,0.40852,0.20009,0.63362,221,2.69287,0.9,0.4502,0.95042,5,lapse_rate,1.0,True,0.234,0,False,left,-0.16674,0.3489,1.4156,1.0667,2.0735,2.524,0.4505,A,0.12,HH3
222,0.50022,0.1,2,0.3835,0.28346,0.55858,222,2.31769,0.18,0.09171,0.59193,5,2D1U,2.0,True,0.281,25,False,right,0.25011,1.5647,2.2147,0.6499,0.1983,1.065,0.8667,A,0.12,HH3
223,0.50022,0.1,2,0.33348,0.4502,0.58359,223,2.31769,-0.1,-0.05002,0.4502,5,1D2U,1.0,True,0.112,21,True,left,0.0,1.4153,1.9232,0.5079,0.2736,0.8903,0.6167,A,0.12,HH3
224,0.50022,0.1,2,0.30847,0.28346,0.53357,224,2.57614,0.9,0.4502,0.95042,5,lapse_rate,2.0,True,0.188,0,False,right,-0.16674,1.2607,2.269,1.0083,0.3354,0.7857,0.4503,A,0.12,HH3
225,0.50022,1.2,2,0.31681,0.23344,0.75034,225,2.39274,0.18,0.09171,0.59193,5,2D1U,2.0,True,0.355,25,False,right,0.25011,1.6811,2.2404,0.5593,0.2145,0.9071,0.6926,A,-0.06,HH3
226,0.50022,1.2,1,0.35016,0.25845,0.72532,226,2.28435,-0.1,-0.05002,0.4502,5,1D2U,2.0,True,0.566,21,True,right,0.0,0.3738,0.765,0.3912,1.5154,1.9571,0.4418,A,-0.06,HH3
227,0.50022,1.2,1,0.28346,0.35849,0.86705,227,2.57614,0.14,0.0667,0.56692,5,2D1U,1.0,True,0.176,25,False,left,-0.16674,0.3075,0.8157,0.5083,1.7913,2.0656,0.2742,A,-0.06,HH3
228,0.50022,0.1,2,0.28346,0.30847,0.84204,228,2.88461,0.9,0.4502,0.95042,5,lapse_rate,2.0,True,0.184,0,False,right,0.25011,1.7496,2.7575,1.0079,0.099,0.9655,0.8665,A,0.12,HH3
229,0.50022,0.1,1,0.44186,0.26679,0.73366,229,2.40941,-0.06,-0.03335,0.46688,5,1D2U,2.0,True,0.291,22,True,right,0.0,0.3819,0.9653,0.5834,1.6395,2.2568,0.6174,A,0.12,HH3
230,0.50022,0.1,1,0.26679,0.35849,0.59193,230,1.82581,-0.78,-0.39184,0.10838,5,lapse_rate,2.0,True,0.176,0,False,right,-0.16674,0.2073,0.4314,0.2241,1.0478,1.4983,0.4505,A,0.12,HH3
231,0.50022,0.1,1,0.28346,0.37517,0.55025,231,2.27602,0.14,0.0667,0.56692,5,2D1U,1.0,True,0.112,25,False,left,0.25011,0.2213,0.905,0.6837,1.2716,2.1384,0.8668,A,0.12,HH3
232,0.50022,0.1,2,0.43353,0.3835,0.87539,232,2.65952,-0.06,-0.03335,0.46688,5,1D2U,2.0,False,0.338,22,True,right,0.0,1.8045,2.3305,0.526,0.3715,0.9883,0.6168,A,0.12,HH3
233,0.50022,1.2,2,0.35016,0.35016,0.56692,233,2.31771,0.1,0.05002,0.55025,5,2D1U,2.0,True,0.225,25,False,right,-0.16674,1.322,1.8395,0.5175,0.4564,0.7308,0.2744,A,-0.06,HH3
234,0.50022,1.2,2,0.20843,0.36683,0.85872,234,2.3844,-0.1,-0.05002,0.4502,5,1D2U,2.0,False,0.278,23,True,right,0.25011,1.6789,2.0947,0.4158,0.1036,0.7948,0.6911,A,-0.06,HH3
