,Unnamed: 0,standardDur,audNoise,order,preDur,postDur,isiDur,trial_num,total_audio_dur,delta_dur_percents,deltaDurS,testDurS,intensities,current_stair,responses,is_correct,response_rts,stair_num_reversal,stair_is_reversal,response_keys
0,0,0.5,0.1,2,0.4167,0.2167,0.45,0,1.7501,-0.65,-0.3333,0.1667,5,3U1D,1.0,True,0.645,0,False,left
1,1,0.5,0.1,2,0.2167,0.4167,0.85,1,2.8167,0.65,0.3333,0.8333,5,3D1U,2.0,True,0.399,0,False,right
2,2,0.5,0.1,2,0.4167,0.4,0.5833,2,2.7333,0.65,0.3333,0.8333,5,3D1U,2.0,True,0.425,0,False,right
3,3,0.5,0.1,2,0.4,0.4,0.85,3,2.3167,-0.65,-0.3333,0.1667,5,2U1D,1.0,True,0.383,0,False,left
4,4,0.5,0.1,2,0.3667,0.45,0.6667,4,2.0834,-0.8,-0.4,0.1,5,lapse_rate,1.0,True,0.392,0,False,left
5,5,0.5,0.1,2,0.3667,0.3833,0.4167,5,1.8334,-0.65,-0.3333,0.1667,5,3U1D,1.0,True,0.308,0,False,left
6,6,0.5,0.1,1,0.35,0.3,0.5,6,2.4833,0.65,0.3333,0.8333,5,2D1U,2.0,False,0.55,0,False,right
7,7,0.5,0.1,1,0.2833,0.25,0.6667,7,2.6,0.8,0.4,0.9,5,lapse_rate,2.0,False,0.426,0,False,right
8,8,0.5,0.1,2,0.35,0.2333,0.55,8,2.4666,0.65,0.3333,0.8333,5,3D1U,2.0,True,0.4,0,False,right
9,9,0.5,0.1,1,0.3667,0.3333,0.8333,9,2.2,-0.65,-0.3333,0.1667,5,3U1D,2.0,True,0.391,0,False,right
10,10,0.5,0.1,1,0.3333,0.35,0.5333,10,1.8833,-0.65,-0.3333,0.1667,5,2U1D,2.0,True,0.434,0,False,right
11,11,0.5,0.1,1,0.4,0.3833,0.6,11,2.75,0.75,0.3667,0.8667,5,2D1U,1.0,True,0.3,0,False,left
12,12,0.5,0.1,1,0.3167,0.3,0.6,12,1.9334,-0.55,-0.2667,0.2167,5,2U1D,2.0,True,0.459,0,False,right
13,13,0.5,0.1,2,0.25,0.3833,0.5833,13,2.5833,0.75,0.3667,0.8667,5,2D1U,2.0,True,0.317,0,False,right
14,14,0.5,0.1,2,0.3333,0.4333,0.8167,14,2.9833,0.8,0.4,0.9,5,lapse_rate,1.0,False,17.6,0,False,left
15,15,0.5,0.1,1,0.2667,0.3667,0.7333,15,2.6334,0.55,0.2667,0.7667,5,3D1U,2.0,False,0.542,0,False,right
16,16,0.5,0.1,2,0.2333,0.4,0.65,16,2.0,-0.55,-0.2667,0.2167,5,3U1D,1.0,True,0.483,0,False,left
17,17,0.5,0.1,2,0.3,0.3333,0.8167,17,2.1667,-0.55,-0.2667,0.2167,5,3U1D,1.0,True,0.467,0,False,left
18,18,0.5,0.1,1,0.4,0.4333,0.5833,18,2.1333,-0.55,-0.2667,0.2167,5,2U1D,2.0,True,0.342,0,False,right
19,19,0.5,0.1,2,0.3,0.3333,0.8167,19,2.85,0.8,0.4,0.9,5,lapse_rate,2.0,True,0.401,0,False,right
20,20,0.5,0.1,2,0.4,0.3333,0.4167,20,2.45,0.61,0.3,0.8,5,3D1U,2.0,True,0.443,1,True,right
21,21,0.5,0.1,1,0.2667,0.3667,0.4833,21,2.4667,0.69,0.35,0.85,5,2D1U,1.0,True,0.376,1,True,left
22,22,0.5,0.1,1,0.4167,0.2833,0.45,22,2.55,0.8,0.4,0.9,5,lapse_rate,1.0,True,0.433,0,False,left
23,23,0.5,0.1,2,0.2667,0.4167,0.6667,23,2.0668,-0.55,-0.2667,0.2167,5,3U1D,1.0,True,0.475,0,False,left
24,24,0.5,0.1,1,0.3833,0.3333,0.4667,24,1.95,-0.45,-0.2333,0.2667,5,2U1D,2.0,True,0.475,0,False,right
25,25,0.5,0.1,1,0.4333,0.2833,0.6333,25,2.6499,0.61,0.3,0.8,5,3D1U,1.0,True,0.416,1,True,left
26,26,0.5,0.1,1,0.4167,0.4167,0.65,26,2.8334,0.69,0.35,0.85,5,2D1U,1.0,True,0.483,1,True,left
27,27,0.5,0.1,2,0.2167,0.4167,0.6167,27,2.5501,0.61,0.3,0.8,5,3D1U,2.0,True,0.391,1,True,right
28,28,0.5,0.1,2,0.2167,0.25,0.8167,28,2.0501,-0.45,-0.2333,0.2667,5,2U1D,1.0,True,0.491,0,False,left
29,29,0.5,0.1,2,0.4167,0.2667,0.7,29,2.1501,-0.45,-0.2333,0.2667,5,3U1D,1.0,True,0.416,0,False,left
30,30,0.5,0.1,1,0.4333,0.3,0.6167,30,2.6667,0.63,0.3167,0.8167,5,2D1U,1.0,True,0.292,1,False,left
31,31,0.5,0.1,1,0.2667,0.3333,0.5,31,1.7,-0.8,-0.4,0.1,5,lapse_rate,2.0,True,0.358,0,False,right
32,32,0.5,0.1,2,0.2333,0.2833,0.8167,32,2.1666,-0.35,-0.1667,0.3333,5,2U1D,1.0,True,0.483,0,False,left
33,33,0.5,0.1,2,0.3333,0.3833,0.6333,33,2.1166,-0.45,-0.2333,0.2667,5,3U1D,1.0,True,0.408,0,False,left
34,34,0.5,0.1,1,0.35,0.3333,0.7333,34,2.7333,0.63,0.3167,0.8167,5,2D1U,1.0,True,0.326,1,False,left
35,35,0.5,0.1,2,0.4167,0.2667,0.7333,35,2.7,0.574,0.2833,0.7833,5,3D1U,2.0,True,0.433,2,True,right
36,36,0.5,0.1,2,0.3833,0.4333,0.8833,36,2.2999,-0.8,-0.4,0.1,5,lapse_rate,1.0,True,0.45,0,False,left
37,37,0.5,0.1,2,0.3667,0.3167,0.55,37,2.0001,-0.45,-0.2333,0.2667,5,3U1D,1.0,True,0.442,0,False,left
38,38,0.5,0.1,2,0.3333,0.35,0.7333,38,2.6999,0.57,0.2833,0.7833,5,2D1U,2.0,True,0.384,1,False,right
39,39,0.5,0.1,1,0.4333,0.3333,0.6667,39,2.0333,-0.8,-0.4,0.1,5,lapse_rate,2.0,True,0.408,0,False,right
40,40,0.5,0.1,1,0.2667,0.25,0.5167,40,1.8667,-0.35,-0.1667,0.3333,5,2U1D,2.0,True,0.442,0,False,right
41,41,0.5,0.1,1,0.4167,0.3333,0.7833,41,2.8166,0.574,0.2833,0.7833,5,3D1U,1.0,True,0.458,2,True,left
42,42,0.5,0.1,2,0.2333,0.4,0.75,42,1.9833,-0.8,-0.4,0.1,5,lapse_rate,1.0,True,0.557,0,False,left
43,43,0.5,0.1,1,0.2833,0.25,0.5,43,2.3166,0.574,0.2833,0.7833,5,3D1U,1.0,True,0.434,2,True,left
44,44,0.5,0.1,1,0.3167,0.25,0.4167,44,1.8501,-0.25,-0.1333,0.3667,5,2U1D,2.0,True,0.442,0,False,right
45,45,0.5,0.1,2,0.3333,0.2333,0.4167,45,1.8166,-0.35,-0.1667,0.3333,5,3U1D,1.0,True,0.425,0,False,left
46,46,0.5,0.1,1,0.2667,0.3333,0.85,46,2.7333,0.57,0.2833,0.7833,5,2D1U,1.0,True,0.4,1,False,left
47,47,0.5,0.1,2,0.4167,0.3667,0.6833,47,2.7167,0.51,0.25,0.75,5,2D1U,2.0,True,0.39,1,False,right
48,48,0.5,0.1,1,0.4333,0.35,0.6333,48,2.8166,0.8,0.4,0.9,5,lapse_rate,1.0,True,0.491,0,False,left
49,49,0.5,0.1,1,0.3667,0.3,0.4833,49,1.9833,-0.35,-0.1667,0.3333,5,3U1D,1.0,False,0.483,0,False,left
50,50,0.5,0.1,2,0.3667,0.45,0.8,50,2.8834,0.538,0.2667,0.7667,5,3D1U,2.0,True,0.533,2,False,right
51,51,0.5,0.1,1,0.3833,0.35,0.6667,51,2.2667,-0.25,-0.1333,0.3667,5,2U1D,2.0,True,0.716,0,False,right
52,52,0.5,0.1,1,0.2667,0.2667,0.6667,52,2.1334,-0.15,-0.0667,0.4333,5,2U1D,2.0,True,0.575,0,False,right
53,53,0.5,0.1,1,0.2333,0.3667,0.75,53,2.6167,0.538,0.2667,0.7667,5,3D1U,1.0,True,0.284,2,False,left
54,54,0.5,0.1,2,0.2,0.45,0.45,54,1.7,-0.8,-0.4,0.1,5,lapse_rate,1.0,True,0.433,0,False,left
55,55,0.5,0.1,2,0.4333,0.3,0.55,55,2.0833,-0.41,-0.2,0.3,5,3U1D,1.0,True,0.417,1,True,left
56,56,0.5,0.1,1,0.3167,0.2,0.6333,56,2.4,0.51,0.25,0.75,5,2D1U,1.0,True,0.425,1,False,left
57,57,0.5,0.1,1,0.45,0.4333,0.7167,57,2.8667,0.538,0.2667,0.7667,5,3D1U,2.0,False,0.499,2,False,right
58,58,0.5,0.1,1,0.4167,0.2167,0.4667,58,1.9001,-0.41,-0.2,0.3,5,3U1D,2.0,True,0.541,1,True,right
59,59,0.5,0.1,1,0.4167,0.3,0.7,59,2.8167,0.8,0.4,0.9,5,lapse_rate,1.0,True,0.383,0,False,left
60,60,0.5,0.1,1,0.2667,0.35,0.7333,60,2.5833,0.45,0.2333,0.7333,5,2D1U,1.0,True,0.391,1,False,left
61,61,0.5,0.1,2,0.3333,0.4167,0.4833,61,2.1666,-0.15,-0.0667,0.4333,5,2U1D,1.0,True,0.2,0,False,left
62,62,0.5,0.1,2,0.3833,0.4333,0.85,62,2.9499,0.574,0.2833,0.7833,5,3D1U,2.0,True,0.282,3,True,right
63,63,0.5,0.1,1,0.25,0.2333,0.5833,63,2.0333,-0.05,-0.0333,0.4667,5,2U1D,2.0,True,0.492,0,False,right
64,64,0.5,0.1,2,0.25,0.4167,0.6167,64,2.5167,0.45,0.2333,0.7333,5,2D1U,2.0,True,0.366,1,False,right
65,65,0.5,0.1,2,0.2167,0.2333,0.4333,65,1.6833,-0.41,-0.2,0.3,5,3U1D,1.0,True,0.65,1,True,left
66,66,0.5,0.1,1,0.3167,0.2833,0.7,66,1.9,-0.8,-0.4,0.1,5,lapse_rate,2.0,True,0.367,0,False,right
67,67,0.5,0.1,2,0.2667,0.3667,0.5167,67,1.9668,-0.374,-0.1833,0.3167,5,3U1D,2.0,False,0.392,2,True,right
68,68,0.5,0.1,2,0.2333,0.2333,0.4833,68,2.3499,0.8,0.4,0.9,5,lapse_rate,2.0,True,0.426,0,False,right
69,69,0.5,0.1,1,0.3167,0.4167,0.8833,69,2.8167,0.39,0.2,0.7,5,2D1U,1.0,True,0.41,1,False,left
70,70,0.5,0.1,2,0.2167,0.3667,0.4667,70,2.3334,0.574,0.2833,0.7833,5,3D1U,2.0,True,0.367,3,True,right
71,71,0.5,0.1,2,0.2167,0.3,0.8667,71,2.3501,-0.05,-0.0333,0.4667,5,2U1D,2.0,False,0.517,0,False,right
72,72,0.5,0.1,2,0.2667,0.3167,0.9,72,2.4334,-0.11,-0.05,0.45,5,2U1D,2.0,False,0.425,1,True,right
73,73,0.5,0.1,1,0.25,0.4,0.7833,73,2.2333,-0.41,-0.2,0.3,5,3U1D,1.0,False,0.425,3,True,left
74,74,0.5,0.1,1,0.3,0.2833,0.7667,74,2.55,0.39,0.2,0.7,5,2D1U,1.0,True,0.409,1,False,left
75,75,0.5,0.1,2,0.2333,0.35,0.5167,75,2.2667,0.33,0.1667,0.6667,5,2D1U,2.0,True,0.425,1,False,right
76,76,0.5,0.1,2,0.3667,0.3167,0.7333,76,2.7,0.574,0.2833,0.7833,5,3D1U,2.0,True,0.485,3,True,right
77,77,0.5,0.1,2,0.4333,0.3833,0.6167,77,2.7,0.538,0.2667,0.7667,5,3D1U,2.0,True,0.417,4,True,right
78,78,0.5,0.1,2,0.4333,0.4167,0.8833,78,2.9,0.33,0.1667,0.6667,5,2D1U,2.0,True,0.384,1,False,right
79,79,0.5,0.1,2,0.3167,0.2833,0.7167,79,2.2334,-0.17,-0.0833,0.4167,5,2U1D,1.0,True,0.475,1,False,left
80,80,0.5,0.1,2,0.4333,0.3167,0.5667,80,2.1,-0.446,-0.2167,0.2833,5,3U1D,1.0,True,0.475,3,False,left
81,81,0.5,0.1,1,0.2667,0.4333,0.8667,81,2.8334,0.538,0.2667,0.7667,5,3D1U,2.0,False,0.408,4,True,right
82,82,0.5,0.1,1,0.25,0.35,0.5667,82,2.3,0.27,0.1333,0.6333,5,2D1U,1.0,True,0.45,1,False,left
83,83,0.5,0.1,1,0.25,0.4167,0.7833,83,2.2333,-0.446,-0.2167,0.2833,5,3U1D,2.0,True,0.368,3,False,right
84,84,0.5,0.1,1,0.2333,0.4333,0.8667,84,2.3166,-0.446,-0.2167,0.2833,5,3U1D,2.0,True,0.392,3,False,right
85,85,0.5,0.1,2,0.2833,0.2333,0.7333,85,2.5332,0.574,0.2833,0.7833,5,3D1U,2.0,True,0.434,5,True,right
86,86,0.5,0.1,1,0.4,0.45,0.5167,86,2.2834,-0.17,-0.0833,0.4167,5,2U1D,2.0,True,0.483,1,False,right
87,87,0.5,0.1,2,0.3,0.35,0.45,87,2.2333,0.27,0.1333,0.6333,5,2D1U,2.0,True,0.442,1,False,right
88,88,0.5,0.1,2,0.2167,0.3167,0.6833,88,2.3167,0.21,0.1,0.6,5,2D1U,1.0,False,0.408,1,False,left
89,89,0.5,0.1,1,0.2333,0.3333,0.6333,89,2.4832,0.574,0.2833,0.7833,5,3D1U,1.0,True,0.325,5,True,left
90,90,0.5,0.1,1,0.2667,0.4167,0.45,90,1.9334,-0.41,-0.2,0.3,5,3U1D,1.0,False,0.551,4,True,left
91,91,0.5,0.1,1,0.2667,0.2667,0.6167,91,2.0834,-0.134,-0.0667,0.4333,5,2U1D,2.0,True,0.476,2,True,right
92,92,0.5,0.1,1,0.3167,0.2333,0.8,92,2.6333,0.574,0.2833,0.7833,5,3D1U,2.0,False,0.475,5,True,right
93,93,0.5,0.1,1,0.3667,0.3333,0.5,93,1.9833,-0.446,-0.2167,0.2833,5,3U1D,1.0,False,0.626,5,True,left
94,94,0.5,0.1,1,0.4,0.2667,0.6167,94,2.4001,0.246,0.1167,0.6167,5,2D1U,1.0,True,0.491,2,True,left
95,95,0.5,0.1,2,0.2167,0.4167,0.8167,95,2.3834,-0.134,-0.0667,0.4333,5,2U1D,2.0,False,0.392,2,True,right
96,96,0.5,0.1,2,0.35,0.3667,0.8333,96,2.4667,-0.17,-0.0833,0.4167,5,2U1D,1.0,True,0.333,3,True,left
97,97,0.5,0.1,2,0.25,0.3667,0.4167,97,2.1501,0.246,0.1167,0.6167,5,2D1U,1.0,False,0.324,2,True,left
98,98,0.5,0.1,2,0.3667,0.3833,0.5833,98,2.25,-0.17,-0.0833,0.4167,5,2U1D,1.0,True,0.433,3,True,left
99,99,0.5,0.1,1,0.3667,0.2333,0.6667,99,2.5667,0.61,0.3,0.8,5,3D1U,1.0,True,0.425,5,False,left
100,100,0.5,0.1,2,0.45,0.25,0.6167,100,2.0834,-0.482,-0.2333,0.2667,5,3U1D,1.0,True,0.458,5,False,left
101,101,0.5,0.1,2,0.3333,0.4,0.65,101,2.15,-0.482,-0.2333,0.2667,5,3U1D,1.0,True,0.358,5,False,left
102,102,0.5,0.1,2,0.4,0.2167,0.65,102,2.2,-0.134,-0.0667,0.4333,5,2U1D,1.0,True,0.708,4,True,left
103,103,0.5,0.1,2,0.25,0.3167,0.4167,103,2.2834,0.61,0.3,0.8,5,3D1U,1.0,False,2.034,5,False,left
104,104,0.5,0.1,1,0.35,0.3333,0.65,104,2.4666,0.282,0.1333,0.6333,5,2D1U,1.0,True,0.45,2,False,left
105,105,0.5,0.1,1,0.2667,0.4,0.5833,105,2.0167,-0.482,-0.2333,0.2667,5,3U1D,2.0,True,0.392,5,False,right
106,106,0.5,0.1,2,0.25,0.3,0.8333,106,2.3166,-0.134,-0.0667,0.4333,5,2U1D,2.0,False,0.442,4,True,right
107,107,0.5,0.1,1,0.3167,0.3333,0.85,107,2.8167,0.646,0.3167,0.8167,5,3D1U,1.0,True,0.525,5,False,left
108,108,0.5,0.1,2,0.25,0.2333,0.7667,108,2.0333,-0.446,-0.2167,0.2833,5,3U1D,1.0,True,0.534,6,True,left
109,109,0.5,0.1,2,0.2167,0.4,0.7,109,2.45,0.282,0.1333,0.6333,5,2D1U,2.0,True,0.375,2,False,right
110,110,0.5,0.1,1,0.35,0.2333,0.65,110,2.15,-0.17,-0.0833,0.4167,5,2U1D,2.0,True,0.492,5,True,right
111,111,0.5,0.1,2,0.35,0.4333,0.7667,111,2.8667,0.646,0.3167,0.8167,5,3D1U,2.0,True,0.383,5,False,right
112,112,0.5,0.1,1,0.35,0.35,0.6167,112,2.2334,-0.17,-0.0833,0.4167,5,2U1D,1.0,False,0.542,5,True,left
113,113,0.5,0.1,2,0.4,0.45,0.6333,113,2.6,0.246,0.1167,0.6167,5,2D1U,2.0,True,0.308,3,True,right
114,114,0.5,0.1,1,0.3167,0.2167,0.6167,114,2.4668,0.646,0.3167,0.8167,5,3D1U,2.0,False,0.442,5,False,right
115,115,0.5,0.1,1,0.3833,0.3333,0.7667,115,2.2666,-0.446,-0.2167,0.2833,5,3U1D,2.0,True,0.392,6,True,right
116,116,0.5,0.1,2,0.4333,0.4167,0.6,116,2.35,-0.206,-0.1,0.4,5,2U1D,1.0,True,0.533,5,False,left
117,117,0.5,0.1,2,0.3,0.2167,0.6,117,2.2334,0.246,0.1167,0.6167,5,2D1U,2.0,True,0.343,3,True,right
118,118,0.5,0.1,2,0.3833,0.3333,0.6167,118,2.6666,0.682,0.3333,0.8333,5,3D1U,2.0,True,0.449,5,False,right
119,119,0.5,0.1,1,0.25,0.2833,0.6167,119,2.4833,0.682,0.3333,0.8333,5,3D1U,1.0,True,0.442,5,False,left
120,120,0.5,0.1,2,0.3667,0.2333,0.7833,120,2.1666,-0.446,-0.2167,0.2833,5,3U1D,1.0,True,0.491,6,True,left
121,121,0.5,0.1,1,0.4,0.3333,0.5833,121,2.2166,-0.206,-0.1,0.4,5,2U1D,2.0,True,0.592,5,False,right
122,122,0.5,0.1,2,0.2667,0.2,0.8667,122,2.1334,-0.41,-0.2,0.3,5,3U1D,1.0,True,0.458,6,False,left
123,123,0.5,0.1,1,0.2167,0.2667,0.6333,123,2.45,0.682,0.3333,0.8333,5,3D1U,1.0,True,0.35,5,False,left
124,124,0.5,0.1,1,0.35,0.3,0.6167,124,2.3667,0.21,0.1,0.6,5,2D1U,2.0,False,0.442,3,False,right
125,125,0.5,0.1,1,0.25,0.35,0.8667,125,2.3834,-0.17,-0.0833,0.4167,5,2U1D,2.0,True,0.442,6,True,right
126,126,0.5,0.1,2,0.3833,0.3667,0.5,126,2.1667,-0.17,-0.0833,0.4167,5,2U1D,1.0,True,0.507,6,True,left
127,127,0.5,0.1,2,0.35,0.4167,0.5167,127,2.0834,-0.41,-0.2,0.3,5,3U1D,1.0,True,0.391,6,False,left
128,128,0.5,0.1,1,0.35,0.3833,0.4,128,1.9333,-0.41,-0.2,0.3,5,3U1D,1.0,False,0.383,6,False,left
129,129,0.5,0.1,1,0.2833,0.4,0.5333,129,2.5333,0.646,0.3167,0.8167,5,3D1U,1.0,True,0.342,6,True,left
130,130,0.5,0.1,1,0.3333,0.2667,0.8667,130,2.4,-0.134,-0.0667,0.4333,5,2U1D,1.0,False,0.625,6,False,left
131,131,0.5,0.1,1,0.3667,0.45,0.7833,131,2.7167,0.246,0.1167,0.6167,5,2D1U,2.0,False,0.359,4,True,right
132,132,0.5,0.1,1,0.2833,0.3833,0.4667,132,2.2666,0.282,0.1333,0.6333,5,2D1U,1.0,True,0.442,4,False,left
133,133,0.5,0.1,2,0.45,0.2833,0.4333,133,1.9499,-0.446,-0.2167,0.2833,5,3U1D,1.0,True,0.442,7,True,left
134,134,0.5,0.1,2,0.3833,0.25,0.5167,134,2.0667,-0.17,-0.0833,0.4167,5,2U1D,2.0,False,0.459,7,True,right
135,135,0.5,0.1,2,0.2833,0.2667,0.5167,135,2.3834,0.646,0.3167,0.8167,5,3D1U,2.0,True,0.483,6,True,right
136,136,0.5,0.1,1,0.45,0.25,0.45,136,2.4667,0.646,0.3167,0.8167,5,3D1U,1.0,True,0.499,6,True,left
137,137,0.5,0.1,1,0.2667,0.4,0.6667,137,2.2334,-0.206,-0.1,0.4,5,2U1D,2.0,True,0.392,7,False,right
138,138,0.5,0.1,2,0.3333,0.3333,0.4167,138,1.8666,-0.446,-0.2167,0.2833,5,3U1D,1.0,True,0.583,7,True,left
139,139,0.5,0.1,1,0.3667,0.3667,0.6667,139,2.5334,0.282,0.1333,0.6333,5,2D1U,2.0,False,0.384,4,False,right
140,140,0.5,0.1,2,0.3333,0.2167,0.8667,140,2.7167,0.61,0.3,0.8,5,3D1U,2.0,True,0.359,6,False,right
141,141,0.5,0.1,1,0.3,0.2333,0.8833,141,2.3166,-0.206,-0.1,0.4,5,2U1D,2.0,True,0.493,7,False,right
142,142,0.5,0.1,2,0.2333,0.2333,0.8333,142,2.5999,0.61,0.3,0.8,5,3D1U,2.0,True,0.484,6,False,right
143,143,0.5,0.1,1,0.3,0.3333,0.4167,143,1.8333,-0.446,-0.2167,0.2833,5,3U1D,1.0,False,0.475,7,True,left
144,144,0.5,0.1,1,0.4,0.2167,0.5333,144,2.0667,-0.17,-0.0833,0.4167,5,2U1D,2.0,True,0.518,8,True,right
145,145,0.5,0.1,2,0.35,0.3667,0.4333,145,2.0667,-0.17,-0.0833,0.4167,5,2U1D,1.0,True,0.425,8,True,left
146,146,0.5,0.1,2,0.3667,0.45,0.8333,146,2.8167,0.318,0.1667,0.6667,5,2D1U,2.0,True,0.258,4,False,right
147,147,0.5,0.1,2,0.2333,0.3833,0.7833,147,2.1666,-0.482,-0.2333,0.2667,5,3U1D,1.0,True,0.417,7,False,left
148,148,0.5,0.1,1,0.35,0.3833,0.45,148,2.35,0.318,0.1667,0.6667,5,2D1U,1.0,True,0.375,4,False,left
149,149,0.5,0.1,1,0.2833,0.45,0.8833,149,2.9166,0.61,0.3,0.8,5,3D1U,2.0,False,0.475,6,False,right
150,150,0.5,0.1,2,0.3333,0.2667,0.8333,150,2.2,-0.482,-0.2333,0.2667,5,3U1D,1.0,True,0.508,7,False,left
151,151,0.5,0.1,1,0.2833,0.25,0.4167,151,2.0833,0.282,0.1333,0.6333,5,2D1U,1.0,True,0.725,5,True,left
152,152,0.5,0.1,1,0.3833,0.25,0.55,152,2.3166,0.282,0.1333,0.6333,5,2D1U,1.0,True,0.392,5,True,left
153,153,0.5,0.1,1,0.4,0.4,0.7667,153,2.6834,0.246,0.1167,0.6167,5,2D1U,2.0,False,0.342,5,False,right
