Unnamed: 0,standardDur,audNoise,order,preDur,postDur,isiDur,trial_num,totalDur,delta_dur_percents,deltaDurS,testDurS,intensities,current_stair,responses,is_correct,response_rts,stair_num_reversal,stair_is_reversal,response_keys,conflictDur,recordedOnsetVisualTest,recordedOffsetVisualTest,recordedDurVisualTest,recordedOnsetVisualStandard,recordedOffsetVisualStandard,recordedDurVisualStandard,modalityCue,VisualPSE
0,0.50068,0.1,2,0.44226,0.40054,0.65088,0,2.01939,-0.95,-0.47564,0.02503,5,lapse_rate,1.0,True,0.674,0,False,left,0.08345,1.6385,1.8468,0.2082,0.3134,1.0802,0.7668,A,0.18
1,0.50068,1.2,1,0.20862,0.45061,0.57578,1,1.76072,-0.95,-0.47564,0.02503,5,2D1U,2.0,True,1.034,0,False,right,-0.25034,0.1744,0.2742,0.0997,0.9405,1.2657,0.3252,A,0.075
2,0.50068,1.2,2,0.32544,0.2253,0.80943,2,1.88588,-0.95,-0.47564,0.02503,5,1D2U,1.0,True,0.733,0,False,left,0.08345,1.6819,1.7821,0.1002,0.248,0.9066,0.6586,A,0.075
3,0.50068,1.2,2,0.24199,0.20862,0.63419,3,1.61051,-0.95,-0.47564,0.02503,5,lapse_rate,1.0,True,0.574,0,False,left,-0.25034,1.2572,1.3565,0.0992,0.3317,0.6566,0.3249,A,0.075
4,0.50068,0.1,1,0.20027,0.25034,0.52571,4,1.58548,-0.79,-0.3922,0.10848,5,2D1U,2.0,True,0.2,0,False,right,0.08345,0.1112,0.4028,0.2916,0.7944,1.5611,0.7667,A,0.18
5,0.50068,0.1,1,0.26703,0.30875,0.8428,5,1.94429,-0.95,-0.47564,0.02503,5,1D2U,2.0,True,0.433,0,False,right,-0.25034,0.1725,0.3805,0.208,1.2561,1.6891,0.433,A,0.18
6,0.50068,1.2,1,0.26703,0.30875,0.51737,6,1.77741,-0.63,-0.31709,0.18358,5,2D1U,2.0,True,0.175,0,False,right,0.08345,0.2362,0.4947,0.2585,0.9363,1.5946,0.6583,A,0.075
7,0.50068,0.1,2,0.35047,0.41723,0.85949,7,2.1529,-0.95,-0.47564,0.02503,5,lapse_rate,1.0,True,0.342,0,False,left,-0.25034,1.5827,1.7911,0.2084,0.3827,0.8162,0.4336,A,0.18
8,0.50068,0.1,1,0.29206,0.30041,0.44226,8,1.56044,-0.95,-0.47564,0.02503,5,lapse_rate,2.0,True,0.114,0,False,right,0.08345,0.2034,0.4111,0.2078,0.72,1.4865,0.7666,A,0.18
9,0.50068,1.2,1,0.44226,0.25868,0.85949,9,2.16959,-0.79,-0.3922,0.10848,5,1D2U,2.0,True,0.346,0,False,right,-0.25034,0.4053,0.5884,0.1831,1.5387,1.8635,0.3248,A,0.075
10,0.50068,0.1,1,0.29206,0.33378,0.77605,10,2.1696,-0.47,-0.23365,0.26703,5,2D1U,2.0,True,0.384,0,False,right,0.08345,0.1977,0.6484,0.4507,1.2901,2.0566,0.7665,A,0.18
11,0.50068,1.2,2,0.3922,0.35882,0.41723,11,2.62021,0.9,0.45061,0.95128,5,lapse_rate,2.0,True,0.25,0,False,right,-0.25034,1.1943,2.2192,1.0249,0.4862,0.811,0.3248,A,0.075
12,0.50068,0.1,1,0.29206,0.42557,0.83446,12,2.16125,-0.79,-0.3922,0.10848,5,1D2U,2.0,True,0.112,0,False,right,0.08345,0.202,0.493,0.291,1.1928,1.9603,0.7674,A,0.18
13,0.50068,1.2,1,0.44226,0.44226,0.72598,13,2.45331,-0.31,-0.15855,0.34213,5,2D1U,2.0,True,1.697,0,False,right,-0.25034,0.4079,0.8241,0.4162,1.641,1.9659,0.3249,A,0.075
14,0.50068,1.2,1,0.33378,0.27537,0.50068,14,1.79409,-0.63,-0.31709,0.18358,5,1D2U,2.0,True,0.274,0,False,right,0.08345,0.2978,0.5561,0.2583,0.9813,1.6399,0.6586,A,0.075
15,0.50068,0.1,1,0.43392,0.33378,0.74267,15,2.43662,-0.15,-0.0751,0.42557,5,2D1U,1.0,False,0.308,0,False,left,-0.25034,0.3388,0.9472,0.6084,1.7223,2.1558,0.4335,A,0.18
16,0.50068,1.2,2,0.33378,0.23365,0.65922,16,2.67861,0.9,0.45061,0.95128,5,lapse_rate,2.0,True,0.291,0,False,right,0.08345,1.5444,2.5697,1.0253,0.2612,0.9191,0.6579,A,0.075
17,0.50068,0.1,2,0.25034,0.35882,0.40889,17,1.70231,-0.63,-0.31709,0.18358,5,1D2U,1.0,True,0.317,0,False,left,-0.25034,1.0323,1.3989,0.3666,0.2824,0.7156,0.4333,A,0.18
18,0.50068,0.1,1,0.23365,0.24199,0.51737,18,2.44497,0.9,0.45061,0.95128,5,lapse_rate,1.0,True,0.258,0,False,left,0.08345,0.1378,1.271,1.1332,1.6543,2.4205,0.7661,A,0.18
19,0.50068,1.2,1,0.24199,0.28372,0.86784,19,2.3198,-0.15,-0.0751,0.42557,5,2D1U,2.0,True,0.267,0,False,right,-0.25034,0.207,0.7069,0.4999,1.6652,1.9899,0.3247,A,0.075
20,0.50068,1.2,2,0.35047,0.3922,0.5424,20,2.29477,0.01,0.00834,0.50902,5,2D1U,2.0,True,0.15,0,False,right,0.08345,1.4453,2.0283,0.5831,0.2785,0.937,0.6585,A,0.075
21,0.50068,0.1,1,0.23365,0.35882,0.65922,21,2.0194,-0.47,-0.23365,0.26703,5,1D2U,2.0,True,0.191,0,False,right,-0.25034,0.143,0.593,0.4501,1.2846,1.7179,0.4333,A,0.18
22,0.50068,1.2,1,0.20027,0.37551,0.60916,22,1.71065,-0.95,-0.47564,0.02503,5,lapse_rate,2.0,True,0.5,0,False,right,0.08345,0.1643,0.2647,0.1004,0.7981,1.4565,0.6584,A,0.075
23,0.50068,1.2,2,0.40889,0.21696,0.47564,23,2.55345,0.9,0.45061,0.95128,5,lapse_rate,2.0,True,0.291,0,False,right,-0.25034,1.2644,2.2899,1.0255,0.4985,0.8231,0.3246,A,0.075
24,0.50068,0.1,2,0.36716,0.38385,0.51737,24,2.27808,0.01,0.00834,0.50902,5,2D1U,2.0,True,0.283,0,False,right,0.08345,1.4217,2.1137,0.6921,0.23,0.9964,0.7664,A,0.18
25,0.50068,1.2,1,0.40889,0.25034,0.4673,25,1.89424,-0.47,-0.23365,0.26703,5,1D2U,2.0,True,0.725,0,False,right,-0.25034,0.3787,0.7201,0.3414,1.2784,1.6035,0.3251,A,0.075
26,0.50068,1.2,2,0.32544,0.21696,0.74267,26,2.25305,-0.07,-0.03338,0.4673,5,2D1U,2.0,False,0.308,1,True,right,0.08345,1.6182,2.1599,0.5417,0.252,0.9098,0.6578,A,0.075
27,0.50068,0.1,2,0.20862,0.26703,0.55909,27,1.87755,-0.31,-0.15855,0.34213,5,1D2U,1.0,True,0.209,0,False,left,-0.25034,1.1403,1.6655,0.5253,0.2404,0.6737,0.4333,A,0.18
28,0.50068,1.2,1,0.20027,0.35047,0.70929,28,1.78574,-0.95,-0.47564,0.02503,5,lapse_rate,2.0,True,0.158,0,False,right,0.08345,0.1638,0.2639,0.1001,0.8971,1.5552,0.6582,A,0.075
29,0.50068,0.1,2,0.3922,0.40889,0.75101,29,3.00406,0.9,0.45061,0.95128,5,lapse_rate,2.0,True,0.25,0,False,right,-0.25034,1.5138,2.6477,1.1339,0.422,0.8558,0.4338,A,0.18
30,0.50068,0.1,2,0.35882,0.31709,0.68426,30,2.20298,-0.31,-0.15855,0.34213,5,1D2U,1.0,True,0.125,0,False,left,0.08345,1.5847,2.1096,0.5249,0.2268,0.9938,0.767,A,0.18
31,0.50068,1.2,2,0.25034,0.36716,0.50068,31,2.08616,-0.07,-0.03338,0.4673,5,2D1U,2.0,False,0.204,1,True,right,-0.25034,1.1342,1.6764,0.5423,0.3432,0.6681,0.3248,A,0.075
32,0.50068,1.2,1,0.25868,0.24199,0.85115,32,2.27807,-0.15,-0.0751,0.42557,5,1D2U,2.0,True,0.217,0,False,right,0.08345,0.2214,0.7209,0.4995,1.4961,2.1545,0.6584,A,0.075
33,0.50068,0.1,1,0.27537,0.29206,0.41723,33,1.51037,-0.95,-0.47564,0.02503,5,lapse_rate,2.0,True,0.308,0,False,right,-0.25034,0.1838,0.3916,0.2078,0.8418,1.2752,0.4334,A,0.18
34,0.50068,0.1,2,0.3922,0.33378,0.6175,34,2.26973,-0.15,-0.0751,0.42557,5,2D1U,2.0,False,0.442,1,False,right,0.08345,1.5518,2.1598,0.608,0.2599,1.0264,0.7664,A,0.18
35,0.50068,0.1,2,0.2253,0.28372,0.79274,35,2.75372,0.9,0.45061,0.95128,5,lapse_rate,2.0,True,0.25,0,False,right,-0.25034,1.3952,2.5279,1.1328,0.2616,0.6946,0.4331,A,0.18
36,0.50068,0.1,1,0.44226,0.26703,0.48399,36,2.11953,-0.15,-0.0751,0.42557,5,1D2U,2.0,True,0.159,0,False,right,0.08345,0.3455,0.9543,0.6088,1.3044,2.0707,0.7663,A,0.18
37,0.50068,1.2,1,0.40889,0.29206,0.85115,37,2.47835,-0.15,-0.0751,0.42557,5,2D1U,2.0,True,0.378,1,False,right,-0.25034,0.3739,0.8739,0.4999,1.8155,2.1406,0.325,A,0.075
38,0.50068,1.2,2,0.40889,0.40054,0.4673,38,2.28643,0.01,0.00834,0.50902,5,1D2U,2.0,True,0.166,0,False,right,0.08345,1.4251,2.0082,0.5831,0.3332,0.9918,0.6586,A,0.075
39,0.50068,0.1,1,0.28372,0.40889,0.71764,39,2.35319,-0.11,-0.05841,0.44226,5,2D1U,2.0,True,0.292,2,True,right,-0.25034,0.1942,0.8189,0.6248,1.5692,2.0027,0.4335,A,0.18
40,0.50068,0.1,2,0.34213,0.28372,0.44226,40,2.52007,0.9,0.45061,0.95128,5,lapse_rate,2.0,True,0.275,0,False,right,0.08345,1.3237,2.4571,1.1333,0.2071,0.9739,0.7668,A,0.18
41,0.50068,1.2,2,0.21696,0.2253,0.72598,41,1.69395,-0.95,-0.47564,0.02503,5,lapse_rate,1.0,True,0.364,0,False,left,-0.25034,1.3257,1.4251,0.0994,0.3091,0.634,0.325,A,0.075
42,0.50068,0.1,2,0.44226,0.45061,0.73432,42,2.59517,-0.07,-0.03338,0.4673,5,2D1U,2.0,False,0.467,2,False,right,0.08345,1.7126,2.3623,0.6497,0.3046,1.071,0.7665,A,0.18
43,0.50068,1.2,2,0.31709,0.42557,0.55909,43,2.26973,-0.07,-0.03338,0.4673,5,1D2U,2.0,False,0.317,1,True,right,-0.25034,1.2568,1.7981,0.5413,0.4067,0.7317,0.325,A,0.075
44,0.50068,1.2,2,0.30875,0.25034,0.7677,44,2.25304,-0.15,-0.0751,0.42557,5,1D2U,2.0,False,0.442,1,False,right,0.08345,1.6217,2.1207,0.499,0.2298,0.8879,0.6581,A,0.075
45,0.50068,1.2,2,0.44226,0.40889,0.71764,45,3.02075,0.9,0.45061,0.95128,5,lapse_rate,2.0,True,0.184,0,False,right,-0.25034,1.5431,2.568,1.025,0.5347,0.8599,0.3252,A,0.075
46,0.50068,0.1,2,0.40889,0.37551,0.43392,46,2.1863,-0.07,-0.03338,0.4673,5,2D1U,2.0,False,0.159,2,False,right,0.08345,1.3808,2.0315,0.6506,0.2723,1.0393,0.767,A,0.18
47,0.50068,0.1,1,0.30041,0.37551,0.47564,47,2.0945,-0.11,-0.05841,0.44226,5,2D1U,2.0,True,0.309,3,True,right,-0.25034,0.2085,0.8335,0.625,1.3421,1.7751,0.4329,A,0.18
48,0.50068,1.2,2,0.42557,0.31709,0.70095,48,2.32814,-0.23,-0.11682,0.38385,5,1D2U,2.0,False,1.725,1,False,right,0.08345,1.673,2.1317,0.4587,0.3482,1.0063,0.6581,A,0.075
49,0.50068,1.2,2,0.38385,0.41723,0.73432,49,2.37821,-0.31,-0.15855,0.34213,5,1D2U,2.0,False,0.278,1,False,right,-0.25034,1.5016,1.918,0.4164,0.4764,0.8013,0.3249,A,0.075
50,0.50068,0.1,1,0.20027,0.21696,0.60081,50,1.82747,-0.39,-0.19193,0.30875,5,1D2U,2.0,True,0.149,1,False,right,0.08345,0.1065,0.5977,0.4913,1.0652,1.8313,0.7661,A,0.18
51,0.50068,0.1,2,0.23365,0.34213,0.55074,51,2.0945,-0.07,-0.03338,0.4673,5,2D1U,2.0,False,0.275,4,True,right,-0.25034,1.1609,1.8116,0.6507,0.2697,0.7033,0.4337,A,0.18
52,0.50068,1.2,1,0.24199,0.34213,0.60081,52,2.15291,-0.07,-0.03338,0.4673,5,2D1U,1.0,False,0.383,4,True,left,0.08345,0.2068,0.7483,0.5415,1.2726,1.9316,0.659,A,0.075
53,0.50068,1.2,1,0.24199,0.23365,0.66757,53,2.08615,-0.11,-0.05841,0.44226,5,2D1U,2.0,True,0.374,5,True,right,-0.25034,0.2093,0.7256,0.5163,1.4845,1.8096,0.3251,A,0.075
54,0.50068,0.1,2,0.38385,0.33378,0.81777,54,2.34483,-0.39,-0.19193,0.30875,5,1D2U,1.0,True,0.113,1,False,left,0.08345,1.745,2.2371,0.4921,0.254,1.0208,0.7668,A,0.18
55,0.50068,0.1,2,0.40889,0.2253,0.72598,55,2.18629,-0.35,-0.17524,0.32544,5,1D2U,1.0,True,0.275,2,True,left,-0.25034,1.5056,2.0141,0.5084,0.4389,0.8724,0.4335,A,0.18
56,0.50068,1.2,2,0.25034,0.21696,0.85115,56,2.14457,-0.35,-0.17524,0.32544,5,1D2U,2.0,False,0.342,2,True,right,0.08345,1.6463,2.0468,0.4005,0.1717,0.8302,0.6585,A,0.075
57,0.50068,1.2,1,0.37551,0.30041,0.77605,57,2.41995,-0.07,-0.03338,0.4673,5,2D1U,2.0,True,0.283,6,True,right,-0.25034,0.3381,0.8796,0.5415,1.7463,2.0712,0.3249,A,0.075
58,0.50068,0.1,1,0.23365,0.2253,0.53405,58,1.80243,-0.39,-0.19193,0.30875,5,1D2U,2.0,True,0.114,3,True,right,0.08345,0.141,0.633,0.492,1.033,1.7991,0.7661,A,0.18
59,0.50068,0.1,2,0.3922,0.21696,0.60916,59,2.20299,-0.03,-0.01669,0.48399,5,2D1U,2.0,False,0.325,6,False,right,-0.25034,1.3734,2.0401,0.6667,0.4235,0.8567,0.4332,A,0.18
60,0.50068,1.2,1,0.28372,0.36716,0.80108,60,2.26139,-0.39,-0.19193,0.30875,5,1D2U,2.0,True,0.243,3,True,right,0.08345,0.2514,0.635,0.3836,1.36,2.0185,0.6585,A,0.075
61,0.50068,1.2,1,0.24199,0.30041,0.70095,61,2.22802,-0.03,-0.01669,0.48399,5,2D1U,2.0,True,0.296,6,False,right,-0.25034,0.205,0.7631,0.5581,1.5546,1.8797,0.3251,A,0.075
62,0.50068,0.1,2,0.36716,0.25034,0.75101,62,2.19463,-0.35,-0.17524,0.32544,5,1D2U,1.0,True,0.192,4,True,left,0.08345,1.6618,2.1693,0.5075,0.2367,1.0037,0.7669,A,0.18
63,0.50068,0.1,1,0.23365,0.40889,0.45061,63,2.10285,0.01,0.00834,0.50902,5,2D1U,2.0,False,0.2,6,False,right,-0.25034,0.1455,0.8365,0.691,1.3192,1.753,0.4338,A,0.18
64,0.50068,1.2,2,0.23365,0.24199,0.8428,64,2.34483,0.05,0.02503,0.52571,5,2D1U,1.0,False,0.225,6,False,left,0.08345,1.6289,2.2277,0.5989,0.1616,0.82,0.6584,A,0.075
65,0.50068,1.2,2,0.2253,0.20862,0.72598,65,1.98602,-0.35,-0.17524,0.32544,5,1D2U,2.0,False,0.426,4,True,right,-0.25034,1.3355,1.7348,0.3993,0.3188,0.6438,0.325,A,0.075
66,0.50068,0.1,1,0.2253,0.41723,0.73432,66,2.41993,0.09,0.04172,0.5424,5,2D1U,1.0,True,0.142,6,False,left,0.08345,0.133,0.8572,0.7242,1.4585,2.2244,0.7659,A,0.18
67,0.50068,0.1,2,0.32544,0.30041,0.67591,67,2.34484,0.09,0.04172,0.5424,5,2D1U,2.0,True,0.241,6,False,right,-0.25034,1.3731,2.0982,0.725,0.3564,0.7898,0.4333,A,0.18
68,0.50068,1.2,2,0.28372,0.38385,0.40054,68,1.87754,-0.39,-0.19193,0.30875,5,1D2U,1.0,True,0.125,5,True,left,0.08345,1.2348,1.6185,0.3837,0.2106,0.8685,0.6579,A,0.075
69,0.50068,1.2,1,0.20027,0.30041,0.64253,69,2.1696,0.05,0.02503,0.52571,5,2D1U,1.0,True,0.316,7,True,left,-0.25034,0.1621,0.7622,0.6001,1.4959,1.8199,0.3241,A,0.075
70,0.50068,0.1,2,0.37551,0.25034,0.79274,70,2.22802,-0.39,-0.19193,0.30875,5,1D2U,1.0,True,0.21,5,True,left,0.08345,1.7067,2.1983,0.4916,0.2403,1.0069,0.7666,A,0.18
71,0.50068,0.1,2,0.26703,0.28372,0.70095,71,2.27809,0.05,0.02503,0.52571,5,2D1U,2.0,True,0.268,7,True,right,-0.25034,1.3411,2.0491,0.708,0.2985,0.732,0.4335,A,0.18
72,0.50068,1.2,2,0.30875,0.42557,0.6175,72,2.36152,0.01,0.00834,0.50902,5,2D1U,2.0,True,0.114,7,False,right,0.08345,1.4743,2.0578,0.5835,0.2333,0.8903,0.657,A,0.075
73,0.50068,1.2,2,0.36716,0.21696,0.85949,73,2.26973,-0.35,-0.17524,0.32544,5,1D2U,1.0,True,0.493,6,True,left,-0.25034,1.6106,2.0105,0.3999,0.4605,0.7857,0.3252,A,0.075
74,0.50068,0.1,1,0.30041,0.29206,0.64253,74,2.2447,0.01,0.00834,0.50902,5,2D1U,2.0,False,0.113,7,False,right,0.08345,0.2078,0.8983,0.6905,1.407,2.1738,0.7668,A,0.18
75,0.50068,0.1,2,0.31709,0.35882,0.75101,75,2.25304,-0.35,-0.17524,0.32544,5,1D2U,1.0,True,0.15,6,True,left,-0.25034,1.4429,1.9513,0.5084,0.3517,0.7847,0.433,A,0.18
76,0.50068,1.2,2,0.41723,0.42557,0.75936,76,2.62855,0.05,0.02503,0.52571,5,2D1U,2.0,True,0.192,8,True,right,0.08345,1.7213,2.3214,0.6001,0.3379,0.9964,0.6585,A,0.075
77,0.50068,1.2,2,0.20862,0.2253,0.60081,77,2.06112,0.05,0.02503,0.52571,5,2D1U,2.0,True,0.292,8,True,right,-0.25034,1.1898,1.7899,0.6001,0.2985,0.6238,0.3253,A,0.075
78,0.50068,0.1,1,0.40889,0.36716,0.55074,78,2.1696,-0.31,-0.15855,0.34213,5,1D2U,2.0,True,0.115,6,False,right,0.08345,0.3143,0.8396,0.5253,1.2577,2.0231,0.7654,A,0.18
79,0.50068,0.1,1,0.20862,0.25034,0.70095,79,2.16961,0.01,0.00834,0.50902,5,2D1U,2.0,False,0.199,9,True,right,-0.25034,0.1181,0.809,0.6909,1.5424,1.9757,0.4333,A,0.18
80,0.50068,1.2,2,0.40054,0.26703,0.75101,80,2.26139,-0.31,-0.15855,0.34213,5,1D2U,1.0,True,0.208,6,False,left,0.08345,1.6986,2.1154,0.4168,0.3236,0.9819,0.6582,A,0.075
81,0.50068,1.2,2,0.30875,0.42557,0.40889,81,2.1696,0.05,0.02503,0.52571,5,2D1U,2.0,True,0.185,10,True,right,-0.25034,1.0976,1.698,0.6004,0.3976,0.7228,0.3252,A,0.075
82,0.50068,0.1,1,0.30041,0.35882,0.72598,82,2.25305,-0.27,-0.13351,0.36716,5,1D2U,2.0,True,0.111,6,False,right,0.08345,0.2053,0.7551,0.5498,1.3466,2.1132,0.7665,A,0.18
83,0.50068,0.1,2,0.38385,0.42557,0.56743,83,2.40324,0.05,0.02503,0.52571,5,2D1U,2.0,True,0.142,10,True,right,-0.25034,1.3273,2.0354,0.7082,0.4187,0.852,0.4333,A,0.18
84,0.50068,1.2,2,0.36716,0.35047,0.45061,84,2.03608,-0.27,-0.13351,0.36716,5,1D2U,1.0,True,0.113,6,False,left,0.08345,1.364,1.8065,0.4424,0.2893,0.9478,0.6584,A,0.075
85,0.50068,1.2,2,0.36716,0.23365,0.8428,85,2.32814,-0.23,-0.11682,0.38385,5,1D2U,2.0,False,0.264,6,False,right,-0.25034,1.5885,2.0469,0.4584,0.455,0.7805,0.3254,A,0.075
86,0.50068,0.1,1,0.25034,0.25034,0.81777,86,2.18629,-0.27,-0.13351,0.36716,5,1D2U,2.0,True,0.113,7,True,right,0.08345,0.1593,0.7101,0.5507,1.393,2.1596,0.7667,A,0.18
87,0.50068,0.1,1,0.20027,0.33378,0.50068,87,2.04443,0.01,0.00834,0.50902,5,2D1U,2.0,False,0.233,11,True,right,-0.25034,0.1042,0.7966,0.6923,1.3301,1.7631,0.433,A,0.18
88,0.50068,1.2,2,0.40054,0.21696,0.60916,88,2.0945,-0.27,-0.13351,0.36716,5,1D2U,2.0,False,0.35,7,True,right,0.08345,1.5582,1.9996,0.4414,0.3254,0.9838,0.6584,A,0.075
89,0.50068,1.2,2,0.40889,0.20862,0.57578,89,2.0361,-0.31,-0.15855,0.34213,5,1D2U,2.0,False,0.31,7,False,right,-0.25034,1.3633,1.7801,0.4168,0.4966,0.8218,0.3252,A,0.075
90,0.50068,0.1,2,0.44226,0.20862,0.86784,90,2.54511,0.05,0.02503,0.52571,5,2D1U,2.0,True,0.111,12,True,right,0.08345,1.8509,2.5675,0.7166,0.3091,1.0759,0.7669,A,0.18
91,0.50068,0.1,2,0.31709,0.31709,0.63419,91,2.09449,-0.35,-0.17524,0.32544,5,1D2U,1.0,True,0.125,7,False,left,-0.25034,1.3246,1.8333,0.5087,0.3492,0.7826,0.4334,A,0.18
92,0.50068,1.2,1,0.44226,0.25868,0.72598,92,2.25304,-0.35,-0.17524,0.32544,5,1D2U,2.0,True,0.192,7,False,right,0.08345,0.4106,0.8107,0.4001,1.4607,2.1189,0.6582,A,0.075
93,0.50068,1.2,2,0.21696,0.33378,0.80108,93,2.19463,-0.31,-0.15855,0.34213,5,1D2U,2.0,False,0.254,8,True,right,-0.25034,1.3952,1.8119,0.4167,0.3037,0.6286,0.3249,A,0.075
94,0.50068,0.1,2,0.29206,0.29206,0.82612,94,2.43663,0.05,0.02503,0.52571,5,2D1U,2.0,True,0.113,12,True,right,0.08345,1.6567,2.365,0.7083,0.1568,0.9233,0.7665,A,0.18
95,0.50068,0.1,1,0.29206,0.32544,0.4673,95,2.0945,0.01,0.00834,0.50902,5,2D1U,2.0,False,0.225,13,True,right,-0.25034,0.1968,0.8885,0.6917,1.3884,1.8219,0.4335,A,0.18
96,0.50068,1.2,1,0.36716,0.33378,0.82612,96,2.55345,0.05,0.02503,0.52571,5,2D1U,2.0,False,0.112,14,True,right,0.08345,0.3322,0.9319,0.5997,1.6819,2.3403,0.6584,A,0.075
97,0.50068,1.2,1,0.25034,0.28372,0.60916,97,1.96934,-0.35,-0.17524,0.32544,5,1D2U,2.0,True,0.246,9,True,right,-0.25034,0.2129,0.6129,0.4,1.3128,1.6379,0.3251,A,0.075
98,0.50068,0.1,1,0.43392,0.38385,0.50902,98,2.15291,-0.35,-0.17524,0.32544,5,1D2U,2.0,True,0.517,9,True,right,0.08345,0.34,0.8482,0.5082,1.2232,1.9901,0.7669,A,0.18
99,0.50068,0.1,2,0.40889,0.25034,0.47564,99,2.17795,0.09,0.04172,0.5424,5,2D1U,2.0,True,0.317,14,False,right,-0.25034,1.2555,1.9805,0.725,0.4388,0.872,0.4332,A,0.18
100,0.50068,1.2,2,0.40889,0.26703,0.45895,100,2.17795,0.09,0.04172,0.5424,5,2D1U,1.0,False,0.325,14,False,left,0.08345,1.4152,2.0319,0.6168,0.3319,0.9901,0.6582,A,0.075
101,0.50068,1.2,2,0.36716,0.44226,0.41723,101,2.06946,-0.31,-0.15855,0.34213,5,1D2U,1.0,True,0.2,10,True,left,-0.25034,1.1637,1.5801,0.4164,0.4552,0.7801,0.3249,A,0.075
102,0.50068,0.1,1,0.34213,0.33378,0.85115,102,2.36987,-0.31,-0.15855,0.34213,5,1D2U,2.0,True,0.508,10,True,right,0.08345,0.2476,0.7727,0.5251,1.4894,2.256,0.7666,A,0.18
103,0.50068,0.1,1,0.35047,0.33378,0.85949,103,2.61185,0.13,0.06676,0.56743,5,2D1U,2.0,False,0.267,14,False,right,-0.25034,0.2531,1.003,0.7499,1.8946,2.3282,0.4336,A,0.18
104,0.50068,1.2,1,0.38385,0.42557,0.43392,104,2.32814,0.17,0.08345,0.58412,5,2D1U,2.0,False,0.209,14,False,right,0.08345,0.3525,1.0106,0.6582,1.3693,2.0275,0.6582,A,0.075
105,0.50068,1.2,1,0.32544,0.33378,0.80108,105,2.32814,-0.27,-0.13351,0.36716,5,1D2U,2.0,True,0.359,10,False,right,-0.25034,0.2861,0.7279,0.4417,1.6195,1.9444,0.3249,A,0.075
106,0.50068,0.1,2,0.37551,0.43392,0.80943,106,2.7287,0.21,0.10848,0.60916,5,2D1U,2.0,True,0.111,14,False,right,0.08345,1.7236,2.5153,0.7917,0.2404,1.0071,0.7667,A,0.18
107,0.50068,0.1,1,0.28372,0.28372,0.60916,107,2.28644,0.21,0.10848,0.60916,5,2D1U,1.0,True,0.359,14,False,left,-0.25034,0.188,0.9797,0.7917,1.6212,2.0546,0.4334,A,0.18
108,0.50068,1.2,2,0.30875,0.40889,0.74267,108,2.32815,-0.27,-0.13351,0.36716,5,1D2U,1.0,True,0.6,10,False,left,0.08345,1.5945,2.0363,0.4418,0.2277,0.8861,0.6584,A,0.075
109,0.50068,1.2,1,0.24199,0.24199,0.86784,109,2.23635,-0.23,-0.11682,0.38385,5,1D2U,2.0,True,0.408,10,False,right,-0.25034,0.2084,0.6666,0.4582,1.6251,1.9501,0.325,A,0.075
110,0.50068,0.1,1,0.3922,0.34213,0.62585,110,2.44498,0.17,0.08345,0.58412,5,2D1U,1.0,True,0.292,15,True,left,0.08345,0.3006,1.0675,0.7669,1.5589,2.3255,0.7666,A,0.18
111,0.50068,0.1,1,0.27537,0.44226,0.75936,111,2.36152,-0.23,-0.11682,0.38385,5,1D2U,2.0,True,0.234,10,False,right,-0.25034,0.1786,0.7451,0.5665,1.5366,1.9699,0.4333,A,0.18
112,0.50068,1.2,1,0.31709,0.29206,0.75101,112,2.26973,-0.19,-0.09179,0.40889,5,1D2U,2.0,True,0.217,10,False,right,0.08345,0.2844,0.7677,0.4833,1.4428,2.1011,0.6583,A,0.075
113,0.50068,1.2,2,0.27537,0.33378,0.8428,113,2.36152,-0.19,-0.09179,0.40889,5,1D2U,1.0,True,0.274,10,False,left,-0.25034,1.5021,1.9857,0.4836,0.3688,0.6938,0.325,A,0.075
114,0.50068,0.1,2,0.41723,0.20862,0.79274,114,2.50339,0.17,0.08345,0.58412,5,2D1U,2.0,True,0.112,15,True,right,0.08345,1.7508,2.5234,0.7726,0.2841,1.0509,0.7668,A,0.18
115,0.50068,0.1,1,0.33378,0.42557,0.51737,115,2.34483,0.13,0.06676,0.56743,5,2D1U,2.0,False,0.158,15,False,right,-0.25034,0.2367,0.9867,0.75,1.5366,1.9702,0.4336,A,0.18
116,0.50068,1.2,1,0.41723,0.34213,0.62585,116,2.31146,-0.15,-0.0751,0.42557,5,1D2U,2.0,True,0.112,10,False,right,0.08345,0.3799,0.8798,0.5,1.4299,2.0881,0.6582,A,0.075
117,0.50068,1.2,1,0.23365,0.40889,0.62585,117,2.35319,0.17,0.08345,0.58412,5,2D1U,2.0,False,0.25,16,True,right,-0.25034,0.195,0.8541,0.6591,1.5707,1.8958,0.325,A,0.075
118,0.50068,0.1,1,0.20862,0.23365,0.53405,118,1.90257,-0.15,-0.0751,0.42557,5,1D2U,2.0,True,0.176,10,False,right,0.08345,0.1143,0.7224,0.6081,1.1224,1.8891,0.7667,A,0.18
119,0.50068,0.1,1,0.25034,0.38385,0.5424,119,2.11953,-0.11,-0.05841,0.44226,5,1D2U,2.0,True,0.283,10,False,right,-0.25034,0.1563,0.7812,0.6249,1.3562,1.7898,0.4335,A,0.18
120,0.50068,1.2,2,0.43392,0.42557,0.43392,120,2.40325,0.21,0.10848,0.60916,5,2D1U,2.0,True,0.124,16,False,right,0.08345,1.416,2.0988,0.6828,0.3571,1.0157,0.6585,A,0.075
121,0.50068,1.2,2,0.31709,0.32544,0.72598,121,2.47835,0.21,0.10848,0.60916,5,2D1U,2.0,True,0.226,16,False,right,-0.25034,1.4208,2.1041,0.6833,0.4044,0.7293,0.3249,A,0.075
122,0.50068,0.1,1,0.36716,0.34213,0.67591,122,2.32814,-0.11,-0.05841,0.44226,5,1D2U,2.0,True,0.114,10,False,right,0.08345,0.276,0.9014,0.6254,1.4424,2.2099,0.7675,A,0.18
123,0.50068,0.1,1,0.25868,0.37551,0.40054,123,2.00271,-0.07,-0.03338,0.4673,5,1D2U,2.0,True,0.209,10,False,right,-0.25034,0.1649,0.8151,0.6502,1.2482,1.6818,0.4336,A,0.18
124,0.50068,1.2,2,0.43392,0.25868,0.81777,124,2.59517,0.17,0.08345,0.58412,5,2D1U,2.0,True,0.132,17,True,right,0.08345,1.8022,2.4606,0.6584,0.3608,1.0192,0.6584,A,0.075
125,0.50068,1.2,2,0.25868,0.29206,0.63419,125,2.26973,0.17,0.08345,0.58412,5,2D1U,2.0,True,0.269,17,True,right,-0.25034,1.2761,1.9342,0.6581,0.3504,0.676,0.3256,A,0.075
126,0.50068,0.1,2,0.25034,0.23365,0.71764,126,2.26974,0.13,0.06676,0.56743,5,2D1U,2.0,True,0.114,17,False,right,0.08345,1.5039,2.2539,0.7501,0.1118,0.8783,0.7665,A,0.18
127,0.50068,0.1,1,0.40889,0.27537,0.57578,127,2.22802,-0.07,-0.03338,0.4673,5,1D2U,2.0,True,0.258,10,False,right,-0.25034,0.3194,0.9694,0.6499,1.5769,2.0105,0.4336,A,0.18
128,0.50068,1.2,2,0.3922,0.40054,0.4673,128,2.32815,0.13,0.06676,0.56743,5,2D1U,2.0,True,0.114,17,False,right,0.08345,1.4103,2.0527,0.6425,0.319,0.9771,0.6581,A,0.075
129,0.50068,1.2,2,0.31709,0.21696,0.85115,129,2.36987,-0.03,-0.01669,0.48399,5,1D2U,2.0,False,0.334,10,False,right,-0.25034,1.5482,2.1066,0.5584,0.407,0.7317,0.3247,A,0.075
130,0.50068,0.1,1,0.3922,0.25034,0.60916,130,2.29478,0.09,0.04172,0.5424,5,2D1U,2.0,False,0.113,17,False,right,0.08345,0.2968,1.0218,0.725,1.4966,2.2637,0.7671,A,0.18
131,0.50068,0.1,1,0.25034,0.31709,0.87618,131,2.51172,0.13,0.06676,0.56743,5,2D1U,2.0,False,0.341,18,True,right,-0.25034,0.1575,0.9074,0.7499,1.8159,2.2493,0.4334,A,0.18
132,0.50068,1.2,1,0.38385,0.40054,0.75101,132,2.50338,-0.07,-0.03338,0.4673,5,1D2U,2.0,True,0.275,11,True,right,0.08345,0.3512,0.8923,0.5411,1.5672,2.2262,0.659,A,0.075
133,0.50068,1.2,2,0.27537,0.38385,0.50902,133,2.25304,0.17,0.08345,0.58412,5,2D1U,2.0,True,0.196,18,False,right,-0.25034,1.1633,1.8218,0.6585,0.364,0.6886,0.3246,A,0.075
134,0.50068,0.1,1,0.30875,0.30875,0.60081,134,2.18629,-0.07,-0.03338,0.4673,5,1D2U,2.0,True,0.11,11,True,right,0.08345,0.2144,0.8642,0.6497,1.3311,2.0976,0.7666,A,0.18
135,0.50068,0.1,2,0.44226,0.36716,0.70929,135,2.60351,0.17,0.08345,0.58412,5,2D1U,2.0,True,0.342,18,False,right,-0.25034,1.5224,2.2897,0.7673,0.4726,0.906,0.4334,A,0.18
136,0.50068,1.2,1,0.37551,0.32544,0.72598,136,2.4116,-0.03,-0.01669,0.48399,5,1D2U,1.0,False,0.233,12,True,left,0.08345,0.3386,0.8964,0.5579,1.5468,2.2055,0.6587,A,0.075
137,0.50068,1.2,1,0.40054,0.34213,0.40889,137,2.11954,-0.07,-0.03338,0.4673,5,1D2U,1.0,False,0.235,13,True,left,-0.25034,0.3688,0.91,0.5412,1.4101,1.735,0.3249,A,0.075
138,0.50068,0.1,1,0.29206,0.29206,0.80108,138,2.32814,-0.11,-0.05841,0.44226,5,1D2U,2.0,True,0.2,13,False,right,0.08345,0.2005,0.8262,0.6258,1.493,2.2594,0.7664,A,0.18
139,0.50068,0.1,1,0.32544,0.31709,0.47564,139,2.18628,0.13,0.06676,0.56743,5,2D1U,1.0,True,0.2,19,True,left,-0.25034,0.2346,0.9836,0.749,1.4925,1.926,0.4334,A,0.18
140,0.50068,1.2,2,0.30041,0.33378,0.80943,140,2.51173,0.13,0.06676,0.56743,5,2D1U,2.0,True,0.174,19,True,right,0.08345,1.6552,2.2969,0.6417,0.2224,0.8808,0.6584,A,0.075
141,0.50068,1.2,1,0.40889,0.25034,0.74267,141,2.34484,-0.11,-0.05841,0.44226,5,1D2U,1.0,False,0.604,13,False,left,-0.25034,0.3787,0.8947,0.516,1.7279,2.0536,0.3257,A,0.075
142,0.50068,0.1,1,0.24199,0.32544,0.73432,142,2.228,-0.15,-0.0751,0.42557,5,1D2U,2.0,True,0.113,13,False,right,0.08345,0.1476,0.755,0.6074,1.3556,2.1225,0.767,A,0.18
143,0.50068,0.1,2,0.36716,0.40054,0.40054,143,2.09449,-0.15,-0.0751,0.42557,5,1D2U,1.0,True,0.15,13,False,left,-0.25034,1.138,1.7461,0.6081,0.3962,0.8297,0.4335,A,0.18
144,0.50068,1.2,2,0.35882,0.41723,0.51737,144,2.3365,0.09,0.04172,0.5424,5,2D1U,2.0,True,0.574,19,False,right,0.08345,1.4266,2.0434,0.6168,0.285,0.9431,0.6582,A,0.075
145,0.50068,1.2,1,0.44226,0.28372,0.66757,145,2.43663,0.09,0.04172,0.5424,5,2D1U,1.0,True,0.242,19,False,left,-0.25034,0.4063,1.0241,0.6178,1.7811,2.1068,0.3256,A,0.075
146,0.50068,0.1,1,0.3922,0.31709,0.41723,146,2.15291,0.05,0.02503,0.52571,5,2D1U,2.0,False,0.583,19,False,right,0.08345,0.3027,1.0109,0.7083,1.2943,2.0607,0.7664,A,0.18
147,0.50068,0.1,2,0.40889,0.21696,0.75936,147,2.32815,-0.11,-0.05841,0.44226,5,1D2U,2.0,False,0.299,14,True,right,-0.25034,1.5373,2.1619,0.6246,0.4374,0.8704,0.433,A,0.18
148,0.50068,1.2,1,0.35882,0.35047,0.63419,148,2.26973,-0.15,-0.0751,0.42557,5,1D2U,2.0,True,0.133,15,True,right,0.08345,0.3256,0.8258,0.5002,1.3843,2.0422,0.6579,A,0.075
149,0.50068,1.2,1,0.38385,0.36716,0.80943,149,2.48669,-0.15,-0.0751,0.42557,5,1D2U,2.0,True,0.214,15,True,right,-0.25034,0.3483,0.8476,0.4994,1.7481,2.073,0.325,A,0.075
150,0.50068,0.1,2,0.20862,0.31709,0.74267,150,2.31146,0.09,0.04172,0.5424,5,2D1U,2.0,True,0.114,20,True,right,0.08345,1.4943,2.2186,0.7244,0.0775,0.844,0.7666,A,0.18
151,0.50068,0.1,2,0.41723,0.38385,0.52571,151,2.26973,-0.11,-0.05841,0.44226,5,1D2U,2.0,False,0.116,16,True,right,-0.25034,1.319,1.9444,0.6254,0.4528,0.8867,0.4339,A,0.18
152,0.50068,1.2,1,0.44226,0.32544,0.5424,152,2.35318,0.09,0.04172,0.5424,5,2D1U,2.0,False,0.184,20,True,right,0.08345,0.4099,1.0265,0.6167,1.4923,2.1511,0.6588,A,0.075
153,0.50068,1.2,2,0.43392,0.28372,0.53405,153,2.3198,0.13,0.06676,0.56743,5,2D1U,2.0,True,0.259,20,False,right,-0.25034,1.3487,1.9899,0.6413,0.5228,0.8483,0.3255,A,0.075
154,0.50068,0.1,1,0.21696,0.24199,0.62585,154,2.01105,-0.15,-0.0751,0.42557,5,1D2U,2.0,True,0.113,17,True,right,0.08345,0.1222,0.7305,0.6082,1.2221,1.9888,0.7667,A,0.18
155,0.50068,0.1,1,0.27537,0.34213,0.55909,155,2.2447,0.13,0.06676,0.56743,5,2D1U,2.0,False,0.217,20,False,right,-0.25034,0.1841,0.934,0.7498,1.5257,1.9592,0.4334,A,0.18
156,0.50068,1.2,1,0.20862,0.37551,0.60916,156,2.27809,0.17,0.08345,0.58412,5,2D1U,1.0,True,0.113,20,False,left,0.08345,0.1736,0.8318,0.6582,1.3648,2.0231,0.6583,A,0.075
157,0.50068,1.2,1,0.27537,0.24199,0.60081,157,2.04442,-0.15,-0.0751,0.42557,5,1D2U,1.0,False,0.263,17,True,left,-0.25034,0.239,0.7383,0.4993,1.4307,1.7557,0.325,A,0.075
158,0.50068,0.1,2,0.40889,0.30875,0.8428,158,2.47001,-0.19,-0.09179,0.40889,5,1D2U,2.0,False,0.15,17,False,right,0.08345,1.7955,2.3871,0.5916,0.2786,1.0457,0.7671,A,0.18
159,0.50068,0.1,2,0.35882,0.29206,0.72598,159,2.26139,-0.23,-0.11682,0.38385,5,1D2U,2.0,False,0.251,17,False,right,-0.25034,1.4587,2.0249,0.5661,0.3923,0.8251,0.4328,A,0.18
160,0.50068,1.2,2,0.20862,0.40889,0.90122,160,2.60353,0.17,0.08345,0.58412,5,2D1U,2.0,True,0.209,20,False,right,0.08345,1.6561,2.3145,0.6584,0.1311,0.7893,0.6581,A,0.075
161,0.50068,1.2,1,0.45061,0.40889,0.86784,161,2.79545,0.13,0.06676,0.56743,5,2D1U,2.0,False,0.26,21,True,right,-0.25034,0.4168,1.0586,0.6418,2.0172,2.3421,0.3249,A,0.075
162,0.50068,0.1,2,0.42557,0.2253,0.75936,162,2.27807,-0.27,-0.13351,0.36716,5,1D2U,2.0,False,0.399,17,False,right,0.08345,1.722,2.2713,0.5493,0.2884,1.0554,0.767,A,0.18
163,0.50068,0.1,1,0.30041,0.44226,0.47564,163,2.30311,0.17,0.08345,0.58412,5,2D1U,2.0,False,0.167,22,True,right,-0.25034,0.2065,0.9734,0.7669,1.4815,1.9145,0.4329,A,0.18
164,0.50068,1.2,1,0.32544,0.41723,0.89287,164,2.74538,0.21,0.10848,0.60916,5,2D1U,2.0,False,0.666,22,False,right,0.08345,0.2892,0.9718,0.6826,1.7885,2.4473,0.6588,A,0.075
165,0.50068,1.2,2,0.21696,0.33378,0.83446,165,2.22801,-0.31,-0.15855,0.34213,5,1D2U,1.0,True,0.29,17,False,left,-0.25034,1.4349,1.8516,0.4167,0.3091,0.6341,0.325,A,0.075
166,0.50068,0.1,1,0.20027,0.35882,0.43392,166,2.11954,0.25,0.12517,0.62585,5,2D1U,2.0,False,0.517,22,False,right,0.08345,0.1053,0.9132,0.808,1.2139,1.9804,0.7665,A,0.18
167,0.50068,0.1,1,0.21696,0.25034,0.83446,167,2.14457,-0.31,-0.15855,0.34213,5,1D2U,2.0,True,0.183,17,False,right,-0.25034,0.1274,0.6528,0.5254,1.5192,1.9524,0.4332,A,0.18
168,0.50068,1.2,1,0.32544,0.3922,0.51737,168,2.37822,0.29,0.14186,0.64253,5,2D1U,2.0,False,0.167,22,False,right,0.08345,0.2893,1.0059,0.7165,1.447,2.1058,0.6588,A,0.075
169,0.50068,1.2,1,0.20862,0.30041,0.44226,169,2.11954,0.33,0.16689,0.66757,5,2D1U,1.0,True,0.225,22,False,left,-0.25034,0.1751,0.9164,0.7413,1.4495,1.7748,0.3253,A,0.075
170,0.50068,0.1,2,0.38385,0.20862,0.59247,170,2.35319,0.33,0.16689,0.66757,5,2D1U,2.0,True,0.115,22,False,right,0.08345,1.5147,2.3637,0.8491,0.2475,1.0148,0.7673,A,0.18
171,0.50068,0.1,2,0.2253,0.38385,0.53405,171,2.01104,-0.27,-0.13351,0.36716,5,1D2U,1.0,True,0.233,18,True,left,-0.25034,1.1372,1.6876,0.5504,0.2622,0.6955,0.4333,A,0.18
172,0.50068,1.2,1,0.30041,0.38385,0.70929,172,2.26139,-0.27,-0.13351,0.36716,5,1D2U,2.0,True,0.142,18,True,right,0.08345,0.2629,0.7055,0.4426,1.3387,1.997,0.6583,A,0.075
173,0.50068,1.2,1,0.27537,0.3922,0.55074,173,2.10284,-0.23,-0.11682,0.38385,5,1D2U,1.0,False,0.18,18,False,left,-0.25034,0.2383,0.6971,0.4588,1.3381,1.664,0.3259,A,0.075
174,0.50068,0.1,1,0.40889,0.42557,0.65088,174,2.62855,0.29,0.14186,0.64253,5,2D1U,2.0,False,0.113,23,True,right,0.08345,0.3125,1.1374,0.8249,1.654,2.4207,0.7667,A,0.18
175,0.50068,0.1,2,0.30041,0.25868,0.81777,175,2.2447,-0.27,-0.13351,0.36716,5,1D2U,1.0,True,0.267,19,True,left,-0.25034,1.4905,2.0404,0.5498,0.3323,0.7661,0.4337,A,0.18
176,0.50068,1.2,2,0.28372,0.3922,0.5424,176,2.08616,-0.27,-0.13351,0.36716,5,1D2U,2.0,False,0.134,19,True,right,0.08345,1.3744,1.8165,0.4421,0.2081,0.8665,0.6584,A,0.075
177,0.50068,1.2,1,0.25868,0.3922,0.4673,177,2.28643,0.33,0.16689,0.66757,5,2D1U,2.0,False,0.275,24,True,right,-0.25034,0.2259,0.9677,0.7419,1.5256,1.8508,0.3252,A,0.075
178,0.50068,0.1,2,0.41723,0.3922,0.74267,178,2.39491,-0.31,-0.15855,0.34213,5,1D2U,1.0,True,0.114,19,False,left,0.08345,1.6978,2.2227,0.5248,0.2803,1.0476,0.7673,A,0.18
179,0.50068,0.1,2,0.21696,0.25034,0.45061,179,1.76072,-0.31,-0.15855,0.34213,5,1D2U,1.0,True,0.393,19,False,left,-0.25034,1.042,1.5666,0.5247,0.2505,0.6833,0.4328,A,0.18
180,0.50068,1.2,1,0.36716,0.23365,0.47564,180,2.26139,0.37,0.18358,0.68426,5,2D1U,2.0,False,0.2,24,False,right,0.08345,0.3304,1.0886,0.7582,1.4886,2.1474,0.6588,A,0.075
181,0.50068,1.2,1,0.44226,0.33378,0.70095,181,2.34483,-0.27,-0.13351,0.36716,5,1D2U,2.0,True,0.283,20,True,right,-0.25034,0.4111,0.852,0.441,1.6438,1.969,0.3252,A,0.075
182,0.50068,0.1,2,0.35047,0.41723,0.63419,182,2.60352,0.41,0.20862,0.70095,5,2D1U,2.0,True,0.5,24,False,right,0.08345,1.5263,2.4092,0.883,0.2181,0.9845,0.7664,A,0.18
183,0.50068,0.1,1,0.35882,0.26703,0.44226,183,1.93595,-0.27,-0.13351,0.36716,5,1D2U,2.0,True,0.275,20,True,right,-0.25034,0.263,0.8128,0.5498,1.2878,1.7206,0.4328,A,0.18
184,0.50068,1.2,2,0.23365,0.43392,0.67591,184,2.54511,0.41,0.20862,0.70095,5,2D1U,2.0,True,0.116,24,False,right,0.08345,1.4596,2.2342,0.7746,0.16,0.8175,0.6575,A,0.075
185,0.50068,1.2,2,0.26703,0.31709,0.40054,185,2.1696,0.37,0.18358,0.68426,5,2D1U,2.0,True,0.26,25,True,right,-0.25034,1.045,1.8042,0.7591,0.354,0.6787,0.3247,A,0.075
186,0.50068,0.1,1,0.32544,0.32544,0.70095,186,2.23636,-0.23,-0.11682,0.38385,5,1D2U,2.0,True,0.184,20,False,right,0.08345,0.2303,0.7961,0.5658,1.3639,2.1303,0.7665,A,0.18
187,0.50068,0.1,2,0.40054,0.43392,0.83446,187,2.85386,0.37,0.18358,0.68426,5,2D1U,2.0,True,0.113,25,True,right,-0.25034,1.6045,2.4713,0.8668,0.4301,0.8627,0.4326,A,0.18
188,0.50068,1.2,1,0.44226,0.3922,0.89287,188,2.61186,-0.23,-0.11682,0.38385,5,1D2U,2.0,True,0.167,20,False,right,0.08345,0.4064,0.8648,0.4584,1.6811,2.3395,0.6583,A,0.075
189,0.50068,1.2,2,0.25868,0.44226,0.66757,189,2.53676,0.33,0.16689,0.66757,5,2D1U,2.0,True,0.252,25,False,right,-0.25034,1.3096,2.0514,0.7418,0.3521,0.6768,0.3248,A,0.075
190,0.50068,0.1,2,0.29206,0.35882,0.75936,190,2.57849,0.33,0.16689,0.66757,5,2D1U,2.0,True,0.113,25,False,right,0.08345,1.5905,2.4406,0.85,0.1576,0.9239,0.7664,A,0.18
191,0.50068,0.1,2,0.34213,0.24199,0.5424,191,2.26973,0.29,0.14186,0.64253,5,2D1U,2.0,True,0.292,25,False,right,-0.25034,1.2566,2.0815,0.8249,0.3732,0.8067,0.4334,A,0.18
192,0.50068,1.2,2,0.21696,0.44226,0.62585,192,2.42828,0.29,0.14186,0.64253,5,2D1U,2.0,True,0.114,25,False,right,0.08345,1.3921,2.1084,0.7163,0.1417,0.8002,0.6584,A,0.075
193,0.50068,1.2,1,0.25034,0.40054,0.63419,193,2.19464,-0.19,-0.09179,0.40889,5,1D2U,2.0,True,0.337,20,False,right,-0.25034,0.2134,0.6961,0.4827,1.4207,1.7465,0.3258,A,0.075
194,0.50068,0.1,2,0.3922,0.38385,0.8428,194,2.52842,-0.19,-0.09179,0.40889,5,1D2U,1.0,True,0.114,20,False,left,0.08345,1.7767,2.3685,0.5918,0.2599,1.0265,0.7666,A,0.18
195,0.50068,0.1,2,0.20862,0.43392,0.50068,195,2.06947,-0.15,-0.0751,0.42557,5,1D2U,2.0,False,0.265,20,False,right,-0.25034,1.0791,1.6881,0.609,0.2384,0.6717,0.4333,A,0.18
196,0.50068,1.2,2,0.33378,0.25034,0.66757,196,2.37822,0.25,0.12517,0.62585,5,2D1U,2.0,True,0.175,25,False,right,0.08345,1.5513,2.2513,0.7,0.2591,0.9185,0.6594,A,0.075
197,0.50068,1.2,1,0.42557,0.32544,0.90122,197,2.5618,-0.19,-0.09179,0.40889,5,1D2U,2.0,True,0.306,21,True,right,-0.25034,0.3866,0.8704,0.4839,1.862,2.1871,0.325,A,0.075
198,0.50068,0.1,2,0.26703,0.29206,0.40889,198,2.09451,0.25,0.12517,0.62585,5,2D1U,2.0,True,0.191,25,False,right,0.08345,1.214,2.0223,0.8084,0.1306,0.8973,0.7667,A,0.18
199,0.50068,0.1,2,0.38385,0.30875,0.65088,199,2.45332,0.21,0.10848,0.60916,5,2D1U,2.0,True,0.359,25,False,right,-0.25034,1.4113,2.2032,0.7919,0.4194,0.8527,0.4332,A,0.18
200,0.50068,1.2,1,0.27537,0.26703,0.53405,200,2.18629,0.21,0.10848,0.60916,5,2D1U,2.0,False,0.217,25,False,right,0.08345,0.2366,0.9207,0.6841,1.3792,2.037,0.6578,A,0.075
201,0.50068,1.2,2,0.34213,0.20862,0.89287,201,2.35319,-0.19,-0.09179,0.40889,5,1D2U,2.0,False,0.285,21,True,right,-0.25034,1.6117,2.0956,0.4838,0.4283,0.754,0.3257,A,0.075
202,0.50068,0.1,1,0.37551,0.32544,0.7677,202,2.35318,-0.23,-0.11682,0.38385,5,1D2U,2.0,True,0.15,21,False,right,0.08345,0.2795,0.8455,0.566,1.4796,2.2463,0.7667,A,0.18
203,0.50068,0.1,2,0.27537,0.30041,0.65088,203,2.11119,-0.23,-0.11682,0.38385,5,1D2U,1.0,True,0.242,21,False,left,-0.25034,1.3007,1.8673,0.5666,0.3093,0.7425,0.4331,A,0.18
204,0.50068,1.2,1,0.43392,0.35047,0.80943,204,2.72035,0.25,0.12517,0.62585,5,2D1U,2.0,False,0.124,26,True,right,0.08345,0.3961,1.0963,0.7001,1.8299,2.4876,0.6578,A,0.075
205,0.50068,1.2,2,0.31709,0.34213,0.66757,205,2.47,0.29,0.14186,0.64253,5,2D1U,2.0,True,0.217,26,False,right,-0.25034,1.3621,2.0788,0.7167,0.4039,0.7292,0.3252,A,0.075
206,0.50068,0.1,1,0.23365,0.32544,0.88453,206,2.35319,-0.19,-0.09179,0.40889,5,1D2U,2.0,True,0.2,22,True,right,0.08345,0.1425,0.7342,0.5918,1.484,2.2501,0.7661,A,0.18
207,0.50068,0.1,1,0.20027,0.36716,0.47564,207,1.95264,-0.19,-0.09179,0.40889,5,1D2U,2.0,True,0.191,22,True,right,-0.25034,0.1094,0.7009,0.5915,1.2096,1.6431,0.4334,A,0.18
208,0.50068,1.2,1,0.21696,0.32544,0.62585,208,2.31146,0.29,0.14186,0.64253,5,2D1U,2.0,False,0.111,26,False,right,0.08345,0.1803,0.8965,0.7162,1.4464,2.1047,0.6583,A,0.075
209,0.50068,1.2,1,0.40889,0.3922,0.85949,209,2.82883,0.33,0.16689,0.66757,5,2D1U,2.0,False,0.21,26,False,right,-0.25034,0.3766,1.1186,0.7419,2.0686,2.3936,0.325,A,0.075
210,0.50068,0.1,2,0.26703,0.44226,0.40889,210,2.30312,0.37,0.18358,0.68426,5,2D1U,2.0,True,0.111,26,False,right,0.08345,1.2144,2.0807,0.8664,0.1307,0.8978,0.7671,A,0.18
211,0.50068,0.1,2,0.43392,0.40054,0.45895,211,2.21966,-0.15,-0.0751,0.42557,5,1D2U,2.0,False,0.192,22,False,right,-0.25034,1.2634,1.871,0.6076,0.4633,0.8967,0.4334,A,0.18
212,0.50068,1.2,2,0.41723,0.35047,0.64253,212,2.3198,-0.19,-0.09179,0.40889,5,1D2U,1.0,True,0.25,23,True,left,0.08345,1.6075,2.0912,0.4837,0.3412,0.9991,0.6579,A,0.075
213,0.50068,1.2,2,0.29206,0.35882,0.70095,213,2.53677,0.37,0.18358,0.68426,5,2D1U,2.0,True,0.224,26,False,right,-0.25034,1.3723,2.1307,0.7584,0.3801,0.7056,0.3256,A,0.075
214,0.50068,0.1,1,0.31709,0.40054,0.41723,214,2.30311,0.33,0.16689,0.66757,5,2D1U,1.0,True,0.159,27,True,left,0.08345,0.2261,1.0758,0.8497,1.3595,2.1261,0.7667,A,0.18
215,0.50068,0.1,2,0.29206,0.3922,0.80108,215,2.39491,-0.19,-0.09179,0.40889,5,1D2U,2.0,False,0.166,23,True,right,-0.25034,1.4648,2.0565,0.5916,0.3233,0.7565,0.4332,A,0.18
216,0.50068,1.2,1,0.33378,0.2253,0.85949,216,2.3031,-0.23,-0.11682,0.38385,5,1D2U,2.0,True,0.143,23,False,right,0.08345,0.3014,0.7596,0.4582,1.5429,2.2013,0.6584,A,0.075
217,0.50068,1.2,1,0.21696,0.35047,0.85949,217,2.59517,0.33,0.16689,0.66757,5,2D1U,1.0,True,0.178,27,True,left,-0.25034,0.1859,0.9271,0.7412,1.8771,2.2027,0.3256,A,0.075
218,0.50068,0.1,2,0.38385,0.28372,0.50902,218,2.06112,-0.23,-0.11682,0.38385,5,1D2U,2.0,False,0.491,23,False,right,0.08345,1.4296,1.9967,0.5671,0.2468,1.0135,0.7666,A,0.18
219,0.50068,0.1,2,0.35882,0.20862,0.43392,219,2.14457,0.29,0.14186,0.64253,5,2D1U,2.0,True,0.251,27,False,right,-0.25034,1.1638,1.9889,0.825,0.3888,0.8216,0.4328,A,0.18
220,0.50068,1.2,1,0.40054,0.30041,0.82612,220,2.67028,0.29,0.14186,0.64253,5,2D1U,2.0,False,0.617,27,False,right,0.08345,0.367,1.0832,0.7162,1.8335,2.4914,0.6578,A,0.075
221,0.50068,1.2,1,0.37551,0.45061,0.65922,221,2.65359,0.33,0.16689,0.66757,5,2D1U,1.0,True,0.116,28,True,left,-0.25034,0.3423,1.0847,0.7424,1.8349,2.1593,0.3244,A,0.075
222,0.50068,0.1,2,0.27537,0.20027,0.83446,222,2.17794,-0.27,-0.13351,0.36716,5,1D2U,1.0,True,0.112,23,False,left,0.08345,1.6533,2.2118,0.5585,0.1452,0.9117,0.7665,A,0.18
223,0.50068,0.1,1,0.38385,0.21696,0.70095,223,2.1696,-0.27,-0.13351,0.36716,5,1D2U,2.0,True,0.308,23,False,right,-0.25034,0.2915,0.8404,0.5489,1.5745,2.0077,0.4332,A,0.18
224,0.50068,1.2,2,0.36716,0.31709,0.78439,224,2.35317,-0.23,-0.11682,0.38385,5,1D2U,2.0,False,0.183,24,True,right,0.08345,1.7013,2.1598,0.4585,0.2932,0.9514,0.6582,A,0.075
225,0.50068,1.2,2,0.21696,0.20862,0.81777,225,2.4116,0.33,0.16689,0.66757,5,2D1U,2.0,True,0.259,28,True,right,-0.25034,1.419,2.1605,0.7415,0.31,0.6355,0.3255,A,0.075
226,0.50068,0.1,2,0.36716,0.40889,0.89287,226,2.81213,0.29,0.14186,0.64253,5,2D1U,2.0,True,0.112,29,True,right,0.08345,1.8022,2.6275,0.8254,0.2361,1.0021,0.766,A,0.18
227,0.50068,0.1,2,0.36716,0.37551,0.83446,227,2.44497,-0.27,-0.13351,0.36716,5,1D2U,1.0,True,0.117,25,True,left,-0.25034,1.5777,2.1276,0.5499,0.4029,0.8364,0.4335,A,0.18
228,0.50068,1.2,1,0.35047,0.25034,0.85115,228,2.3198,-0.27,-0.13351,0.36716,5,1D2U,2.0,True,0.166,25,True,right,0.08345,0.3125,0.7548,0.4422,1.5297,2.1881,0.6584,A,0.075
229,0.50068,1.2,2,0.45061,0.26703,0.87618,229,2.73703,0.29,0.14186,0.64253,5,2D1U,2.0,True,0.257,29,True,right,-0.25034,1.7101,2.4271,0.7169,0.5439,0.8688,0.3249,A,0.075
230,0.50068,0.1,2,0.25034,0.25868,0.79274,230,2.42829,0.25,0.12517,0.62585,5,2D1U,2.0,True,0.113,29,False,right,0.08345,1.5801,2.3882,0.8081,0.1135,0.8797,0.7662,A,0.18
231,0.50068,0.1,2,0.26703,0.43392,0.77605,231,2.36153,-0.23,-0.11682,0.38385,5,1D2U,1.0,True,0.142,26,True,left,-0.25034,1.4189,1.9849,0.566,0.3023,0.7356,0.4333,A,0.18
232,0.50068,1.2,2,0.37551,0.29206,0.64253,232,2.43663,0.25,0.12517,0.62585,5,2D1U,2.0,True,0.112,29,False,right,0.08345,1.5665,2.2665,0.7001,0.3008,0.9585,0.6577,A,0.075
233,0.50068,1.2,2,0.30875,0.41723,0.66757,233,2.27808,-0.23,-0.11682,0.38385,5,1D2U,2.0,False,0.449,26,True,right,-0.25034,1.357,1.8143,0.4573,0.3982,0.723,0.3248,A,0.075
234,0.50068,0.1,2,0.2253,0.30875,0.85115,234,2.25304,-0.27,-0.13351,0.36716,5,1D2U,1.0,True,0.509,27,True,left,0.08345,1.6142,2.1639,0.5497,0.089,0.8557,0.7666,A,0.18
235,0.50068,0.1,1,0.24199,0.25034,0.55909,235,2.16126,0.21,0.10848,0.60916,5,2D1U,2.0,False,0.266,29,False,right,-0.25034,0.1485,0.9396,0.7911,1.5318,1.9654,0.4336,A,0.18
236,0.50068,1.2,2,0.32544,0.40889,0.77605,236,2.37822,-0.27,-0.13351,0.36716,5,1D2U,2.0,False,0.141,27,True,right,0.08345,1.6471,2.0896,0.4426,0.2479,0.9061,0.6582,A,0.075
237,0.50068,1.2,2,0.27537,0.30875,0.89287,237,2.60352,0.25,0.12517,0.62585,5,2D1U,2.0,True,0.241,30,True,right,-0.25034,1.548,2.2482,0.7002,0.3645,0.69,0.3255,A,0.075
238,0.50068,0.1,2,0.37551,0.33378,0.85949,238,2.41159,-0.31,-0.15855,0.34213,5,1D2U,1.0,True,0.113,27,False,left,0.08345,1.7734,2.2983,0.5249,0.2398,1.0067,0.7668,A,0.18
239,0.50068,0.1,2,0.3922,0.21696,0.52571,239,1.97768,-0.31,-0.15855,0.34213,5,1D2U,1.0,True,0.25,27,False,left,-0.25034,1.2905,1.8155,0.5249,0.424,0.857,0.433,A,0.18
240,0.50068,1.2,2,0.44226,0.27537,0.40054,240,2.2447,0.25,0.12517,0.62585,5,2D1U,2.0,True,0.283,30,True,right,0.08345,1.388,2.088,0.6999,0.363,1.0213,0.6584,A,0.075
241,0.50068,1.2,1,0.23365,0.41723,0.55074,241,2.31146,0.21,0.10848,0.60916,5,2D1U,1.0,True,0.216,31,True,left,-0.25034,0.1967,0.8801,0.6835,1.5215,1.8465,0.325,A,0.075
242,0.50068,0.1,2,0.36716,0.40889,0.75101,242,2.6369,0.21,0.10848,0.60916,5,2D1U,2.0,True,0.475,31,True,right,0.08345,1.6598,2.451,0.7911,0.234,1.0015,0.7676,A,0.18
243,0.50068,0.1,2,0.26703,0.34213,0.81777,243,2.29477,-0.27,-0.13351,0.36716,5,1D2U,1.0,True,0.225,28,True,left,-0.25034,1.4612,2.0111,0.55,0.3027,0.737,0.4343,A,0.18
244,0.50068,1.2,1,0.30875,0.38385,0.79274,244,2.35318,-0.27,-0.13351,0.36716,5,1D2U,2.0,True,0.158,28,True,right,0.08345,0.2765,0.7173,0.4408,1.4344,2.0928,0.6583,A,0.075
245,0.50068,1.2,2,0.31709,0.43392,0.45895,245,2.09449,-0.23,-0.11682,0.38385,5,1D2U,2.0,False,0.237,28,False,right,-0.25034,1.1568,1.6157,0.459,0.4065,0.7315,0.325,A,0.075
246,0.50068,0.1,1,0.20862,0.36716,0.70095,246,2.36153,0.17,0.08345,0.58412,5,2D1U,2.0,False,0.45,31,False,right,0.08345,0.1156,0.8828,0.7672,1.449,2.2151,0.766,A,0.18
247,0.50068,0.1,2,0.21696,0.43392,0.78439,247,2.54511,0.21,0.10848,0.60916,5,2D1U,2.0,True,0.201,32,True,right,-0.25034,1.374,2.1655,0.7914,0.2482,0.6826,0.4345,A,0.18
248,0.50068,1.2,1,0.41723,0.36716,0.89287,248,2.5451,-0.27,-0.13351,0.36716,5,1D2U,2.0,True,0.209,29,True,right,0.08345,0.3819,0.8237,0.4417,1.6402,2.298,0.6577,A,0.075
249,0.50068,1.2,1,0.29206,0.20027,0.58412,249,1.94429,-0.27,-0.13351,0.36716,5,1D2U,2.0,True,0.391,29,True,right,-0.25034,0.2625,0.7035,0.441,1.3783,1.7034,0.3251,A,0.075
250,0.50068,0.1,1,0.34213,0.30041,0.50902,250,2.2614,0.21,0.10848,0.60916,5,2D1U,1.0,True,1.042,32,True,left,0.08345,0.2504,1.0427,0.7923,1.4176,2.1844,0.7668,A,0.18
251,0.50068,0.1,2,0.37551,0.43392,0.41723,251,2.31146,0.17,0.08345,0.58412,5,2D1U,2.0,True,0.267,33,True,right,-0.25034,1.1646,1.9314,0.7668,0.406,0.8385,0.4325,A,0.18
252,0.50068,1.2,2,0.35882,0.3922,0.63419,252,2.26974,-0.23,-0.11682,0.38385,5,1D2U,2.0,False,0.225,30,True,right,0.08345,1.5392,1.9976,0.4584,0.2811,0.9394,0.6583,A,0.075
253,0.50068,1.2,1,0.36716,0.35047,0.48399,253,2.28642,0.17,0.08345,0.58412,5,2D1U,2.0,False,0.297,33,True,right,-0.25034,0.332,0.9901,0.6581,1.5652,1.89,0.3249,A,0.075
254,0.50068,0.1,2,0.28372,0.30875,0.82612,254,2.28643,-0.27,-0.13351,0.36716,5,1D2U,2.0,False,0.284,31,True,right,0.08345,1.6483,2.1984,0.5501,0.148,0.9147,0.7667,A,0.18
255,0.50068,0.1,2,0.26703,0.21696,0.79274,255,2.38657,0.21,0.10848,0.60916,5,2D1U,2.0,True,0.291,34,True,right,-0.25034,1.4366,2.2284,0.7919,0.3034,0.7367,0.4333,A,0.18
256,0.50068,1.2,1,0.31709,0.20862,0.75101,256,2.11953,-0.31,-0.15855,0.34213,5,1D2U,2.0,True,0.2,31,False,right,0.08345,0.2812,0.6979,0.4167,1.3734,2.0306,0.6572,A,0.075
257,0.50068,1.2,1,0.37551,0.38385,0.90122,257,2.77042,0.21,0.10848,0.60916,5,2D1U,2.0,False,0.273,34,True,right,-0.25034,0.34,1.0237,0.6837,2.0151,2.3404,0.3253,A,0.075
258,0.50068,0.1,1,0.33378,0.21696,0.81777,258,2.21132,-0.31,-0.15855,0.34213,5,1D2U,2.0,True,0.15,31,False,right,0.08345,0.2411,0.766,0.5248,1.4494,2.2158,0.7664,A,0.18
259,0.50068,0.1,2,0.21696,0.29206,0.70095,259,2.3365,0.25,0.12517,0.62585,5,2D1U,2.0,True,0.159,34,False,right,-0.25034,1.2954,2.1036,0.8082,0.253,0.6874,0.4343,A,0.18
260,0.50068,1.2,2,0.3922,0.43392,0.40054,260,2.0945,-0.27,-0.13351,0.36716,5,1D2U,1.0,True,0.225,32,True,left,0.08345,1.3383,1.78,0.4417,0.3138,0.9718,0.658,A,0.075
261,0.50068,1.2,2,0.27537,0.43392,0.75936,261,2.33649,-0.27,-0.13351,0.36716,5,1D2U,2.0,False,0.287,32,True,right,-0.25034,1.4146,1.8566,0.4421,0.3653,0.6901,0.3248,A,0.075
262,0.50068,0.1,1,0.35047,0.28372,0.85115,262,2.61187,0.25,0.12517,0.62585,5,2D1U,1.0,True,0.4,34,False,left,0.08345,0.2568,1.0654,0.8086,1.782,2.5485,0.7665,A,0.18
263,0.50068,0.1,1,0.26703,0.30041,0.86784,263,2.27809,-0.31,-0.15855,0.34213,5,1D2U,2.0,True,0.308,33,True,right,-0.25034,0.1716,0.697,0.5254,1.5973,2.0303,0.4331,A,0.18
264,0.50068,1.2,1,0.41723,0.40054,0.74267,264,2.67028,0.21,0.10848,0.60916,5,2D1U,2.0,False,0.826,35,True,right,0.08345,0.3831,1.0662,0.683,1.7327,2.3908,0.6581,A,0.075
265,0.50068,1.2,1,0.24199,0.40054,0.82612,265,2.59518,0.25,0.12517,0.62585,5,2D1U,1.0,True,0.223,36,True,left,-0.25034,0.2092,0.9093,0.7001,1.8254,2.1511,0.3257,A,0.075
266,0.50068,0.1,2,0.20862,0.2253,0.45061,266,2.01106,0.25,0.12517,0.62585,5,2D1U,2.0,True,0.117,36,True,right,0.08345,1.1968,2.0058,0.809,0.0725,0.8397,0.7672,A,0.18
267,0.50068,0.1,1,0.40889,0.40889,0.6926,267,2.62022,0.21,0.10848,0.60916,5,2D1U,1.0,True,0.242,37,True,left,-0.25034,0.3137,1.1057,0.792,1.8305,2.2637,0.4332,A,0.18
268,0.50068,1.2,2,0.38385,0.45061,0.55909,268,2.23636,-0.31,-0.15855,0.34213,5,1D2U,1.0,True,0.199,33,True,left,0.08345,1.4911,1.9072,0.416,0.3076,0.9661,0.6585,A,0.075
269,0.50068,1.2,1,0.25034,0.32544,0.75936,269,2.44498,0.21,0.10848,0.60916,5,2D1U,2.0,False,0.328,37,True,right,-0.25034,0.218,0.9014,0.6834,1.751,2.0763,0.3253,A,0.075
270,0.50068,0.1,2,0.42557,0.43392,0.85949,270,2.84551,0.25,0.12517,0.62585,5,2D1U,2.0,True,0.114,38,True,right,0.08345,1.823,2.6314,0.8084,0.2899,1.0568,0.7669,A,0.18
271,0.50068,0.1,1,0.2253,0.38385,0.6175,271,2.09449,-0.27,-0.13351,0.36716,5,1D2U,2.0,True,0.217,34,True,right,-0.25034,0.129,0.6791,0.5501,1.3287,1.7623,0.4337,A,0.18
272,0.50068,1.2,2,0.32544,0.26703,0.60916,272,2.06947,-0.27,-0.13351,0.36716,5,1D2U,1.0,True,0.517,34,True,left,0.08345,1.4804,1.9217,0.4412,0.2472,0.9059,0.6587,A,0.075
273,0.50068,1.2,2,0.20027,0.32544,0.47564,273,2.12788,0.25,0.12517,0.62585,5,2D1U,2.0,True,0.272,38,True,right,-0.25034,1.0576,1.7566,0.699,0.2904,0.6154,0.325,A,0.075
274,0.50068,0.1,2,0.40889,0.21696,0.44226,274,2.17795,0.21,0.10848,0.60916,5,2D1U,2.0,True,0.125,39,True,right,0.08345,1.3895,2.1814,0.7919,0.2732,1.0397,0.7665,A,0.18
275,0.50068,0.1,1,0.35047,0.40054,0.70095,275,2.33649,-0.23,-0.11682,0.38385,5,1D2U,2.0,True,0.2,34,False,right,-0.25034,0.2605,0.8266,0.5661,1.5603,1.9938,0.4335,A,0.18
276,0.50068,1.2,1,0.30041,0.38385,0.50068,276,2.29478,0.21,0.10848,0.60916,5,2D1U,2.0,False,0.175,39,True,right,0.08345,0.264,0.9467,0.6827,1.3716,2.0299,0.6583,A,0.075
277,0.50068,1.2,2,0.40054,0.36716,0.7677,277,2.66193,0.25,0.12517,0.62585,5,2D1U,2.0,True,0.245,40,True,right,-0.25034,1.5507,2.2518,0.7011,0.4933,0.8175,0.3242,A,0.075
278,0.50068,0.1,1,0.37551,0.33378,0.83446,278,2.42828,-0.23,-0.11682,0.38385,5,1D2U,2.0,True,0.114,34,False,right,0.08345,0.2811,0.848,0.5669,1.5478,2.3144,0.7665,A,0.18
279,0.50068,0.1,2,0.43392,0.43392,0.83446,279,2.82883,0.25,0.12517,0.62585,5,2D1U,2.0,True,0.168,40,True,right,-0.25034,1.6432,2.4513,0.8081,0.4679,0.9015,0.4336,A,0.18
280,0.50068,1.2,1,0.30875,0.34213,0.45895,280,2.21967,0.21,0.10848,0.60916,5,2D1U,2.0,False,0.233,41,True,right,0.08345,0.2766,0.9597,0.6831,1.3432,2.0016,0.6583,A,0.075
281,0.50068,1.2,2,0.45061,0.35047,0.79274,281,2.72035,0.25,0.12517,0.62585,5,2D1U,2.0,True,0.342,42,True,right,-0.25034,1.6215,2.3215,0.7,0.5394,0.8638,0.3243,A,0.075
282,0.50068,0.1,1,0.33378,0.20862,0.64253,282,2.31146,0.25,0.12517,0.62585,5,2D1U,2.0,False,0.226,42,True,right,0.08345,0.2444,1.0527,0.8084,1.5612,2.3307,0.7695,A,0.18
283,0.50068,0.1,2,0.35882,0.34213,0.50068,283,2.1112,-0.19,-0.09179,0.40889,5,1D2U,2.0,False,0.325,34,False,right,-0.25034,1.2343,1.8266,0.5923,0.3931,0.8261,0.433,A,0.18
284,0.50068,1.2,1,0.24199,0.23365,0.65922,284,2.27807,0.29,0.14186,0.64253,5,2D1U,2.0,False,0.234,42,False,right,0.08345,0.2117,0.9279,0.7162,1.5118,2.17,0.6582,A,0.075
285,0.50068,1.2,1,0.36716,0.26703,0.55909,285,2.36153,0.33,0.16689,0.66757,5,2D1U,2.0,False,0.364,42,False,right,-0.25034,0.3302,1.072,0.7418,1.7216,2.0469,0.3254,A,0.075
286,0.50068,0.1,2,0.41723,0.32544,0.44226,286,2.06946,-0.23,-0.11682,0.38385,5,1D2U,1.0,True,0.111,35,True,left,0.08345,1.4017,1.9687,0.567,0.2851,1.0518,0.7667,A,0.18
287,0.50068,0.1,2,0.36716,0.35882,0.62585,287,2.53677,0.37,0.18358,0.68426,5,2D1U,2.0,True,0.25,42,False,right,-0.25034,1.3642,2.23,0.8658,0.3968,0.8305,0.4337,A,0.18
288,0.50068,1.2,2,0.31709,0.23365,0.53405,288,1.96932,-0.23,-0.11682,0.38385,5,1D2U,1.0,True,0.275,35,True,left,0.08345,1.4001,1.8584,0.4583,0.2418,0.9001,0.6583,A,0.075
289,0.50068,1.2,2,0.25868,0.27537,0.85115,289,2.29477,-0.19,-0.09179,0.40889,5,1D2U,2.0,False,0.303,36,True,right,-0.25034,1.4935,1.9766,0.483,0.3514,0.6765,0.3251,A,0.075
290,0.50068,0.1,2,0.26703,0.21696,0.6175,290,1.98602,-0.23,-0.11682,0.38385,5,1D2U,1.0,True,0.141,37,True,left,0.08345,1.423,1.9895,0.5664,0.1315,0.8981,0.7666,A,0.18
291,0.50068,0.1,2,0.37551,0.42557,0.44226,291,2.42828,0.37,0.18358,0.68426,5,2D1U,2.0,True,0.217,42,False,right,-0.25034,1.1922,2.0591,0.8669,0.4092,0.8422,0.433,A,0.18
292,0.50068,1.2,1,0.35047,0.37551,0.50902,292,2.40325,0.33,0.16689,0.66757,5,2D1U,1.0,True,0.114,43,True,left,0.08345,0.3146,1.0565,0.7419,1.49,2.1482,0.6582,A,0.075
293,0.50068,1.2,2,0.20027,0.34213,0.56743,293,2.27808,0.33,0.16689,0.66757,5,2D1U,2.0,True,0.28,43,True,right,-0.25034,1.1455,1.8873,0.7418,0.2872,0.6122,0.3249,A,0.075
294,0.50068,0.1,2,0.27537,0.32544,0.40054,294,1.88588,-0.23,-0.11682,0.38385,5,1D2U,1.0,True,0.359,37,True,left,0.08345,1.2183,1.7844,0.5661,0.1428,0.9097,0.7668,A,0.18
295,0.50068,0.1,1,0.36716,0.26703,0.72598,295,2.50338,0.29,0.14186,0.64253,5,2D1U,1.0,True,0.509,43,False,left,-0.25034,0.2718,1.0968,0.825,1.8553,2.2884,0.4332,A,0.18
296,0.50068,1.2,1,0.36716,0.41723,0.41723,296,2.11119,-0.19,-0.09179,0.40889,5,1D2U,2.0,True,0.25,38,True,right,0.08345,0.3318,0.8143,0.4825,1.157,1.8151,0.6581,A,0.075
297,0.50068,1.2,2,0.36716,0.42557,0.58412,297,2.28642,-0.19,-0.09179,0.40889,5,1D2U,2.0,False,0.282,38,True,right,-0.25034,1.3304,1.8131,0.4827,0.4542,0.7786,0.3245,A,0.075
298,0.50068,0.1,2,0.23365,0.31709,0.48399,298,2.17794,0.29,0.14186,0.64253,5,2D1U,2.0,True,0.114,43,False,right,0.08345,1.2595,2.0841,0.8246,0.1009,0.8676,0.7667,A,0.18
299,0.50068,0.1,1,0.35882,0.35047,0.64253,299,2.23635,-0.23,-0.11682,0.38385,5,1D2U,2.0,True,0.258,39,True,right,-0.25034,0.2648,0.8317,0.5669,1.5063,1.9402,0.434,A,0.18
300,0.50068,1.2,2,0.35882,0.38385,0.57578,300,2.20298,-0.23,-0.11682,0.38385,5,1D2U,1.0,True,0.191,39,True,left,0.08345,1.4829,1.9406,0.4577,0.2832,0.9413,0.6581,A,0.075
301,0.50068,1.2,2,0.34213,0.29206,0.66757,301,2.42829,0.25,0.12517,0.62585,5,2D1U,2.0,True,0.226,43,False,right,-0.25034,1.3901,2.0902,0.7001,0.4319,0.7573,0.3253,A,0.075
302,0.50068,0.1,1,0.30875,0.25034,0.52571,302,2.21133,0.25,0.12517,0.62585,5,2D1U,2.0,False,0.113,43,False,right,0.08345,0.2143,1.0224,0.808,1.4137,2.1807,0.767,A,0.18
303,0.50068,0.1,1,0.42557,0.35882,0.66757,303,2.36153,-0.19,-0.09179,0.40889,5,1D2U,2.0,True,0.226,40,True,right,-0.25034,0.3311,0.9229,0.5919,1.6231,2.0562,0.4331,A,0.18
304,0.50068,1.2,1,0.44226,0.20862,0.81777,304,2.37822,-0.19,-0.09179,0.40889,5,1D2U,2.0,True,0.193,40,True,right,0.08345,0.4098,0.8933,0.4835,1.6353,2.2929,0.6576,A,0.075
305,0.50068,1.2,1,0.25034,0.32544,0.78439,305,2.28642,-0.15,-0.0751,0.42557,5,1D2U,1.0,False,0.316,40,False,left,-0.25034,0.2177,0.7175,0.4998,1.5924,1.9173,0.3249,A,0.075
306,0.50068,0.1,2,0.41723,0.25034,0.48399,306,2.06113,-0.19,-0.09179,0.40889,5,1D2U,2.0,False,0.133,41,True,right,0.08345,1.4428,2.0345,0.5917,0.2846,1.0515,0.7669,A,0.18
307,0.50068,0.1,1,0.43392,0.30875,0.85115,307,2.47835,-0.23,-0.11682,0.38385,5,1D2U,2.0,True,0.285,41,False,right,-0.25034,0.3438,0.9101,0.5664,1.7939,2.2268,0.433,A,0.18
308,0.50068,1.2,1,0.3922,0.3922,0.74267,308,2.4116,-0.23,-0.11682,0.38385,5,1D2U,2.0,True,0.112,41,False,right,0.08345,0.3587,0.8168,0.4581,1.4837,2.1426,0.6589,A,0.075
309,0.50068,1.2,2,0.2253,0.40054,0.41723,309,1.95264,-0.19,-0.09179,0.40889,5,1D2U,1.0,True,0.191,42,True,left,-0.25034,1.0219,1.5049,0.483,0.3133,0.6383,0.325,A,0.075
310,0.50068,0.1,2,0.37551,0.2253,0.75936,310,2.26974,-0.19,-0.09179,0.40889,5,1D2U,2.0,False,0.175,42,True,right,0.08345,1.6762,2.2679,0.5916,0.2428,1.0094,0.7666,A,0.18
311,0.50068,0.1,2,0.29206,0.33378,0.41723,311,1.9276,-0.23,-0.11682,0.38385,5,1D2U,2.0,False,0.276,43,True,right,-0.25034,1.0805,1.6472,0.5667,0.3224,0.7558,0.4334,A,0.18
0,0.49847,1.2,2,0.38216,0.23262,0.43201,0,1.59511,-0.9,-0.44862,0.04985,5,2D1U,1.0,True,1.543,0,False,left,0.08308,1.3563,1.4979,0.1416,0.2478,1.0142,0.7664,A,0.18
1,0.49847,0.1,2,0.4237,0.23262,0.66463,1,2.76652,0.9,0.44862,0.9471,5,lapse_rate,2.0,True,0.226,0,False,right,-0.24924,1.4728,2.4642,0.9914,0.5144,0.8393,0.3249,A,0.075
2,0.49847,1.2,1,0.29078,0.41539,0.73109,2,1.98558,-0.9,-0.44862,0.04985,5,1D2U,2.0,True,0.292,0,False,right,0.08308,0.2016,0.435,0.2334,1.0351,1.8016,0.7665,A,0.18
3,0.49847,0.1,1,0.26585,0.2077,0.8474,3,1.95235,-0.74,-0.37385,0.13293,5,2D1U,2.0,True,0.256,0,False,right,-0.24924,0.2306,0.4387,0.2081,1.3803,1.7053,0.325,A,0.075
4,0.49847,0.1,1,0.34062,0.28247,0.88063,4,2.94929,0.9,0.44862,0.9471,5,lapse_rate,1.0,True,0.283,0,False,left,0.08308,0.3046,1.3296,1.025,2.1379,2.7962,0.6583,A,0.075
5,0.49847,0.1,2,0.28247,0.216,0.58986,5,1.7945,-0.58,-0.29078,0.2077,5,2D1U,1.0,True,0.481,0,False,left,-0.24924,1.258,1.5083,0.2503,0.3747,0.6998,0.3252,A,0.075
6,0.49847,1.2,1,0.39047,0.40709,0.55663,6,1.90251,-0.9,-0.44862,0.04985,5,1D2U,2.0,True,0.217,0,False,right,0.08308,0.2967,0.5299,0.2333,0.955,1.7216,0.7666,A,0.18
7,0.49847,1.2,2,0.44862,0.29078,0.68955,7,2.87452,0.9,0.44862,0.9471,5,lapse_rate,2.0,True,0.189,0,False,right,-0.24924,1.5184,2.56,1.0416,0.4851,0.9185,0.4334,A,0.18
8,0.49847,1.2,1,0.26585,0.39047,0.49016,8,1.6948,-0.9,-0.44862,0.04985,5,lapse_rate,2.0,True,0.532,0,False,right,0.08308,0.1723,0.4056,0.2333,0.7639,1.5307,0.7668,A,0.18
9,0.49847,1.2,1,0.38216,0.30739,0.4237,9,1.9025,-0.42,-0.2077,0.29078,5,2D1U,1.0,False,0.425,0,False,left,-0.24924,0.2935,0.7683,0.4748,1.2267,1.6602,0.4334,A,0.18
10,0.49847,0.1,2,0.24093,0.37385,0.58155,10,1.82773,-0.74,-0.37385,0.13293,5,1D2U,1.0,True,0.258,0,False,left,0.08308,1.3761,1.5513,0.1751,0.1676,0.8264,0.6587,A,0.075
11,0.49847,1.2,2,0.22431,0.23262,0.67294,11,2.57544,0.9,0.44862,0.9471,5,lapse_rate,2.0,True,0.359,0,False,right,-0.24924,1.271,2.3124,1.0414,0.2541,0.6875,0.4334,A,0.18
12,0.49847,0.1,2,0.34062,0.34062,0.44032,12,1.91081,-0.42,-0.2077,0.29078,5,2D1U,1.0,True,0.28,0,False,left,0.08308,1.328,1.6613,0.3333,0.2614,0.9198,0.6584,A,0.075
13,0.49847,1.2,2,0.4237,0.24924,0.44032,13,1.74466,-0.74,-0.37385,0.13293,5,1D2U,1.0,True,0.245,0,False,left,-0.24924,1.2367,1.4618,0.2251,0.4533,0.8865,0.4332,A,0.18
14,0.49847,1.2,2,0.32401,0.26585,0.47355,14,1.93573,-0.26,-0.13293,0.37385,5,2D1U,2.0,False,0.767,0,False,right,0.08308,1.339,1.8062,0.4673,0.1891,0.9563,0.7672,A,0.18
15,0.49847,1.2,1,0.22431,0.29078,0.72278,15,1.78619,-0.9,-0.44862,0.04985,5,lapse_rate,2.0,True,0.118,0,False,right,-0.24924,0.131,0.3652,0.2342,1.1232,1.5564,0.4332,A,0.18
16,0.49847,0.1,1,0.22431,0.26585,0.65632,16,1.85265,-0.58,-0.29078,0.2077,5,1D2U,2.0,True,0.186,0,False,right,0.08308,0.1918,0.4753,0.2835,1.0587,1.7173,0.6586,A,0.075
17,0.49847,0.1,2,0.37385,0.27416,0.5317,17,2.62528,0.9,0.44862,0.9471,5,lapse_rate,2.0,True,0.113,0,False,right,-0.24924,1.2946,2.2861,0.9915,0.4695,0.7946,0.3251,A,0.075
18,0.49847,0.1,1,0.29078,0.36555,0.83079,18,2.35944,-0.26,-0.13293,0.37385,5,2D1U,1.0,False,0.2,0,False,left,0.08308,0.2597,0.7097,0.4499,1.4675,2.1265,0.659,A,0.075
19,0.49847,1.2,2,0.27416,0.39047,0.78094,19,2.15174,-0.58,-0.29078,0.2077,5,1D2U,1.0,True,0.239,0,False,left,-0.24924,1.4358,1.7354,0.2996,0.3106,0.7436,0.433,A,0.18
20,0.49847,1.2,1,0.44862,0.34893,0.81417,20,2.40097,-0.42,-0.2077,0.29078,5,1D2U,2.0,True,0.116,0,False,right,0.08308,0.3576,0.8329,0.4753,1.5159,2.2822,0.7663,A,0.18
21,0.49847,0.1,2,0.40709,0.43201,0.55663,21,2.22651,-0.34,-0.16616,0.33231,5,2D1U,1.0,True,0.112,1,True,left,-0.24924,1.3487,1.7234,0.3748,0.4978,0.8237,0.3259,A,0.075
22,0.49847,0.1,1,0.44032,0.24924,0.64801,22,1.88589,-0.9,-0.44862,0.04985,5,lapse_rate,2.0,True,0.106,0,False,right,0.08308,0.4093,0.5343,0.125,1.1091,1.7675,0.6585,A,0.075
23,0.49847,0.1,2,0.2077,0.39878,0.8474,23,2.30128,-0.3,-0.14954,0.34893,5,2D1U,1.0,True,0.487,2,True,left,-0.24924,1.4404,1.8318,0.3914,0.2987,0.6237,0.325,A,0.075
24,0.49847,1.2,2,0.4237,0.37385,0.58155,24,1.92742,-0.9,-0.44862,0.04985,5,lapse_rate,1.0,True,0.236,0,False,left,0.08308,1.5526,1.6935,0.1409,0.2935,1.0604,0.7669,A,0.18
25,0.49847,1.2,1,0.26585,0.43201,0.5234,25,2.01051,-0.42,-0.2077,0.29078,5,1D2U,2.0,True,0.258,0,False,right,-0.24924,0.175,0.6499,0.4749,1.2083,1.6415,0.4332,A,0.18
26,0.49847,0.1,1,0.24924,0.36555,0.55663,26,1.71974,-0.9,-0.44862,0.04985,5,lapse_rate,2.0,True,0.113,0,False,right,0.08308,0.2139,0.339,0.1251,0.8223,1.4807,0.6583,A,0.075
27,0.49847,1.2,1,0.27416,0.26585,0.5317,27,1.94403,-0.26,-0.13293,0.37385,5,2D1U,2.0,True,0.244,2,False,right,-0.24924,0.1815,0.7397,0.5583,1.3064,1.7398,0.4333,A,0.18
28,0.49847,0.1,2,0.3157,0.25754,0.77263,28,2.21819,-0.26,-0.13293,0.37385,5,1D2U,2.0,False,0.294,0,False,right,0.08308,1.6383,2.0543,0.416,0.2378,0.8964,0.6586,A,0.075
29,0.49847,0.1,2,0.37385,0.30739,0.79756,29,2.30958,-0.34,-0.16616,0.33231,5,1D2U,2.0,False,0.204,1,True,right,-0.24924,1.5605,1.9356,0.375,0.4693,0.7942,0.3248,A,0.075
30,0.49847,1.2,2,0.4237,0.2077,0.47355,30,1.99389,-0.22,-0.108,0.39047,5,2D1U,2.0,False,1.56,2,False,right,0.08308,1.4364,1.9199,0.4835,0.2869,1.0536,0.7667,A,0.18
31,0.49847,1.2,2,0.34893,0.2077,0.68955,31,2.69175,0.9,0.44862,0.9471,5,lapse_rate,2.0,True,0.111,0,False,right,-0.24924,1.4133,2.4557,1.0424,0.3794,0.8129,0.4336,A,0.18
32,0.49847,1.2,1,0.2077,0.35724,0.61478,32,2.06866,-0.22,-0.108,0.39047,5,2D1U,2.0,True,0.483,2,False,right,0.08308,0.1153,0.6909,0.5756,1.174,1.9414,0.7674,A,0.18
33,0.49847,0.1,1,0.44032,0.4237,0.77263,33,3.08222,0.9,0.44862,0.9471,5,lapse_rate,1.0,True,0.25,0,False,left,-0.24924,0.4097,1.4345,1.0248,2.3014,2.6271,0.3257,A,0.075
34,0.49847,0.1,1,0.2077,0.32401,0.5317,34,1.85266,-0.42,-0.2077,0.29078,5,1D2U,2.0,True,0.208,1,False,right,0.08308,0.1739,0.5393,0.3654,0.9984,1.6566,0.6583,A,0.075
35,0.49847,0.1,2,0.44032,0.33231,0.45693,35,2.13512,-0.18,-0.09139,0.40709,5,2D1U,2.0,False,0.24,2,False,right,-0.24924,1.2825,1.7312,0.4488,0.5322,0.8568,0.3246,A,0.075
36,0.49847,1.2,2,0.30739,0.23262,0.68955,36,2.01881,-0.42,-0.2077,0.29078,5,1D2U,1.0,True,1.601,1,False,left,0.08308,1.5441,1.9275,0.3834,0.1776,0.9445,0.7669,A,0.18
37,0.49847,1.2,2,0.27416,0.37385,0.48186,37,1.67819,-0.9,-0.44862,0.04985,5,lapse_rate,1.0,True,0.717,0,False,left,-0.24924,1.1298,1.2709,0.1411,0.3053,0.7385,0.4332,A,0.18
38,0.49847,1.2,2,0.29908,0.23262,0.72278,38,2.06034,-0.38,-0.19108,0.30739,5,1D2U,2.0,False,0.425,2,True,right,0.08308,1.5698,1.9694,0.3996,0.169,0.9366,0.7676,A,0.18
39,0.49847,0.1,1,0.36555,0.32401,0.75602,39,2.35114,-0.18,-0.09139,0.40709,5,2D1U,2.0,True,0.227,2,False,right,-0.24924,0.3355,0.8184,0.4829,1.6692,1.9942,0.325,A,0.075
40,0.49847,1.2,2,0.39047,0.39047,0.45693,40,2.68344,0.9,0.44862,0.9471,5,lapse_rate,2.0,True,0.11,0,False,right,0.08308,1.3894,2.4309,1.0415,0.2563,1.0228,0.7665,A,0.18
41,0.49847,0.1,1,0.36555,0.39047,0.75602,41,2.44252,-0.14,-0.06646,0.43201,5,2D1U,2.0,True,0.319,2,False,right,-0.24924,0.332,0.8398,0.5078,1.6904,2.0159,0.3255,A,0.075
42,0.49847,1.2,1,0.41539,0.29078,0.46524,42,1.96066,-0.42,-0.2077,0.29078,5,1D2U,2.0,True,0.22,3,True,right,0.08308,0.3243,0.7986,0.4743,1.1325,1.8989,0.7664,A,0.18
43,0.49847,0.1,1,0.24093,0.29078,0.74771,43,2.72499,0.9,0.44862,0.9471,5,lapse_rate,1.0,True,0.265,0,False,left,-0.24924,0.2062,1.2313,1.0252,2.0722,2.3979,0.3258,A,0.075
44,0.49847,1.2,2,0.39047,0.39878,0.5234,44,2.25974,-0.1,-0.04985,0.44862,5,2D1U,2.0,False,0.111,2,False,right,0.08308,1.4618,2.0025,0.5407,0.2611,1.0289,0.7678,A,0.18
45,0.49847,0.1,2,0.27416,0.44862,0.88063,45,2.39266,-0.42,-0.2077,0.29078,5,1D2U,1.0,True,0.513,3,True,left,-0.24924,1.545,1.878,0.333,0.3701,0.6951,0.325,A,0.075
46,0.49847,1.2,1,0.35724,0.41539,0.49016,46,2.70836,0.9,0.44862,0.9471,5,lapse_rate,2.0,False,0.256,0,False,right,0.08308,0.2642,1.3974,1.1332,1.756,2.5229,0.7669,A,0.18
47,0.49847,0.1,1,0.30739,0.29908,0.5234,47,1.93573,-0.38,-0.19108,0.30739,5,1D2U,2.0,True,0.254,4,True,right,-0.24924,0.273,0.6565,0.3835,1.2725,1.5972,0.3247,A,0.075
48,0.49847,0.1,2,0.36555,0.24924,0.56494,48,2.6253,0.9,0.44862,0.9471,5,lapse_rate,2.0,True,0.111,0,False,right,0.08308,1.4797,2.4706,0.991,0.2874,0.9462,0.6588,A,0.075
49,0.49847,1.2,2,0.24924,0.24093,0.60647,49,2.04373,-0.1,-0.04985,0.44862,5,2D1U,2.0,False,0.333,2,False,right,-0.24924,1.2293,1.7717,0.5423,0.2797,0.7135,0.4338,A,0.18
50,0.49847,1.2,1,0.23262,0.41539,0.89725,50,2.35112,-0.38,-0.19108,0.30739,5,1D2U,2.0,True,0.111,4,True,right,0.08308,0.1446,0.6358,0.4912,1.4036,2.1695,0.7659,A,0.18
51,0.49847,0.1,1,0.3157,0.39878,0.7394,51,2.38436,-0.14,-0.06646,0.43201,5,2D1U,2.0,True,0.188,3,True,right,-0.24924,0.2803,0.7883,0.5081,1.6217,1.9472,0.3255,A,0.075
52,0.49847,1.2,1,0.19939,0.24093,0.88894,52,2.77483,0.9,0.44862,0.9471,5,lapse_rate,1.0,True,0.259,0,False,left,0.08308,0.1093,1.2429,1.1336,2.0011,2.7677,0.7666,A,0.18
53,0.49847,1.2,1,0.33231,0.24093,0.67294,53,1.7945,-0.9,-0.44862,0.04985,5,lapse_rate,2.0,True,0.212,0,False,right,-0.24924,0.2393,0.4725,0.2333,1.1805,1.6139,0.4334,A,0.18
54,0.49847,0.1,2,0.34893,0.30739,0.80586,54,2.29296,-0.34,-0.16616,0.33231,5,1D2U,1.0,True,0.328,4,False,left,0.08308,1.707,2.082,0.3751,0.2739,0.9326,0.6587,A,0.075
55,0.49847,1.2,2,0.22431,0.23262,0.69786,55,2.10188,-0.1,-0.04985,0.44862,5,2D1U,1.0,True,2.933,4,True,left,-0.24924,1.2988,1.8401,0.5413,0.2565,0.6903,0.4338,A,0.18
56,0.49847,1.2,2,0.27416,0.216,0.67294,56,2.13512,-0.06,-0.03323,0.47355,5,2D1U,1.0,True,0.508,4,False,left,0.08308,1.4931,2.0604,0.5673,0.1431,0.9094,0.7663,A,0.18
57,0.49847,0.1,1,0.22431,0.38216,0.45693,57,1.61172,-0.9,-0.44862,0.04985,5,lapse_rate,2.0,True,0.18,0,False,right,-0.24924,0.1892,0.3146,0.1254,0.8647,1.1896,0.3249,A,0.075
58,0.49847,0.1,1,0.34893,0.44032,0.4237,58,2.04373,-0.34,-0.16616,0.33231,5,1D2U,2.0,True,0.109,4,False,right,0.08308,0.3181,0.7268,0.4087,1.0768,1.7344,0.6576,A,0.075
59,0.49847,0.1,2,0.36555,0.37385,0.75602,59,2.34282,-0.3,-0.14954,0.34893,5,1D2U,1.0,True,0.215,4,False,left,-0.24924,1.5058,1.8972,0.3914,0.4556,0.7803,0.3248,A,0.075
60,0.49847,1.2,2,0.30739,0.35724,0.82248,60,2.03543,-0.9,-0.44862,0.04985,5,lapse_rate,1.0,True,0.292,0,False,left,0.08308,1.6746,1.8164,0.1418,0.1746,0.9413,0.7667,A,0.18
61,0.49847,1.2,2,0.41539,0.216,0.46524,61,2.08526,-0.02,-0.00831,0.49016,5,2D1U,2.0,False,0.222,4,False,right,-0.24924,1.2543,1.8375,0.5832,0.4456,0.8784,0.4328,A,0.18
62,0.49847,1.2,1,0.39878,0.41539,0.69786,62,2.50066,-0.02,-0.00831,0.49016,5,2D1U,2.0,True,0.258,4,False,right,0.08308,0.3117,0.9867,0.675,1.5528,2.3196,0.7668,A,0.18
63,0.49847,0.1,1,0.30739,0.3157,0.82248,63,2.29297,-0.3,-0.14954,0.34893,5,1D2U,2.0,True,0.266,4,False,right,-0.24924,0.2779,0.7025,0.4246,1.6202,1.945,0.3247,A,0.075
64,0.49847,1.2,2,0.3157,0.30739,0.83079,64,2.0022,-0.9,-0.44862,0.04985,5,lapse_rate,1.0,True,0.283,0,False,left,0.08308,1.6937,1.8357,0.142,0.1857,0.9521,0.7663,A,0.18
65,0.49847,0.1,1,0.25754,0.34062,0.58155,65,2.62528,0.9,0.44862,0.9471,5,lapse_rate,1.0,True,0.193,0,False,left,-0.24924,0.223,1.248,1.025,1.9236,2.2482,0.3246,A,0.075
66,0.49847,0.1,1,0.25754,0.34062,0.5317,66,2.13511,0.02,0.00831,0.50678,5,2D1U,2.0,False,0.387,4,False,right,0.08308,0.2205,0.8033,0.5828,1.2614,1.9203,0.6589,A,0.075
67,0.49847,1.2,1,0.32401,0.39878,0.44862,67,2.04373,-0.26,-0.13293,0.37385,5,1D2U,2.0,True,0.305,4,False,right,-0.24924,0.2329,0.7913,0.5584,1.2747,1.708,0.4333,A,0.18
68,0.49847,1.2,1,0.3157,0.36555,0.64801,68,2.35943,0.06,0.03323,0.5317,5,2D1U,1.0,True,0.392,4,False,left,0.08308,0.2258,0.9428,0.717,1.4604,2.2264,0.766,A,0.18
69,0.49847,0.1,2,0.29908,0.28247,0.68955,69,1.81942,-0.9,-0.44862,0.04985,5,lapse_rate,1.0,True,0.25,0,False,left,-0.24924,1.3766,1.4693,0.0926,0.3937,0.719,0.3253,A,0.075
70,0.49847,0.1,2,0.26585,0.29908,0.57324,70,2.01049,-0.26,-0.13293,0.37385,5,1D2U,2.0,False,0.334,4,False,right,0.08308,1.3917,1.8081,0.4164,0.1924,0.8505,0.6581,A,0.075
71,0.49847,0.1,1,0.29078,0.216,0.6314,71,2.16835,0.06,0.03323,0.5317,5,2D1U,2.0,False,0.35,4,False,right,-0.24924,0.2568,0.8651,0.6083,1.5901,1.9155,0.3254,A,0.075
72,0.49847,1.2,2,0.216,0.23262,0.59817,72,1.89419,-0.3,-0.14954,0.34893,5,1D2U,1.0,True,2.989,5,True,left,0.08308,1.3557,1.7974,0.4416,0.081,0.8478,0.7668,A,0.18
73,0.49847,0.1,1,0.216,0.35724,0.46524,73,2.48405,0.9,0.44862,0.9471,5,lapse_rate,1.0,True,0.11,0,False,left,-0.24924,0.18,1.2071,1.0271,1.7637,2.089,0.3252,A,0.075
74,0.49847,1.2,1,0.23262,0.26585,0.54001,74,1.88588,-0.3,-0.14954,0.34893,5,1D2U,2.0,True,0.126,5,True,right,0.08308,0.1439,0.6769,0.533,1.0849,1.8522,0.7672,A,0.18
75,0.49847,0.1,2,0.44862,0.30739,0.83079,75,2.13512,-0.9,-0.44862,0.04985,5,lapse_rate,1.0,True,0.173,0,False,left,-0.24924,1.6653,1.757,0.0917,0.5398,0.8652,0.3255,A,0.075
76,0.49847,0.1,1,0.2077,0.41539,0.85571,76,2.52559,0.1,0.04985,0.54832,5,2D1U,2.0,False,0.492,4,False,right,0.08308,0.1745,0.7992,0.6247,1.583,2.2417,0.6587,A,0.075
77,0.49847,0.1,1,0.44032,0.40709,0.6314,77,2.92438,0.9,0.44862,0.9471,5,lapse_rate,2.0,False,0.333,0,False,right,-0.24924,0.4059,1.4309,1.025,2.1558,2.481,0.3252,A,0.075
78,0.49847,0.1,1,0.43201,0.23262,0.89725,78,2.63359,0.14,0.06646,0.57324,5,2D1U,1.0,True,0.334,4,False,left,0.08308,0.4016,1.0518,0.6501,1.8766,2.5348,0.6582,A,0.075
79,0.49847,1.2,1,0.43201,0.29078,0.83079,79,2.4259,-0.26,-0.13293,0.37385,5,1D2U,2.0,True,0.342,6,True,right,-0.24924,0.3442,0.9025,0.5583,1.7688,2.203,0.4342,A,0.18
80,0.49847,1.2,1,0.41539,0.24093,0.43201,80,1.96065,-0.26,-0.13293,0.37385,5,1D2U,2.0,True,0.251,6,True,right,0.08308,0.3282,0.8855,0.5573,1.1858,1.9521,0.7663,A,0.18
81,0.49847,1.2,2,0.3157,0.37385,0.51509,81,2.65021,0.9,0.44862,0.9471,5,lapse_rate,2.0,True,0.85,0,False,right,-0.24924,1.2116,2.2532,1.0416,0.3533,0.7867,0.4334,A,0.18
82,0.49847,0.1,2,0.39047,0.38216,0.43201,82,2.27635,0.14,0.06646,0.57324,5,2D1U,2.0,True,0.111,4,False,right,0.08308,1.3746,1.9914,0.6168,0.3162,0.9752,0.659,A,0.075
83,0.49847,1.2,1,0.29908,0.36555,0.51509,83,1.72804,-0.9,-0.44862,0.04985,5,lapse_rate,2.0,True,0.243,0,False,right,-0.24924,0.2055,0.4383,0.2327,0.9881,1.4214,0.4333,A,0.18
84,0.49847,0.1,1,0.37385,0.216,0.58986,84,2.06865,-0.22,-0.108,0.39047,5,1D2U,2.0,True,0.17,6,False,right,0.08308,0.3375,0.8034,0.4659,1.3207,1.9785,0.6578,A,0.075
85,0.49847,1.2,1,0.22431,0.24093,0.65632,85,2.16835,0.1,0.04985,0.54832,5,2D1U,1.0,True,0.316,5,True,left,-0.24924,0.1342,0.8677,0.7334,1.5591,1.9923,0.4332,A,0.18
86,0.49847,1.2,1,0.22431,0.36555,0.47355,86,2.1102,0.1,0.04985,0.54832,5,2D1U,2.0,False,0.248,5,True,right,0.08308,0.1287,0.8618,0.7332,1.204,1.9702,0.7662,A,0.18
87,0.49847,0.1,2,0.30739,0.43201,0.80586,87,2.4342,-0.22,-0.108,0.39047,5,1D2U,2.0,False,0.642,6,False,right,-0.24924,1.4963,1.9294,0.4331,0.3966,0.7209,0.3243,A,0.075
88,0.49847,0.1,2,0.29078,0.26585,0.54832,88,2.55052,0.9,0.44862,0.9471,5,lapse_rate,2.0,True,0.112,0,False,right,0.08308,1.3892,2.3804,0.9911,0.2139,0.8722,0.6583,A,0.075
89,0.49847,0.1,2,0.40709,0.37385,0.48186,89,2.13512,-0.26,-0.13293,0.37385,5,1D2U,1.0,True,0.192,7,True,left,-0.24924,1.2775,1.6941,0.4166,0.5024,0.8274,0.3251,A,0.075
90,0.49847,1.2,1,0.43201,0.26585,0.7394,90,2.88283,0.9,0.44862,0.9471,5,lapse_rate,1.0,True,0.312,0,False,left,0.08308,0.3374,1.4703,1.1329,2.0793,2.8455,0.7661,A,0.18
91,0.49847,1.2,1,0.34893,0.41539,0.7394,91,2.57543,0.14,0.06646,0.57324,5,2D1U,2.0,False,0.208,6,True,right,-0.24924,0.2548,1.0125,0.7576,1.7886,2.2215,0.4329,A,0.18
92,0.49847,1.2,1,0.22431,0.29078,0.6314,92,2.01881,-0.26,-0.13293,0.37385,5,1D2U,2.0,True,0.276,7,True,right,0.08308,0.1357,0.6943,0.5586,1.1942,1.9614,0.7672,A,0.18
93,0.49847,0.1,2,0.44032,0.44032,0.68955,93,3.01576,0.9,0.44862,0.9471,5,lapse_rate,2.0,True,0.166,0,False,right,-0.24924,1.5204,2.5122,0.9918,0.5368,0.863,0.3262,A,0.075
94,0.49847,0.1,2,0.28247,0.39047,0.5234,94,2.28467,0.18,0.09139,0.58986,5,2D1U,2.0,True,0.194,6,False,right,0.08308,1.3575,1.9907,0.6333,0.2071,0.8648,0.6577,A,0.075
95,0.49847,0.1,1,0.22431,0.30739,0.49016,95,2.11019,0.18,0.09139,0.58986,5,2D1U,2.0,False,0.792,6,False,right,-0.24924,0.1872,0.8533,0.6661,1.4374,1.7624,0.325,A,0.075
96,0.49847,1.2,2,0.37385,0.2077,0.78925,96,2.25974,-0.22,-0.108,0.39047,5,1D2U,1.0,True,0.392,8,True,left,0.08308,1.7048,2.1891,0.4843,0.2392,1.0059,0.7667,A,0.18
97,0.49847,1.2,2,0.37385,0.34062,0.75602,97,2.01881,-0.9,-0.44862,0.04985,5,lapse_rate,1.0,True,0.259,0,False,left,-0.24924,1.507,1.6483,0.1412,0.4065,0.8403,0.4338,A,0.18
98,0.49847,1.2,2,0.34893,0.3157,0.75602,98,2.30959,-0.22,-0.108,0.39047,5,1D2U,2.0,False,0.379,8,True,right,0.08308,1.6527,2.1366,0.4839,0.2196,0.9852,0.7656,A,0.18
99,0.49847,0.1,2,0.37385,0.29908,0.57324,99,2.35111,0.22,0.108,0.60647,5,2D1U,2.0,True,0.483,6,False,right,-0.24924,1.3311,1.9811,0.65,0.4643,0.7896,0.3253,A,0.075
100,0.49847,1.2,1,0.25754,0.43201,0.88063,100,2.1185,-0.9,-0.44862,0.04985,5,lapse_rate,2.0,True,0.297,0,False,right,0.08308,0.1632,0.3968,0.2337,1.1463,1.9132,0.7668,A,0.18
101,0.49847,1.2,1,0.22431,0.216,0.5317,101,2.41758,0.9,0.44862,0.9471,5,lapse_rate,1.0,True,0.48,0,False,left,-0.24924,0.1329,1.2654,1.1325,1.8325,2.265,0.4325,A,0.18
102,0.49847,0.1,2,0.39047,0.22431,0.51509,102,2.23481,0.22,0.108,0.60647,5,2D1U,2.0,True,0.283,6,False,right,0.08308,1.4606,2.111,0.6504,0.3191,0.9777,0.6585,A,0.075
103,0.49847,1.2,1,0.3157,0.40709,0.5317,103,2.12681,-0.26,-0.13293,0.37385,5,1D2U,1.0,False,0.451,9,True,left,-0.24924,0.2269,0.7856,0.5587,1.3525,1.7853,0.4328,A,0.18
104,0.49847,0.1,1,0.26585,0.4237,0.6314,104,1.86927,-0.9,-0.44862,0.04985,5,lapse_rate,2.0,True,0.536,0,False,right,0.08308,0.2347,0.3603,0.1257,0.9186,1.5769,0.6583,A,0.075
105,0.49847,1.2,1,0.24924,0.41539,0.89725,105,2.65021,0.18,0.09139,0.58986,5,2D1U,1.0,True,0.573,7,True,left,-0.24924,0.1558,0.9314,0.7756,1.8635,2.2976,0.434,A,0.18
106,0.49847,0.1,1,0.37385,0.4237,0.51509,106,2.16004,-0.3,-0.14954,0.34893,5,1D2U,2.0,True,0.113,9,False,right,0.08308,0.3441,0.7691,0.425,1.2107,1.8696,0.6588,A,0.075
107,0.49847,0.1,2,0.24093,0.25754,0.6314,107,2.2182,0.18,0.09139,0.58986,5,2D1U,2.0,True,0.202,7,True,right,-0.24924,1.2539,1.8874,0.6336,0.3285,0.654,0.3255,A,0.075
108,0.49847,1.2,2,0.30739,0.36555,0.58155,108,2.70006,0.9,0.44862,0.9471,5,lapse_rate,2.0,True,0.114,0,False,right,0.08308,1.4294,2.4706,1.0412,0.1705,0.9376,0.7671,A,0.18
109,0.49847,1.2,2,0.26585,0.35724,0.68125,109,2.15174,-0.3,-0.14954,0.34893,5,1D2U,1.0,True,0.183,9,False,left,-0.24924,1.3214,1.7633,0.4418,0.296,0.7297,0.4337,A,0.18
110,0.49847,1.2,1,0.35724,0.28247,0.43201,110,1.94404,-0.26,-0.13293,0.37385,5,1D2U,2.0,True,0.205,10,True,right,0.08308,0.2647,0.8232,0.5585,1.1231,1.8906,0.7675,A,0.18
111,0.49847,0.1,1,0.34062,0.37385,0.89725,111,2.68343,0.14,0.06646,0.57324,5,2D1U,1.0,True,0.584,7,False,left,-0.24924,0.3115,0.9617,0.6502,1.9526,2.2778,0.3252,A,0.075
112,0.49847,1.2,1,0.4237,0.22431,0.67294,112,2.76652,0.9,0.44862,0.9471,5,lapse_rate,1.0,True,0.301,0,False,left,0.08308,0.3321,1.465,1.1329,2.0074,2.7841,0.7767,A,0.18
113,0.49847,0.1,2,0.37385,0.36555,0.44032,113,2.25143,0.14,0.06646,0.57324,5,2D1U,2.0,True,0.371,7,False,right,-0.24924,1.1981,1.8147,0.6166,0.4649,0.7898,0.325,A,0.075
114,0.49847,0.1,1,0.38216,0.39047,0.64801,114,2.86621,0.9,0.44862,0.9471,5,lapse_rate,1.0,True,0.212,0,False,left,0.08308,0.3488,1.3737,1.0249,1.9481,2.6073,0.6592,A,0.075
115,0.49847,1.2,2,0.33231,0.4237,0.49016,115,2.11849,-0.26,-0.13293,0.37385,5,1D2U,1.0,True,0.517,10,True,left,-0.24924,1.203,1.6693,0.4664,0.369,0.8025,0.4335,A,0.18
116,0.49847,1.2,2,0.44032,0.39878,0.76432,116,2.49236,-0.22,-0.108,0.39047,5,1D2U,1.0,True,1.527,10,False,left,0.08308,1.7462,2.2299,0.4837,0.3049,1.0715,0.7666,A,0.18
117,0.49847,0.1,1,0.29908,0.33231,0.87233,117,2.55051,0.1,0.04985,0.54832,5,2D1U,1.0,True,0.425,7,False,left,-0.24924,0.2684,0.8933,0.6249,1.86,2.185,0.325,A,0.075
118,0.49847,0.1,1,0.216,0.35724,0.76432,118,1.88588,-0.9,-0.44862,0.04985,5,lapse_rate,2.0,True,0.11,0,False,right,0.08308,0.1814,0.3069,0.1254,0.9984,1.6568,0.6583,A,0.075
119,0.49847,0.1,1,0.33231,0.24093,0.85571,119,2.31789,-0.22,-0.108,0.39047,5,1D2U,1.0,False,0.475,10,False,left,-0.24924,0.2955,0.762,0.4665,1.7128,2.0378,0.325,A,0.075
120,0.49847,1.2,1,0.32401,0.29078,0.54001,120,1.70312,-0.9,-0.44862,0.04985,5,lapse_rate,2.0,True,0.228,0,False,right,0.08308,0.235,0.468,0.2331,0.8761,1.6432,0.7671,A,0.18
121,0.49847,1.2,2,0.26585,0.216,0.83909,121,2.36773,0.1,0.04985,0.54832,5,2D1U,2.0,True,0.233,7,False,right,-0.24924,1.4854,2.1261,0.6407,0.3015,0.7353,0.4338,A,0.18
122,0.49847,1.2,2,0.39047,0.32401,0.62309,122,2.20989,-0.26,-0.13293,0.37385,5,1D2U,1.0,True,0.75,11,True,left,0.08308,1.5598,2.0263,0.4665,0.2598,1.0261,0.7663,A,0.18
123,0.49847,0.1,2,0.38216,0.39878,0.62309,123,2.4342,0.06,0.03323,0.5317,5,2D1U,2.0,True,0.166,7,False,right,-0.24924,1.3927,1.9684,0.5756,0.4772,0.8017,0.3245,A,0.075
124,0.49847,0.1,2,0.34062,0.39878,0.45693,124,1.74465,-0.9,-0.44862,0.04985,5,lapse_rate,1.0,True,0.309,0,False,left,0.08308,1.3535,1.4451,0.0916,0.2701,0.9289,0.6588,A,0.075
125,0.49847,0.1,2,0.2077,0.25754,0.65632,125,2.15173,0.06,0.03323,0.5317,5,2D1U,2.0,True,0.242,7,False,right,-0.24924,1.2479,1.8237,0.5758,0.2984,0.6231,0.3247,A,0.075
126,0.49847,1.2,2,0.39047,0.4237,0.80586,126,2.16835,-0.9,-0.44862,0.04985,5,lapse_rate,1.0,True,0.47,0,False,left,0.08308,1.7391,1.8809,0.1418,0.2548,1.0222,0.7674,A,0.18
127,0.49847,1.2,1,0.34062,0.35724,0.75602,127,2.3262,-0.26,-0.13293,0.37385,5,1D2U,2.0,True,0.231,11,True,right,-0.24924,0.2465,0.8052,0.5587,1.5975,2.0306,0.4331,A,0.18
128,0.49847,1.2,2,0.38216,0.216,0.83079,128,1.97727,-0.9,-0.44862,0.04985,5,lapse_rate,1.0,True,0.389,0,False,left,0.08308,1.7579,1.8991,0.1412,0.2498,1.0157,0.766,A,0.18
129,0.49847,1.2,1,0.24093,0.23262,0.5234,129,2.0022,0.02,0.00831,0.50678,5,2D1U,2.0,False,0.237,7,False,right,-0.24924,0.1514,0.8426,0.6911,1.4022,1.8356,0.4334,A,0.18
130,0.49847,0.1,2,0.24093,0.22431,0.88894,130,2.24312,-0.22,-0.108,0.39047,5,1D2U,1.0,True,0.507,12,True,left,0.08308,1.6849,2.119,0.4341,0.1688,0.8271,0.6583,A,0.075
131,0.49847,0.1,1,0.216,0.4237,0.46524,131,1.99388,-0.22,-0.108,0.39047,5,1D2U,2.0,True,0.251,12,True,right,-0.24924,0.1861,0.6524,0.4662,1.2104,1.5357,0.3253,A,0.075
132,0.49847,1.2,1,0.24093,0.30739,0.68125,132,1.77789,-0.9,-0.44862,0.04985,5,lapse_rate,2.0,True,0.168,0,False,right,0.08308,0.1508,0.3838,0.2329,0.9339,1.7,0.7661,A,0.18
133,0.49847,1.2,2,0.44032,0.35724,0.49847,133,2.3262,0.06,0.03323,0.5317,5,2D1U,1.0,False,0.27,8,True,left,-0.24924,1.3143,1.9397,0.6254,0.473,0.9066,0.4335,A,0.18
134,0.49847,1.2,1,0.2077,0.24093,0.68955,134,2.18497,0.1,0.04985,0.54832,5,2D1U,1.0,True,0.379,8,False,left,0.08308,0.1171,0.8502,0.733,1.4085,2.1749,0.7664,A,0.18
135,0.49847,0.1,1,0.30739,0.24924,0.44862,135,1.91081,-0.18,-0.09139,0.40709,5,1D2U,2.0,True,0.143,12,False,right,-0.24924,0.2751,0.7586,0.4835,1.3006,1.6252,0.3247,A,0.075
136,0.49847,0.1,1,0.39047,0.33231,0.55663,136,1.82773,-0.9,-0.44862,0.04985,5,lapse_rate,2.0,True,0.46,0,False,right,0.08308,0.3527,0.4784,0.1257,0.9619,1.6195,0.6577,A,0.075
137,0.49847,0.1,1,0.34893,0.27416,0.75602,137,2.4259,0.1,0.04985,0.54832,5,2D1U,2.0,False,0.313,8,False,right,-0.24924,0.3123,0.9376,0.6253,1.7873,2.1126,0.3253,A,0.075
138,0.49847,0.1,1,0.3157,0.34062,0.46524,138,1.66988,-0.9,-0.44862,0.04985,5,lapse_rate,2.0,True,0.114,0,False,right,0.08308,0.2785,0.404,0.1255,0.7954,1.4542,0.6588,A,0.075
139,0.49847,1.2,1,0.24924,0.33231,0.68125,139,2.16836,-0.18,-0.09139,0.40709,5,1D2U,2.0,True,0.298,12,False,right,-0.24924,0.1552,0.7467,0.5915,1.4632,1.8972,0.4341,A,0.18
140,0.49847,1.2,1,0.39047,0.29078,0.43201,140,2.18497,0.14,0.06646,0.57324,5,2D1U,2.0,False,0.27,8,False,right,0.08308,0.3013,1.0596,0.7583,1.3592,2.1259,0.7667,A,0.18
141,0.49847,0.1,2,0.34062,0.23262,0.51509,141,2.01881,-0.14,-0.06646,0.43201,5,1D2U,1.0,True,0.926,12,False,left,-0.24924,1.2443,1.7192,0.4749,0.4362,0.7612,0.325,A,0.075
142,0.49847,1.2,2,0.39878,0.39878,0.74771,142,2.99084,0.9,0.44862,0.9471,5,lapse_rate,2.0,True,0.113,0,False,right,0.08308,1.6937,2.7347,1.041,0.2682,1.0341,0.7659,A,0.18
143,0.49847,0.1,2,0.29078,0.38216,0.74771,143,2.50898,0.18,0.09139,0.58986,5,2D1U,2.0,True,0.225,8,False,right,-0.24924,1.4264,2.0602,0.6338,0.3845,0.7102,0.3257,A,0.075
144,0.49847,1.2,2,0.39047,0.26585,0.4237,144,2.0105,-0.14,-0.06646,0.43201,5,1D2U,1.0,True,0.316,12,False,left,0.08308,1.3611,1.8853,0.5242,0.2606,1.0273,0.7667,A,0.18
145,0.49847,1.2,2,0.44032,0.41539,0.55663,145,2.85791,0.9,0.44862,0.9471,5,lapse_rate,2.0,True,0.184,0,False,right,-0.24924,1.3709,2.4133,1.0425,0.4714,0.9049,0.4335,A,0.18
146,0.49847,1.2,2,0.30739,0.24924,0.58986,146,2.09358,-0.1,-0.04985,0.44862,5,1D2U,1.0,True,0.67,12,False,left,0.08308,1.4384,1.979,0.5406,0.1719,0.9373,0.7653,A,0.18
147,0.49847,0.1,2,0.43201,0.4237,0.72278,147,2.66682,0.18,0.09139,0.58986,5,2D1U,2.0,True,0.293,8,False,right,-0.24924,1.5376,2.17,0.6324,0.5208,0.8451,0.3243,A,0.075
148,0.49847,1.2,1,0.34893,0.40709,0.65632,148,2.85791,0.9,0.44862,0.9471,5,lapse_rate,1.0,True,0.241,0,False,left,0.08308,0.2565,1.3906,1.1342,1.9147,2.6819,0.7672,A,0.18
149,0.49847,0.1,2,0.27416,0.32401,0.50678,149,2.17666,0.14,0.06646,0.57324,5,2D1U,2.0,True,0.108,9,True,right,-0.24924,1.1683,1.7846,0.6163,0.3687,0.6933,0.3246,A,0.075
150,0.49847,1.2,2,0.3157,0.44032,0.61478,150,2.31789,-0.1,-0.04985,0.44862,5,1D2U,1.0,True,0.282,12,False,left,0.08308,1.4709,2.0125,0.5416,0.1782,0.9458,0.7676,A,0.18
151,0.49847,0.1,1,0.27416,0.24924,0.68125,151,2.65022,0.9,0.44862,0.9471,5,lapse_rate,1.0,True,0.11,0,False,left,-0.24924,0.238,1.2639,1.026,2.0383,2.3637,0.3253,A,0.075
152,0.49847,1.2,1,0.29908,0.23262,0.43201,152,1.93573,-0.06,-0.03323,0.47355,5,1D2U,2.0,True,0.334,12,False,right,0.08308,0.2102,0.8689,0.6587,1.1686,1.9356,0.767,A,0.18
153,0.49847,0.1,2,0.40709,0.37385,0.58155,153,2.4342,0.14,0.06646,0.57324,5,2D1U,2.0,True,1.566,9,True,right,-0.24924,1.3727,1.9898,0.6171,0.4979,0.8224,0.3245,A,0.075
154,0.49847,0.1,1,0.41539,0.26585,0.7394,154,1.96896,-0.9,-0.44862,0.04985,5,lapse_rate,2.0,True,0.208,0,False,right,0.08308,0.3826,0.5078,0.1252,1.1745,1.8329,0.6584,A,0.075
155,0.49847,0.1,2,0.38216,0.33231,0.87233,155,2.63359,0.1,0.04985,0.54832,5,2D1U,2.0,True,0.114,9,False,right,-0.24924,1.6378,2.2293,0.5915,0.4705,0.7959,0.3254,A,0.075
156,0.49847,0.1,1,0.32401,0.32401,0.83909,156,2.03543,-0.9,-0.44862,0.04985,5,lapse_rate,2.0,True,0.112,0,False,right,0.08308,0.2931,0.4183,0.1252,1.1854,1.8434,0.6579,A,0.075
157,0.49847,1.2,2,0.40709,0.24093,0.88063,157,2.50067,-0.06,-0.03323,0.47355,5,1D2U,2.0,False,0.291,12,False,right,-0.24924,1.6663,2.2322,0.5658,0.4413,0.8739,0.4326,A,0.18
158,0.49847,1.2,2,0.26585,0.22431,0.68125,158,2.2182,0.1,0.04985,0.54832,5,2D1U,2.0,True,0.283,9,False,right,0.08308,1.4921,2.1337,0.6416,0.1336,0.8996,0.766,A,0.18
159,0.49847,0.1,1,0.37385,0.27416,0.5317,159,2.1268,-0.1,-0.04985,0.44862,5,1D2U,2.0,True,0.246,13,True,right,-0.24924,0.3387,0.8629,0.5242,1.4884,1.8133,0.3249,A,0.075
160,0.49847,0.1,1,0.33231,0.28247,0.78094,160,1.94404,-0.9,-0.44862,0.04985,5,lapse_rate,2.0,True,0.282,0,False,right,0.08308,0.2966,0.4217,0.125,1.1292,1.7888,0.6596,A,0.075
161,0.49847,0.1,2,0.216,0.216,0.5234,161,1.90249,-0.1,-0.04985,0.44862,5,1D2U,2.0,False,0.216,13,True,right,-0.24924,1.1272,1.6189,0.4917,0.3101,0.6357,0.3256,A,0.075
162,0.49847,1.2,2,0.40709,0.44862,0.79756,162,2.68344,0.06,0.03323,0.5317,5,2D1U,2.0,True,0.29,9,False,right,0.08308,1.7507,2.3759,0.6252,0.2759,1.0415,0.7656,A,0.18
163,0.49847,0.1,1,0.39047,0.36555,0.57324,163,1.87758,-0.9,-0.44862,0.04985,5,lapse_rate,2.0,True,0.109,0,False,right,-0.24924,0.3568,0.4818,0.125,1.1481,1.4735,0.3253,A,0.075
164,0.49847,1.2,2,0.23262,0.44032,0.75602,164,2.45913,0.06,0.03323,0.5317,5,2D1U,2.0,True,0.112,9,False,right,0.08308,1.535,2.1597,0.6246,0.1011,0.8675,0.7664,A,0.18
165,0.49847,0.1,2,0.44862,0.2077,0.43201,165,2.01881,-0.14,-0.06646,0.43201,5,1D2U,1.0,True,0.208,13,False,left,-0.24924,1.2705,1.7452,0.4747,0.5447,0.8697,0.325,A,0.075
166,0.49847,0.1,2,0.29078,0.24924,0.82248,166,2.80807,0.9,0.44862,0.9471,5,lapse_rate,2.0,True,0.112,0,False,right,0.08308,1.6696,2.6601,0.9905,0.2188,0.8774,0.6586,A,0.075
167,0.49847,0.1,2,0.43201,0.216,0.43201,167,2.08527,0.02,0.00831,0.50678,5,2D1U,1.0,False,0.416,9,False,left,-0.24924,1.2484,1.7986,0.5503,0.5228,0.8478,0.325,A,0.075
168,0.49847,1.2,1,0.38216,0.41539,0.61478,168,2.4425,0.06,0.03323,0.5317,5,2D1U,2.0,False,0.342,10,True,right,0.08308,0.2905,1.0067,0.7162,1.4906,2.2565,0.7658,A,0.18
169,0.49847,1.2,2,0.43201,0.29908,0.68955,169,2.35112,-0.14,-0.06646,0.43201,5,1D2U,2.0,False,0.112,13,False,right,-0.24924,1.4959,2.0202,0.5243,0.4627,0.8956,0.4329,A,0.18
170,0.49847,0.1,1,0.216,0.29078,0.62309,170,2.03543,-0.18,-0.09139,0.40709,5,1D2U,2.0,True,0.114,13,False,right,0.08308,0.1847,0.6689,0.4842,1.2183,1.8768,0.6585,A,0.075
171,0.49847,0.1,1,0.33231,0.34893,0.87233,171,2.60036,0.1,0.04985,0.54832,5,2D1U,1.0,True,1.183,10,False,left,-0.24924,0.3009,0.9257,0.6248,1.8934,2.2175,0.3241,A,0.075
172,0.49847,1.2,1,0.2077,0.24093,0.47355,172,1.96897,0.1,0.04985,0.54832,5,2D1U,2.0,False,0.266,10,False,right,0.08308,0.1178,0.851,0.7332,1.1931,1.9591,0.766,A,0.18
173,0.49847,1.2,1,0.27416,0.4237,0.88063,173,2.6502,0.14,0.06646,0.57324,5,2D1U,1.0,True,0.151,10,False,left,-0.24924,0.1795,0.9381,0.7586,1.8544,2.2879,0.4335,A,0.18
174,0.49847,0.1,2,0.39047,0.44862,0.8474,174,2.59205,-0.18,-0.09139,0.40709,5,1D2U,1.0,True,0.14,13,False,left,0.08308,1.7937,2.2439,0.4502,0.319,0.9772,0.6583,A,0.075
175,0.49847,0.1,2,0.22431,0.35724,0.8474,175,2.35943,-0.14,-0.06646,0.43201,5,1D2U,1.0,True,0.456,14,True,left,-0.24924,1.4547,1.93,0.4752,0.3124,0.638,0.3256,A,0.075
176,0.49847,1.2,2,0.30739,0.28247,0.39878,176,1.91912,-0.14,-0.06646,0.43201,5,1D2U,2.0,False,0.248,14,True,right,0.08308,1.2482,1.7726,0.5245,0.1737,0.9403,0.7666,A,0.18
177,0.49847,1.2,2,0.25754,0.36555,0.48186,177,2.17666,0.14,0.06646,0.57324,5,2D1U,2.0,True,0.111,10,False,right,-0.24924,1.1173,1.7845,0.6672,0.2931,0.7261,0.433,A,0.18
178,0.49847,0.1,1,0.35724,0.41539,0.59817,178,2.27636,-0.18,-0.09139,0.40709,5,1D2U,1.0,False,0.113,15,True,left,0.08308,0.3246,0.8083,0.4837,1.3334,1.9911,0.6577,A,0.075
179,0.49847,0.1,2,0.35724,0.2077,0.49016,179,2.10189,0.1,0.04985,0.54832,5,2D1U,2.0,True,0.33,11,True,right,-0.24924,1.2349,1.8271,0.5922,0.4512,0.777,0.3258,A,0.075
180,0.49847,1.2,2,0.39878,0.32401,0.47355,180,2.08528,-0.22,-0.108,0.39047,5,1D2U,1.0,True,0.187,15,False,left,0.08308,1.4147,1.8979,0.4832,0.2639,1.0303,0.7664,A,0.18
181,0.49847,1.2,1,0.216,0.38216,0.8474,181,2.49235,0.1,0.04985,0.54832,5,2D1U,2.0,False,0.256,11,True,right,-0.24924,0.1228,0.8553,0.7325,1.7389,2.1724,0.4335,A,0.18
182,0.49847,0.1,1,0.28247,0.23262,0.78094,182,2.36774,0.14,0.06646,0.57324,5,2D1U,2.0,False,0.285,12,True,right,0.08308,0.2492,0.8994,0.6502,1.6079,2.2663,0.6584,A,0.075
183,0.49847,0.1,1,0.29078,0.43201,0.77263,183,2.58375,0.18,0.09139,0.58986,5,2D1U,1.0,True,0.457,12,False,left,-0.24924,0.2584,0.9251,0.6667,1.7919,2.117,0.3252,A,0.075
184,0.49847,1.2,2,0.37385,0.22431,0.4237,184,1.9108,-0.22,-0.108,0.39047,5,1D2U,1.0,True,0.267,15,False,left,0.08308,1.3429,1.8263,0.4835,0.2434,1.0099,0.7665,A,0.18
185,0.49847,1.2,1,0.34062,0.44032,0.74771,185,2.43421,-0.18,-0.09139,0.40709,5,1D2U,1.0,False,0.27,16,True,left,-0.24924,0.2524,0.8434,0.5909,1.6274,2.0609,0.4335,A,0.18
186,0.49847,0.1,1,0.32401,0.35724,0.66463,186,2.43421,0.18,0.09139,0.58986,5,2D1U,2.0,False,0.216,12,False,right,0.08308,0.2894,0.9558,0.6664,1.5472,2.206,0.6587,A,0.075
187,0.49847,0.1,2,0.19939,0.39878,0.70617,187,2.19328,-0.22,-0.108,0.39047,5,1D2U,1.0,True,0.163,17,True,left,-0.24924,1.2934,1.7265,0.4332,0.2933,0.6178,0.3245,A,0.075
188,0.49847,1.2,2,0.30739,0.32401,0.6314,188,2.36774,0.22,0.108,0.60647,5,2D1U,2.0,True,0.217,12,False,right,0.08308,1.486,2.1857,0.6996,0.1779,0.944,0.7661,A,0.18
189,0.49847,1.2,2,0.25754,0.29078,0.71448,189,2.36774,0.22,0.108,0.60647,5,2D1U,2.0,True,0.159,12,False,right,-0.24924,1.3485,2.0481,0.6995,0.2895,0.7231,0.4336,A,0.18
190,0.49847,0.1,2,0.41539,0.3157,0.56494,190,2.18497,-0.22,-0.108,0.39047,5,1D2U,1.0,True,0.184,17,True,left,0.08308,1.5291,1.9629,0.4338,0.338,0.9954,0.6574,A,0.075
191,0.49847,0.1,2,0.44032,0.29078,0.54832,191,2.36775,0.18,0.09139,0.58986,5,2D1U,2.0,True,0.109,13,True,right,-0.24924,1.3726,2.006,0.6334,0.531,0.8551,0.3241,A,0.075
192,0.49847,1.2,1,0.37385,0.25754,0.56494,192,2.10189,-0.18,-0.09139,0.40709,5,1D2U,2.0,True,0.217,18,True,right,0.08308,0.2851,0.8773,0.5922,1.3108,2.0772,0.7664,A,0.18
193,0.49847,1.2,2,0.38216,0.216,0.5317,193,2.21819,0.18,0.09139,0.58986,5,2D1U,2.0,True,0.245,13,True,right,-0.24924,1.2955,1.9791,0.6836,0.4206,0.853,0.4325,A,0.18
194,0.49847,0.1,2,0.35724,0.39047,0.44862,194,2.26804,0.14,0.06646,0.57324,5,2D1U,2.0,True,0.797,13,False,right,0.08308,1.3612,1.9779,0.6168,0.2858,0.9438,0.658,A,0.075
195,0.49847,0.1,2,0.37385,0.34893,0.67294,195,2.46743,0.14,0.06646,0.57324,5,2D1U,2.0,True,0.134,13,False,right,-0.24924,1.4372,2.0538,0.6166,0.47,0.7954,0.3254,A,0.075
196,0.49847,1.2,2,0.34893,0.41539,0.45693,196,2.12681,-0.18,-0.09139,0.40709,5,1D2U,2.0,False,0.227,18,True,right,0.08308,1.3454,1.8454,0.5,0.2122,0.9792,0.767,A,0.18
197,0.49847,1.2,2,0.43201,0.28247,0.57324,197,2.17666,-0.22,-0.108,0.39047,5,1D2U,2.0,False,0.705,19,True,right,-0.24924,1.3853,1.8682,0.4829,0.4677,0.9015,0.4338,A,0.18
198,0.49847,0.1,1,0.30739,0.32401,0.40709,198,2.08528,0.1,0.04985,0.54832,5,2D1U,1.0,True,0.167,13,False,left,0.08308,0.2779,0.9024,0.6245,1.2359,1.8944,0.6586,A,0.075
199,0.49847,0.1,2,0.25754,0.44032,0.47355,199,2.2182,0.1,0.04985,0.54832,5,2D1U,2.0,True,0.263,13,False,right,-0.24924,1.1169,1.7088,0.5918,0.3509,0.6756,0.3247,A,0.075
200,0.49847,1.2,1,0.24924,0.23262,0.45693,200,1.81111,-0.26,-0.13293,0.37385,5,1D2U,2.0,True,0.251,19,False,right,0.08308,0.1556,0.7145,0.5589,1.0393,1.8056,0.7663,A,0.18
201,0.49847,1.2,2,0.22431,0.44032,0.88063,201,2.41758,-0.26,-0.13293,0.37385,5,1D2U,1.0,True,0.15,19,False,left,-0.24924,1.4872,1.9541,0.4669,0.2623,0.6958,0.4335,A,0.18
202,0.49847,0.1,2,0.28247,0.35724,0.5317,202,2.20158,0.06,0.03323,0.5317,5,2D1U,2.0,True,0.165,13,False,right,0.08308,1.364,1.9392,0.5751,0.2063,0.8648,0.6586,A,0.075
203,0.49847,0.1,1,0.2077,0.32401,0.78094,203,2.20159,-0.22,-0.108,0.39047,5,1D2U,1.0,False,0.35,20,True,left,-0.24924,0.176,0.6429,0.4669,1.5177,1.8429,0.3252,A,0.075
204,0.49847,1.2,1,0.38216,0.44862,0.55663,204,2.41758,0.06,0.03323,0.5317,5,2D1U,1.0,True,0.279,13,False,left,0.08308,0.2893,1.0053,0.716,1.4295,2.1961,0.7666,A,0.18
205,0.49847,1.2,1,0.40709,0.24924,0.51509,205,2.04374,-0.26,-0.13293,0.37385,5,1D2U,1.0,False,0.466,21,True,left,-0.24924,0.3181,0.8766,0.5585,1.4267,1.8609,0.4342,A,0.18
206,0.49847,0.1,2,0.33231,0.44032,0.45693,206,2.07696,-0.3,-0.14954,0.34893,5,1D2U,1.0,True,0.192,21,False,left,0.08308,1.339,1.7311,0.3921,0.2566,0.9142,0.6576,A,0.075
207,0.49847,0.1,1,0.32401,0.28247,0.49847,207,2.1102,0.02,0.00831,0.50678,5,2D1U,1.0,True,0.467,13,False,left,-0.24924,0.292,0.8758,0.5838,1.4662,1.7915,0.3253,A,0.075
208,0.49847,1.2,1,0.24924,0.2077,0.59817,208,1.90251,-0.3,-0.14954,0.34893,5,1D2U,2.0,True,0.284,21,False,right,0.08308,0.1572,0.6901,0.5329,1.1567,999.0,997.8433,A,0.18
209,0.49847,1.2,2,0.29078,0.25754,0.86402,209,2.28466,-0.26,-0.13293,0.37385,5,1D2U,1.0,True,2.389,22,True,left,-0.24924,1.5366,2.0031,0.4665,0.3281,0.7616,0.4334,A,0.18
210,0.49847,0.1,1,0.33231,0.36555,0.74771,210,2.45082,0.02,0.00831,0.50678,5,2D1U,1.0,True,0.492,13,False,left,0.08308,0.3026,0.886,0.5834,1.5597,2.2187,0.659,A,0.075
211,0.49847,0.1,1,0.40709,0.33231,0.78925,211,2.51728,-0.02,-0.00831,0.49016,5,2D1U,2.0,True,0.808,13,False,right,-0.24924,0.3783,0.9449,0.5666,1.8288,2.1537,0.3248,A,0.075
212,0.49847,1.2,1,0.4237,0.3157,0.51509,212,2.25974,0.02,0.00831,0.50678,5,2D1U,1.0,True,0.242,14,True,left,0.08308,0.3308,1.0223,0.6915,1.4048,2.1726,0.7678,A,0.18
213,0.49847,1.2,1,0.30739,0.3157,0.88063,213,2.37604,-0.26,-0.13293,0.37385,5,1D2U,1.0,False,0.396,22,True,left,-0.24924,0.2188,0.7759,0.5571,1.6931,2.1264,0.4333,A,0.18
214,0.49847,0.1,1,0.29078,0.22431,0.49847,214,1.86096,-0.3,-0.14954,0.34893,5,1D2U,2.0,True,0.276,23,True,right,0.08308,0.2601,0.6855,0.4255,1.1095,1.7683,0.6588,A,0.075
215,0.49847,0.1,2,0.30739,0.36555,0.85571,215,2.5339,0.02,0.00831,0.50678,5,2D1U,2.0,True,0.244,14,True,right,-0.24924,1.5452,2.096,0.5507,0.3959,0.7213,0.3255,A,0.075
216,0.49847,1.2,1,0.24924,0.39047,0.80586,216,2.4342,-0.02,-0.00831,0.49016,5,2D1U,2.0,True,0.292,15,True,right,0.08308,0.1612,0.8359,0.6747,1.5108,2.2776,0.7668,A,0.18
217,0.49847,1.2,2,0.30739,0.25754,0.45693,217,1.86926,-0.3,-0.14954,0.34893,5,1D2U,1.0,True,0.282,23,True,left,-0.24924,1.1377,1.5797,0.442,0.3381,0.7706,0.4325,A,0.18
218,0.49847,0.1,1,0.2077,0.40709,0.89725,218,2.51729,0.02,0.00831,0.50678,5,2D1U,1.0,True,0.226,16,True,left,0.08308,0.1783,0.7618,0.5835,1.5869,2.2451,0.6581,A,0.075
219,0.49847,0.1,2,0.44862,0.24924,0.86402,219,2.56713,0.02,0.00831,0.50678,5,2D1U,2.0,True,0.249,16,True,right,-0.24924,1.6981,2.2479,0.5498,0.5394,0.8644,0.325,A,0.075
220,0.49847,1.2,1,0.22431,0.2077,0.40709,220,1.71142,-0.26,-0.13293,0.37385,5,1D2U,2.0,True,0.542,24,True,right,0.08308,0.1357,0.6942,0.5584,0.9693,999.0,998.0307,A,0.18
221,0.49847,1.2,2,0.19939,0.44032,0.86402,221,2.37605,-0.26,-0.13293,0.37385,5,1D2U,1.0,True,0.567,24,True,left,-0.24924,1.4401,1.9064,0.4663,0.2321,0.6651,0.433,A,0.18
222,0.49847,0.1,1,0.30739,0.3157,0.78094,222,2.39266,-0.02,-0.00831,0.49016,5,2D1U,2.0,True,0.276,17,True,right,0.08308,0.2752,0.8419,0.5667,1.5502,2.2077,0.6575,A,0.075
223,0.49847,0.1,1,0.34893,0.22431,0.87233,223,2.45082,0.02,0.00831,0.50678,5,2D1U,2.0,False,1.092,18,True,right,-0.24924,0.3132,0.8965,0.5834,1.8629,2.1879,0.325,A,0.075
224,0.49847,1.2,2,0.19939,0.25754,0.60647,224,1.95234,-0.22,-0.108,0.39047,5,1D2U,1.0,True,0.503,24,False,left,0.08308,1.3537,1.8373,0.4836,0.0703,0.8366,0.7663,A,0.18
225,0.49847,1.2,2,0.3157,0.34062,0.77263,225,2.45912,0.06,0.03323,0.5317,5,2D1U,2.0,True,0.111,18,False,right,-0.24924,1.4657,2.0903,0.6246,0.3487,0.7819,0.4333,A,0.18
226,0.49847,0.1,1,0.24093,0.23262,0.6314,226,1.99389,-0.22,-0.108,0.39047,5,1D2U,2.0,True,0.277,24,False,right,0.08308,0.207,0.6732,0.4662,1.2311,1.8891,0.6581,A,0.075
227,0.49847,0.1,1,0.22431,0.34062,0.59817,227,2.19327,0.06,0.03323,0.5317,5,2D1U,2.0,False,0.235,18,False,right,-0.24924,0.1939,0.8024,0.6085,1.4935,1.8182,0.3247,A,0.075
228,0.49847,1.2,1,0.39878,0.34062,0.80586,228,2.45082,-0.18,-0.09139,0.40709,5,1D2U,2.0,True,0.173,24,False,right,0.08308,0.3114,0.9019,0.5905,1.578,2.3445,0.7665,A,0.18
229,0.49847,1.2,2,0.43201,0.34893,0.59817,229,2.4259,0.1,0.04985,0.54832,5,2D1U,2.0,True,0.239,18,False,right,-0.24924,1.4063,2.0477,0.6414,0.464,0.8979,0.4339,A,0.18
230,0.49847,0.1,1,0.33231,0.38216,0.76432,230,2.38435,-0.18,-0.09139,0.40709,5,1D2U,2.0,True,0.147,24,False,right,0.08308,0.2986,0.7817,0.4832,1.4736,2.1318,0.6582,A,0.075
231,0.49847,0.1,1,0.37385,0.39047,0.89725,231,2.70836,0.1,0.04985,0.54832,5,2D1U,1.0,True,0.184,18,False,left,-0.24924,0.3436,0.968,0.6244,1.9596,2.2844,0.3248,A,0.075
232,0.49847,1.2,2,0.38216,0.36555,0.5317,232,2.30958,0.06,0.03323,0.5317,5,2D1U,1.0,False,0.113,19,True,left,0.08308,1.4551,2.0803,0.6252,0.2471,1.0135,0.7663,A,0.18
233,0.49847,1.2,1,0.34893,0.24924,0.85571,233,2.50067,0.1,0.04985,0.54832,5,2D1U,1.0,True,0.517,20,True,left,-0.24924,0.2564,0.9892,0.7327,1.881,2.3145,0.4335,A,0.18
234,0.49847,0.1,1,0.35724,0.36555,0.51509,234,2.16836,-0.14,-0.06646,0.43201,5,1D2U,2.0,True,0.159,24,False,right,0.08308,0.3288,0.8361,0.5073,1.2784,1.9367,0.6583,A,0.075
235,0.49847,0.1,1,0.23262,0.35724,0.8474,235,2.48405,0.1,0.04985,0.54832,5,2D1U,2.0,False,0.188,20,True,right,-0.24924,0.1962,0.8217,0.6255,1.7624,2.0876,0.3252,A,0.075
236,0.49847,1.2,1,0.39878,0.37385,0.85571,236,2.55882,-0.14,-0.06646,0.43201,5,1D2U,2.0,True,0.236,24,False,right,0.08308,0.31,0.9267,0.6168,1.6515,2.4183,0.7668,A,0.18
237,0.49847,1.2,2,0.29078,0.40709,0.50678,237,2.15174,-0.1,-0.04985,0.44862,5,1D2U,1.0,True,0.493,24,False,left,-0.24924,1.1774,1.7191,0.5417,0.3274,0.7608,0.4334,A,0.18
238,0.49847,0.1,2,0.35724,0.39878,0.5317,238,2.35943,0.14,0.06646,0.57324,5,2D1U,2.0,True,0.15,20,False,right,0.08308,1.4403,2.0573,0.617,0.2818,0.9404,0.6586,A,0.075
239,0.49847,0.1,2,0.29078,0.34062,0.85571,239,2.55882,0.14,0.06646,0.57324,5,2D1U,1.0,False,0.11,20,False,left,-0.24924,1.5362,2.1526,0.6164,0.3861,0.7107,0.3246,A,0.075
240,0.49847,1.2,1,0.24093,0.32401,0.49016,240,2.00219,-0.1,-0.04985,0.44862,5,1D2U,2.0,True,0.23,24,False,right,0.08308,0.1485,0.7805,0.632,1.1386,1.9054,0.7668,A,0.18
241,0.49847,1.2,2,0.23262,0.32401,0.75602,241,2.28467,-0.06,-0.03323,0.47355,5,1D2U,1.0,True,0.192,24,False,left,-0.24924,1.3694,1.9359,0.5665,0.2692,0.7026,0.4335,A,0.18
242,0.49847,0.1,1,0.32401,0.22431,0.68955,242,2.3262,0.18,0.09139,0.58986,5,2D1U,2.0,False,0.24,20,False,right,0.08308,0.2889,0.9551,0.6662,1.5717,2.2295,0.6578,A,0.075
243,0.49847,0.1,2,0.32401,0.24924,0.83079,243,2.37606,-0.06,-0.03323,0.47355,5,1D2U,2.0,False,0.273,24,False,right,-0.24924,1.543,2.0601,0.5171,0.4174,0.743,0.3257,A,0.075
244,0.49847,1.2,2,0.26585,0.25754,0.56494,244,2.03542,-0.1,-0.04985,0.44862,5,1D2U,1.0,True,0.266,25,True,left,0.08308,1.378,1.92,0.542,0.1366,0.9029,0.7663,A,0.18
245,0.49847,1.2,2,0.3157,0.29908,0.83909,245,2.40096,-0.1,-0.04985,0.44862,5,1D2U,2.0,False,0.466,25,True,right,-0.24924,1.536,2.0772,0.5412,0.3532,0.7861,0.433,A,0.18
246,0.49847,0.1,1,0.41539,0.22431,0.62309,246,2.36773,0.22,0.108,0.60647,5,2D1U,1.0,True,0.175,20,False,left,0.08308,0.3803,1.0637,0.6834,1.6147,2.273,0.6583,A,0.075
247,0.49847,0.1,2,0.43201,0.34062,0.60647,247,2.30958,-0.14,-0.06646,0.43201,5,1D2U,2.0,False,0.111,25,False,right,-0.24924,1.4217,1.8969,0.4753,0.5218,0.8469,0.3251,A,0.075
248,0.49847,1.2,2,0.3157,0.28247,0.68125,248,2.38436,0.22,0.108,0.60647,5,2D1U,2.0,True,0.189,20,False,right,0.08308,1.537,2.2366,0.6996,0.1794,0.9451,0.7657,A,0.18
249,0.49847,1.2,1,0.40709,0.23262,0.60647,249,2.15174,-0.18,-0.09139,0.40709,5,1D2U,2.0,True,0.334,25,False,right,-0.24924,0.3123,0.9039,0.5916,1.5454,1.979,0.4336,A,0.18
250,0.49847,0.1,1,0.3157,0.40709,0.61478,250,2.4259,0.18,0.09139,0.58986,5,2D1U,1.0,True,0.212,21,True,left,0.08308,0.2796,0.946,0.6663,1.4872,2.1464,0.6592,A,0.075
251,0.49847,0.1,1,0.25754,0.29908,0.57324,251,2.03542,-0.18,-0.09139,0.40709,5,1D2U,2.0,True,0.25,25,False,right,-0.24924,0.2257,0.709,0.4833,1.3754,1.7,0.3247,A,0.075
252,0.49847,1.2,1,0.33231,0.29078,0.68955,252,2.24312,-0.14,-0.06646,0.43201,5,1D2U,2.0,True,0.25,26,True,right,0.08308,0.2393,0.8555,0.6162,1.4146,2.181,0.7664,A,0.18
253,0.49847,1.2,1,0.35724,0.34062,0.50678,253,2.29297,0.18,0.09139,0.58986,5,2D1U,1.0,True,0.344,21,True,left,-0.24924,0.2697,1.0452,0.7755,1.5862,2.0201,0.4339,A,0.18
254,0.49847,0.1,1,0.26585,0.3157,0.75602,254,2.40928,0.14,0.06646,0.57324,5,2D1U,1.0,True,0.184,21,False,left,0.08308,0.2343,0.8848,0.6505,1.5685,2.2264,0.6579,A,0.075
255,0.49847,0.1,2,0.29908,0.28247,0.68955,255,2.20158,-0.14,-0.06646,0.43201,5,1D2U,1.0,True,0.242,26,True,left,-0.24924,1.3787,1.8534,0.4747,0.3943,0.7196,0.3252,A,0.075
256,0.49847,1.2,2,0.24093,0.36555,0.57324,256,2.25143,0.14,0.06646,0.57324,5,2D1U,1.0,False,2.03,21,False,left,0.08308,1.3608,2.0273,0.6666,0.1099,0.8771,0.7672,A,0.18
257,0.49847,1.2,2,0.24093,0.32401,0.5317,257,2.18497,0.18,0.09139,0.58986,5,2D1U,2.0,True,0.214,22,True,right,-0.24924,1.1458,1.829,0.6832,0.2705,0.7035,0.433,A,0.18
258,0.49847,0.1,1,0.29078,0.25754,0.71448,258,2.35113,0.18,0.09139,0.58986,5,2D1U,1.0,True,0.35,22,True,left,0.08308,0.2554,0.9228,0.6675,1.563,2.2221,0.6591,A,0.075
259,0.49847,0.1,2,0.39878,0.39047,0.78094,259,2.51728,-0.1,-0.04985,0.44862,5,1D2U,2.0,False,0.201,26,False,right,-0.24924,1.5639,2.0567,0.4928,0.4894,0.8138,0.3243,A,0.075
260,0.49847,1.2,2,0.36555,0.38216,0.83079,260,2.50898,-0.14,-0.06646,0.43201,5,1D2U,1.0,True,0.386,27,True,left,0.08308,1.7385,2.2637,0.5252,0.2302,0.9969,0.7667,A,0.18
261,0.49847,1.2,2,0.35724,0.216,0.73109,261,2.37604,0.14,0.06646,0.57324,5,2D1U,2.0,True,0.235,23,True,right,-0.24924,1.4676,2.1347,0.6672,0.393,0.8257,0.4327,A,0.18
262,0.49847,0.1,1,0.4237,0.2077,0.55663,262,2.25974,0.14,0.06646,0.57324,5,2D1U,1.0,True,0.259,23,True,left,0.08308,0.3934,1.043,0.6496,1.527,2.1853,0.6584,A,0.075
263,0.49847,0.1,1,0.34893,0.216,0.78094,263,2.39266,0.1,0.04985,0.54832,5,2D1U,2.0,False,1.064,23,False,right,-0.24924,0.3149,0.94,0.625,1.8145,2.1403,0.3257,A,0.075
264,0.49847,1.2,1,0.34893,0.25754,0.63971,264,2.17666,-0.14,-0.06646,0.43201,5,1D2U,2.0,True,0.245,27,True,right,0.08308,0.2574,0.8738,0.6165,1.3826,2.1481,0.7655,A,0.18
265,0.49847,1.2,2,0.22431,0.34893,0.68955,265,2.3345,0.14,0.06646,0.57324,5,2D1U,2.0,True,1.773,24,True,right,-0.24924,1.2872,1.953,0.6658,0.2536,0.687,0.4333,A,0.18
266,0.49847,0.1,1,0.34062,0.30739,0.54832,266,2.26804,0.14,0.06646,0.57324,5,2D1U,1.0,True,0.308,24,True,left,0.08308,0.3057,0.9557,0.65,1.4304,2.0888,0.6584,A,0.075
267,0.49847,0.1,2,0.39047,0.29078,0.70617,267,2.33451,-0.1,-0.04985,0.44862,5,1D2U,2.0,False,0.29,28,True,right,-0.24924,1.4808,1.9719,0.4911,0.4805,0.8057,0.3251,A,0.075
268,0.49847,1.2,1,0.30739,0.28247,0.83909,268,2.47574,0.1,0.04985,0.54832,5,2D1U,2.0,False,0.337,25,True,right,0.08308,0.2157,0.9494,0.7337,1.6572,2.4244,0.7672,A,0.18
269,0.49847,1.2,1,0.34893,0.39878,0.66463,269,2.48405,0.14,0.06646,0.57324,5,2D1U,1.0,True,0.283,26,True,left,-0.24924,0.2602,1.0177,0.7575,1.7181,2.151,0.4328,A,0.18
270,0.49847,0.1,2,0.34062,0.44032,0.44032,270,2.15174,-0.14,-0.06646,0.43201,5,1D2U,1.0,True,0.113,29,True,left,0.08308,1.333,1.8074,0.4744,0.2663,0.925,0.6587,A,0.075
271,0.49847,0.1,2,0.33231,0.43201,0.67294,271,2.50897,0.14,0.06646,0.57324,5,2D1U,2.0,True,0.113,26,True,right,-0.24924,1.389,2.0053,0.6163,0.4212,0.7465,0.3253,A,0.075
272,0.49847,1.2,1,0.22431,0.32401,0.62309,272,2.2182,0.1,0.04985,0.54832,5,2D1U,2.0,False,0.2,27,True,right,0.08308,0.1308,0.8637,0.7329,1.3553,2.1226,0.7674,A,0.18
273,0.49847,1.2,2,0.216,0.3157,0.61478,273,2.07696,-0.14,-0.06646,0.43201,5,1D2U,2.0,False,0.496,29,True,right,-0.24924,1.2048,1.7293,0.5244,0.246,0.6791,0.4331,A,0.18
274,0.49847,0.1,2,0.19939,0.38216,0.47355,274,1.96066,-0.18,-0.09139,0.40709,5,1D2U,1.0,True,0.124,29,False,left,0.08308,1.2221,1.6727,0.4506,0.1228,0.7803,0.6575,A,0.075
275,0.49847,0.1,2,0.39047,0.26585,0.7394,275,2.46743,0.14,0.06646,0.57324,5,2D1U,2.0,True,0.113,28,True,right,-0.24924,1.5185,2.1353,0.6169,0.4858,0.8098,0.324,A,0.075
276,0.49847,1.2,2,0.35724,0.3157,0.72278,276,2.30128,-0.18,-0.09139,0.40709,5,1D2U,1.0,True,0.301,29,False,left,0.08308,1.6233,2.123,0.4997,0.2225,0.9891,0.7666,A,0.18
277,0.49847,1.2,1,0.35724,0.39047,0.54001,277,2.35943,0.14,0.06646,0.57324,5,2D1U,2.0,False,0.123,28,True,right,-0.24924,0.2627,1.0221,0.7594,1.5964,2.0306,0.4342,A,0.18
