,Unnamed: 0,standardDur,audNoise,order,preDur,postDur,isiDur,trial_num,totalDur,delta_dur_percents,deltaDurS,testDurS,intensities,current_stair,responses,is_correct,response_rts,stair_num_reversal,stair_is_reversal,response_keys,conflictDur,recordedOnsetVisualTest,recordedOffsetVisualTest,recordedDurVisualTest,recordedOnsetVisualStandard,recordedOffsetVisualStandard,recordedDurVisualStandard,modalityPostCue
0,0,0.50034,1.2,1,0.42529,0.24183,0.55872,0,2.55175,0.65,0.32522,0.82557,5,2D1U,1.0,True,0.901,0,False,left,0.0,0.4289,1.2542,0.8252,1.8123,2.3124,0.5001,V
1,1,0.50034,0.1,2,0.22515,0.27519,0.48366,1,1.65946,-0.65,-0.32522,0.17512,5,3U1D,1.0,True,0.925,0,False,left,0.0,1.2183,1.3936,0.1753,0.2349,0.7351,0.5002,A
2,2,0.50034,1.2,2,0.43363,0.28353,0.74218,2,2.78525,0.65,0.32522,0.82557,5,2D1U,2.0,True,0.376,0,False,right,0.0,1.6817,2.506,0.8242,0.4395,0.9401,0.5006,V
3,3,0.50034,1.2,2,0.28353,0.25851,0.6838,3,1.77621,-0.9,-0.45031,0.05003,5,lapse_rate,1.0,True,0.6,0,False,left,0.0,1.4707,1.5202,0.0495,0.2879,0.7879,0.5,V
4,4,0.50034,0.1,2,0.20848,0.20848,0.70882,4,2.45169,0.65,0.32522,0.82557,5,3D1U,2.0,True,0.269,0,False,right,0.0,1.4214,2.2458,0.8244,0.2122,0.7125,0.5003,A
5,5,0.50034,1.2,1,0.22515,0.40861,0.80055,5,2.10977,-0.65,-0.32522,0.17512,5,3U1D,2.0,True,0.467,0,False,right,0.0,0.2305,0.4054,0.1749,1.2051,1.7051,0.5,A
6,6,0.50034,0.1,2,0.43363,0.23349,0.6838,6,2.02638,-0.65,-0.32522,0.17512,5,2U1D,1.0,True,0.417,0,False,left,0.0,1.6241,1.7992,0.175,0.4409,0.9409,0.5,A
7,7,0.50034,1.2,1,0.40027,0.45031,0.50868,7,2.68517,0.65,0.32522,0.82557,5,3D1U,2.0,False,2.326,0,False,right,0.0,0.4098,1.2353,0.8254,1.7444,2.2433,0.4989,V
8,8,0.50034,0.1,1,0.28353,0.41695,0.61709,8,1.99303,-0.65,-0.32522,0.17512,5,2U1D,2.0,True,0.266,0,False,right,0.0,0.2874,0.4629,0.1755,1.0794,1.5794,0.5,V
9,9,0.50034,1.2,2,0.27519,0.32522,0.54204,9,1.81791,-0.65,-0.32522,0.17512,5,3U1D,1.0,True,0.418,0,False,left,0.0,1.321,1.496,0.175,0.2794,0.7796,0.5002,V
10,10,0.50034,0.1,2,0.30021,0.37526,0.80055,10,2.75189,0.55,0.27519,0.77553,5,2D1U,2.0,True,1.109,0,False,right,0.0,1.6104,2.3851,0.7747,0.3103,0.8106,0.5003,V
11,11,0.50034,0.1,2,0.35858,0.3836,0.54204,11,1.83459,-0.9,-0.45031,0.05003,5,lapse_rate,1.0,True,0.368,0,False,left,0.0,1.4097,1.4597,0.0501,0.3681,0.8682,0.5,A
12,12,0.50034,1.2,1,0.40861,0.25851,0.66712,12,2.61011,0.55,0.27519,0.77553,5,2D1U,2.0,False,0.5,0,False,right,0.0,0.4161,1.1914,0.7753,1.8582,2.3583,0.5001,V
13,13,0.50034,0.1,1,0.24183,0.36692,0.492,13,2.55174,0.9,0.45031,0.95065,5,lapse_rate,1.0,True,0.234,0,False,left,0.0,0.2499,1.1991,0.9492,1.6922,2.1923,0.5001,V
14,14,0.50034,0.1,2,0.37526,0.30854,0.79221,14,2.2015,-0.55,-0.27519,0.22515,5,2U1D,1.0,True,0.292,0,False,left,0.0,1.6716,1.8957,0.2242,0.3796,0.8795,0.4999,A
15,15,0.50034,1.2,1,0.30854,0.39194,0.63377,15,2.05974,-0.55,-0.27519,0.22515,5,3U1D,2.0,True,0.268,0,False,right,0.0,0.3106,0.5358,0.2252,1.1688,1.6694,0.5006,V
16,16,0.50034,0.1,2,0.21682,0.29187,0.46699,16,2.35162,0.75,0.37526,0.8756,5,3D1U,2.0,True,0.276,0,False,right,0.0,1.1887,2.0638,0.8751,0.2218,0.7218,0.5,A
17,17,0.50034,1.2,2,0.25017,0.20848,0.48366,17,2.3933,0.9,0.45031,0.95065,5,lapse_rate,2.0,True,0.283,0,False,right,0.0,1.2415,2.1924,0.9508,0.2591,0.7584,0.4993,V
18,18,0.50034,1.2,2,0.41695,0.31688,0.5337,18,2.57676,0.61,0.30854,0.80889,5,2D1U,1.0,False,0.358,1,True,left,0.0,1.4597,2.2682,0.8086,0.4265,0.9262,0.4998,A
19,19,0.50034,0.1,1,0.39194,0.31688,0.60875,19,2.04306,-0.55,-0.27519,0.22515,5,2U1D,2.0,True,0.233,0,False,right,0.0,0.4011,0.6265,0.2254,1.2348,1.7348,0.5,V
20,20,0.50034,1.2,2,0.41695,0.23349,0.60041,20,2.62679,0.75,0.37526,0.8756,5,3D1U,2.0,True,0.292,0,False,right,0.0,1.5221,2.3972,0.8751,0.4221,0.9221,0.5,A
21,21,0.50034,0.1,2,0.32522,0.25017,0.50034,21,1.80122,-0.55,-0.27519,0.22515,5,3U1D,1.0,True,0.325,0,False,left,0.0,1.3272,1.553,0.2258,0.3272,0.8284,0.5012,A
22,22,0.50034,1.2,2,0.31688,0.40027,0.7255,22,2.81859,0.75,0.37526,0.8756,5,3D1U,2.0,True,0.234,0,False,right,0.0,1.5449,2.4187,0.8738,0.3198,0.8188,0.4991,V
23,23,0.50034,0.1,1,0.22515,0.35024,0.86726,23,2.21818,-0.45,-0.22515,0.27519,5,2U1D,2.0,True,0.251,0,False,right,0.0,0.2324,0.5071,0.2747,1.3744,1.8731,0.4988,A
24,24,0.50034,1.2,2,0.3419,0.21682,0.74218,24,2.63515,0.67,0.33356,0.83391,5,2D1U,2.0,True,0.283,1,False,right,0.0,1.5913,2.4243,0.833,0.3495,0.8493,0.4999,V
25,25,0.50034,1.2,2,0.44197,0.40027,0.80889,25,2.2015,-0.9,-0.45031,0.05003,5,lapse_rate,1.0,True,0.301,0,False,left,0.0,1.7577,1.8078,0.05,0.4495,0.9494,0.4999,V
26,26,0.50034,0.1,1,0.3419,0.30021,0.50868,26,1.87628,-0.55,-0.27519,0.22515,5,3U1D,2.0,True,0.142,0,False,right,0.0,0.3489,0.5746,0.2257,1.0831,1.5836,0.5005,A
27,27,0.50034,1.2,2,0.40027,0.28353,0.80889,27,2.83527,0.69,0.3419,0.84224,5,3D1U,2.0,True,0.334,1,True,right,0.0,1.7171,2.5583,0.8413,0.4086,0.9088,0.5002,A
28,28,0.50034,1.2,2,0.29187,0.39194,0.80889,28,2.04307,-0.9,-0.45031,0.05003,5,lapse_rate,1.0,True,0.284,0,False,left,0.0,1.6039,1.6543,0.0504,0.2953,0.7956,0.5002,V
29,29,0.50034,0.1,2,0.42529,0.27519,0.46699,29,1.943,-0.45,-0.22515,0.27519,5,2U1D,1.0,True,0.283,0,False,left,0.0,1.3976,1.6726,0.2749,0.4309,0.9311,0.5002,V
30,30,0.50034,1.2,2,0.45031,0.29187,0.75051,30,2.26822,-0.45,-0.22515,0.27519,5,3U1D,1.0,True,0.46,0,False,left,0.0,1.7076,1.9826,0.275,0.4567,0.9576,0.5009,A
31,31,0.50034,0.1,1,0.30021,0.25851,0.45865,31,2.35162,0.67,0.33356,0.83391,5,2D1U,1.0,True,0.292,1,False,left,0.0,0.3078,1.1405,0.8327,1.5985,2.0992,0.5008,A
32,32,0.50034,1.2,1,0.27519,0.25017,0.64211,32,1.99303,-0.35,-0.17512,0.32522,5,2U1D,2.0,True,0.401,0,False,right,0.0,0.2806,0.6053,0.3247,1.2476,1.7477,0.5001,A
33,33,0.50034,0.1,1,0.21682,0.29187,0.61709,33,2.46836,0.69,0.3419,0.84224,5,3D1U,1.0,True,0.385,1,True,left,0.0,0.227,1.0689,0.8419,1.6856,2.1851,0.4995,A
34,34,0.50034,1.2,1,0.40861,0.40027,0.62543,34,1.98468,-0.9,-0.45031,0.05003,5,lapse_rate,2.0,True,0.26,0,False,right,0.0,0.4173,0.4675,0.0502,1.0917,1.5923,0.5006,V
35,35,0.50034,1.2,1,0.20848,0.33356,0.83391,35,2.15148,-0.45,-0.22515,0.27519,5,3U1D,2.0,True,0.408,0,False,right,0.0,0.2147,0.4896,0.2748,1.3229,1.8241,0.5012,A
36,36,0.50034,0.1,1,0.31688,0.3419,0.60875,36,2.5851,0.634,0.31688,0.81723,5,2D1U,1.0,True,0.251,2,True,left,0.0,0.322,1.138,0.8159,1.7463,2.2467,0.5004,V
37,37,0.50034,1.2,2,0.42529,0.20848,0.47533,37,2.45168,0.69,0.3419,0.84224,5,3D1U,2.0,True,0.324,1,True,right,0.0,1.4075,2.2492,0.8417,0.4322,0.9326,0.5004,A
38,38,0.50034,0.1,2,0.30854,0.27519,0.5337,38,1.94299,-0.35,-0.17512,0.32522,5,2U1D,1.0,True,0.243,0,False,left,0.0,1.347,1.6719,0.3248,0.3133,0.8136,0.5003,A
39,39,0.50034,0.1,2,0.3419,0.23349,0.43363,39,2.46001,0.9,0.45031,0.95065,5,lapse_rate,2.0,True,0.217,0,False,right,0.0,1.2818,2.2314,0.9496,0.3486,0.8486,0.5,V
40,40,0.50034,1.2,2,0.44197,0.40861,0.5337,40,2.70185,0.634,0.31688,0.81723,5,2D1U,2.0,True,0.259,2,True,right,0.0,1.4783,2.2949,0.8165,0.4452,0.9452,0.5001,V
41,41,0.50034,0.1,2,0.27519,0.3419,0.85058,41,2.2432,-0.45,-0.22515,0.27519,5,3U1D,1.0,True,0.26,0,False,left,0.0,1.6278,1.9036,0.2757,0.2784,0.7774,0.499,A
42,42,0.50034,1.2,1,0.23349,0.35024,0.82557,42,2.71019,0.598,0.30021,0.80055,5,2D1U,1.0,True,1.826,2,False,left,0.0,0.2407,1.0407,0.8,1.8658,2.366,0.5002,V
43,43,0.50034,0.1,2,0.33356,0.25017,0.84224,43,2.74354,0.63,0.31688,0.81723,5,3D1U,2.0,True,0.367,1,False,right,0.0,1.6787,2.4957,0.817,0.3372,0.8365,0.4993,V
44,44,0.50034,0.1,1,0.31688,0.25851,0.74218,44,1.86794,-0.9,-0.45031,0.05003,5,lapse_rate,2.0,True,0.283,0,False,right,0.0,0.3264,0.3765,0.0501,1.1183,1.6174,0.4991,V
45,45,0.50034,1.2,1,0.37526,0.42529,0.65878,45,2.33493,-0.25,-0.12509,0.37526,5,2U1D,2.0,True,2.142,0,False,right,0.0,0.3829,0.7581,0.3752,1.4162,1.9163,0.5001,V
46,46,0.50034,0.1,2,0.44197,0.35858,0.40861,46,2.03472,-0.35,-0.17512,0.32522,5,3U1D,1.0,True,0.301,0,False,left,0.0,1.3589,1.6832,0.3243,0.4493,0.95,0.5007,A
47,47,0.50034,1.2,2,0.33356,0.44197,0.51702,47,2.11811,-0.35,-0.17512,0.32522,5,3U1D,1.0,True,0.375,0,False,left,0.0,1.3539,1.6787,0.3248,0.3375,0.8377,0.5002,A
48,48,0.50034,0.1,1,0.41695,0.40027,0.89228,48,3.01039,0.598,0.30021,0.80055,5,2D1U,1.0,True,0.367,2,False,left,0.0,0.4236,1.2221,0.7986,2.1144,2.6144,0.5,A
49,49,0.50034,1.2,1,0.25017,0.39194,0.69214,49,2.20985,-0.25,-0.12509,0.37526,5,2U1D,1.0,False,0.65,0,False,left,0.0,0.2536,0.6286,0.375,1.3201,1.8207,0.5006,A
50,50,0.50034,1.2,2,0.20848,0.42529,0.71716,50,2.80192,0.9,0.45031,0.95065,5,lapse_rate,2.0,True,0.376,0,False,right,0.0,1.4286,2.378,0.9494,0.2116,0.7117,0.5001,V
51,51,0.50034,0.1,2,0.21682,0.30021,0.75885,51,2.59345,0.63,0.31688,0.81723,5,3D1U,2.0,True,0.325,1,False,right,0.0,1.4851,2.301,0.8159,0.2265,0.7269,0.5004,A
52,52,0.50034,0.1,1,0.35024,0.23349,0.41695,52,1.55105,-0.9,-0.45031,0.05003,5,lapse_rate,2.0,True,0.3,0,False,right,0.0,0.3557,0.4056,0.0499,0.8223,1.322,0.4997,A
53,53,0.50034,1.2,1,0.39194,0.35858,0.42529,53,2.00137,-0.35,-0.17512,0.32522,5,3U1D,2.0,True,0.543,0,False,right,0.0,0.3943,0.7193,0.325,1.1442,1.6444,0.5003,A
54,54,0.50034,0.1,1,0.41695,0.22515,0.67546,54,2.1598,-0.31,-0.15844,0.3419,5,2U1D,2.0,True,1.585,1,True,right,0.0,0.4249,0.7676,0.3427,1.4416,1.9424,0.5009,V
55,55,0.50034,1.2,1,0.36692,0.24183,0.61709,55,2.51005,0.562,0.28353,0.78387,5,2D1U,2.0,False,2.092,2,False,right,0.0,0.3734,1.157,0.7837,1.7728,2.2737,0.5009,A
56,56,0.50034,0.1,1,0.21682,0.37526,0.86726,56,2.77691,0.63,0.31688,0.81723,5,3D1U,1.0,True,0.284,1,False,left,0.0,0.2251,1.0424,0.8173,1.9088,2.4084,0.4997,V
57,57,0.50034,1.2,2,0.37526,0.28353,0.50034,57,2.00137,-0.31,-0.15844,0.3419,5,2U1D,1.0,True,0.609,1,True,left,0.0,1.3805,1.7221,0.3415,0.381,0.8809,0.4999,V
58,58,0.50034,0.1,2,0.30021,0.21682,0.69214,58,2.51006,0.598,0.30021,0.80055,5,2D1U,2.0,True,0.276,3,True,right,0.0,1.4971,2.2971,0.8,0.305,0.8053,0.5003,A
59,59,0.50034,1.2,1,0.36692,0.35858,0.69214,59,2.70185,0.57,0.28353,0.78387,5,3D1U,1.0,True,0.41,1,False,left,0.0,0.3715,1.1551,0.7836,1.8465,2.3461,0.4996,V
60,60,0.50034,1.2,2,0.30854,0.35858,0.80055,60,2.01804,-0.9,-0.45031,0.05003,5,lapse_rate,1.0,True,0.384,0,False,left,0.0,1.6157,1.665,0.0493,0.3156,0.815,0.4994,V
61,61,0.50034,0.1,1,0.25851,0.20848,0.88394,61,2.22653,-0.25,-0.12509,0.37526,5,3U1D,2.0,True,0.301,0,False,right,0.0,0.2657,0.6403,0.3746,1.524,2.024,0.5,V
62,62,0.50034,1.2,1,0.21682,0.29187,0.46699,62,2.25989,0.57,0.28353,0.78387,5,3D1U,1.0,True,0.351,1,False,left,0.0,0.223,1.0065,0.7835,1.4731,1.973,0.4999,V
63,63,0.50034,0.1,2,0.3419,0.26685,0.8756,63,2.03472,-0.9,-0.45031,0.05003,5,lapse_rate,1.0,True,0.309,0,False,left,0.0,1.727,1.7776,0.0505,0.3528,0.8519,0.499,A
64,64,0.50034,0.1,2,0.25017,0.25851,0.46699,64,1.85127,-0.25,-0.12509,0.37526,5,3U1D,1.0,True,0.393,0,False,left,0.0,1.2203,1.5951,0.3748,0.2529,0.7538,0.5008,V
65,65,0.50034,1.2,1,0.23349,0.39194,0.47533,65,2.40165,0.598,0.30021,0.80055,5,2D1U,2.0,False,0.284,3,True,right,0.0,0.2438,1.0436,0.7998,1.5185,2.018,0.4994,A
66,66,0.50034,0.1,2,0.35024,0.25017,0.52536,66,1.99303,-0.274,-0.13342,0.36692,5,2U1D,1.0,True,0.418,2,True,left,0.0,1.3854,1.7524,0.3669,0.3608,0.8602,0.4994,A
67,67,0.50034,1.2,2,0.37526,0.23349,0.7255,67,2.20151,-0.274,-0.13342,0.36692,5,2U1D,2.0,False,1.134,2,True,right,0.0,1.6099,1.9763,0.3663,0.3852,0.8856,0.5004,V
68,68,0.50034,0.1,1,0.40027,0.43363,0.58373,68,2.86862,0.9,0.45031,0.95065,5,lapse_rate,1.0,True,0.301,0,False,left,0.0,0.4039,1.3536,0.9497,1.9371,2.4373,0.5002,A
69,69,0.50034,0.1,1,0.35858,0.35858,0.75885,69,2.79358,0.634,0.31688,0.81723,5,2D1U,1.0,True,0.259,3,False,left,0.0,0.3611,1.1776,0.8165,1.9354,2.4362,0.5009,V
70,70,0.50034,1.2,2,0.26685,0.32522,0.46699,70,2.34327,0.57,0.28353,0.78387,5,3D1U,2.0,True,0.475,1,False,right,0.0,1.24,2.0243,0.7843,0.2743,0.7734,0.4991,V
71,71,0.50034,0.1,1,0.22515,0.41695,0.40861,71,1.92631,-0.25,-0.12509,0.37526,5,3U1D,2.0,True,0.276,0,False,right,0.0,0.2329,0.6091,0.3762,1.0165,1.5175,0.501,V
72,72,0.50034,1.2,2,0.21682,0.30021,0.78387,72,2.61847,0.634,0.31688,0.81723,5,2D1U,2.0,True,0.358,3,False,right,0.0,1.5047,2.3222,0.8174,0.2218,0.7224,0.5006,V
73,73,0.50034,0.1,2,0.3836,0.29187,0.42529,73,2.02639,-0.15,-0.07505,0.42529,5,3U1D,1.0,True,0.301,0,False,left,0.0,1.3167,1.7415,0.4248,0.3912,0.8918,0.5006,A
74,74,0.50034,0.1,1,0.45031,0.29187,0.79221,74,2.98538,0.9,0.45031,0.95065,5,lapse_rate,1.0,True,0.308,0,False,left,0.0,0.4605,1.4103,0.9498,2.2019,2.7024,0.5004,V
75,75,0.50034,1.2,2,0.21682,0.37526,0.70882,75,2.14314,-0.31,-0.15844,0.3419,5,2U1D,1.0,True,0.909,3,True,left,0.0,1.4337,1.7742,0.3405,0.2257,0.7254,0.4997,V
76,76,0.50034,0.1,2,0.37526,0.20848,0.59207,76,2.435,0.51,0.25851,0.75885,5,3D1U,2.0,True,0.392,1,False,right,0.0,1.4757,2.2341,0.7584,0.3837,0.8838,0.5001,V
77,77,0.50034,1.2,2,0.25851,0.20848,0.60875,77,2.00137,-0.15,-0.07505,0.42529,5,3U1D,1.0,True,0.393,0,False,left,0.0,1.3763,1.8012,0.4249,0.2679,0.7677,0.4998,A
78,78,0.50034,1.2,2,0.22515,0.32522,0.71716,78,2.71852,0.9,0.45031,0.95065,5,lapse_rate,2.0,True,0.308,0,False,right,0.0,1.4475,2.3977,0.9501,0.2304,0.7308,0.5004,A
79,79,0.50034,0.1,1,0.33356,0.32522,0.40027,79,2.31824,0.51,0.25851,0.75885,5,3D1U,1.0,True,0.284,1,False,left,0.0,0.3401,1.0986,0.7585,1.4987,1.9988,0.5001,A
80,80,0.50034,1.2,1,0.21682,0.35858,0.492,80,1.90964,-0.31,-0.15844,0.3419,5,2U1D,2.0,True,1.908,3,True,right,0.0,0.2208,0.5624,0.3416,1.0542,1.5533,0.4992,V
81,81,0.50034,0.1,2,0.21682,0.28353,0.46699,81,2.26823,0.598,0.30021,0.80055,5,2D1U,2.0,True,0.492,4,True,right,0.0,1.1925,1.9916,0.7991,0.2258,0.726,0.5002,A
82,82,0.50034,1.2,2,0.31688,0.27519,0.67546,82,2.19316,-0.15,-0.07505,0.42529,5,3U1D,2.0,False,1.558,0,False,right,0.0,1.4964,1.9219,0.4254,0.3216,0.8214,0.4998,A
83,83,0.50034,0.1,2,0.31688,0.24183,0.75051,83,2.61011,0.598,0.30021,0.80055,5,2D1U,2.0,True,0.185,4,True,right,0.0,1.5735,2.3728,0.7993,0.3233,0.823,0.4996,A
84,84,0.50034,1.2,2,0.40861,0.37526,0.43363,84,2.08476,-0.274,-0.13342,0.36692,5,2U1D,2.0,False,1.96,4,True,right,0.0,1.3444,1.7113,0.367,0.4117,0.9112,0.4995,V
85,85,0.50034,0.1,2,0.37526,0.29187,0.76719,85,2.69351,0.51,0.25851,0.75885,5,3D1U,2.0,True,0.276,1,False,right,0.0,1.6502,2.4075,0.7573,0.3828,0.8833,0.5005,V
86,86,0.50034,1.2,1,0.23349,0.35858,0.50034,86,1.64278,-0.9,-0.45031,0.05003,5,lapse_rate,2.0,True,0.401,0,False,right,0.0,0.2391,0.2897,0.0506,0.7894,1.289,0.4995,A
87,87,0.50034,1.2,1,0.42529,0.21682,0.8756,87,2.74355,0.45,0.22515,0.7255,5,3D1U,1.0,True,1.25,1,False,left,0.0,0.4316,1.1574,0.7258,2.0315,2.5323,0.5008,V
88,88,0.50034,0.1,1,0.25851,0.40861,0.85058,88,2.80191,0.562,0.28353,0.78387,5,2D1U,1.0,True,0.25,4,False,left,0.0,0.265,1.0481,0.7831,1.8986,2.3982,0.4996,A
89,89,0.50034,1.2,1,0.33356,0.42529,0.60875,89,2.81859,0.9,0.45031,0.95065,5,lapse_rate,2.0,False,0.508,0,False,right,0.0,0.3415,1.2912,0.9496,1.899,2.3995,0.5005,V
90,90,0.50034,1.2,1,0.27519,0.26685,0.7255,90,2.15982,-0.21,-0.10841,0.39194,5,3U1D,2.0,True,0.609,1,True,right,0.0,0.284,0.6746,0.3906,1.4001,1.9003,0.5002,A
91,91,0.50034,0.1,2,0.3836,0.20848,0.70048,91,2.1348,-0.31,-0.15844,0.3419,5,2U1D,1.0,True,0.352,5,True,left,0.0,1.5887,1.93,0.3413,0.3886,0.8881,0.4996,A
92,92,0.50034,1.2,2,0.27519,0.20848,0.7255,92,2.43501,0.45,0.22515,0.7255,5,3D1U,2.0,True,0.385,1,False,right,0.0,1.5042,2.2293,0.7251,0.2795,0.7796,0.5001,A
93,93,0.50034,0.1,2,0.25851,0.26685,0.60875,93,2.02639,-0.21,-0.10841,0.39194,5,3U1D,1.0,True,0.318,1,True,left,0.0,1.3741,1.7656,0.3914,0.2661,0.7653,0.4991,A
94,94,0.50034,1.2,1,0.35858,0.30021,0.66712,94,2.16815,-0.31,-0.15844,0.3419,5,2U1D,2.0,True,0.376,5,True,right,0.0,0.3677,0.7089,0.3412,1.3754,1.8758,0.5004,V
95,95,0.50034,1.2,2,0.22515,0.42529,0.63377,95,2.7352,0.9,0.45031,0.95065,5,lapse_rate,2.0,True,0.234,0,False,right,0.0,1.3619,2.3122,0.9503,0.2282,0.7291,0.5009,A
96,96,0.50034,0.1,2,0.31688,0.25851,0.71716,96,2.57676,0.562,0.28353,0.78387,5,2D1U,2.0,True,0.392,4,False,right,0.0,1.5427,2.3265,0.7838,0.3262,0.8256,0.4994,A
97,97,0.50034,0.1,1,0.3836,0.25851,0.40027,97,1.59275,-0.9,-0.45031,0.05003,5,lapse_rate,2.0,True,0.284,0,False,right,0.0,0.3889,0.4394,0.0505,0.8387,1.3386,0.4999,A
98,98,0.50034,1.2,1,0.29187,0.22515,0.58373,98,2.35994,0.526,0.26685,0.75885,5,2D1U,2.0,False,0.526,4,False,right,0.0,0.3025,1.0597,0.7572,1.644,2.1425,0.4985,V
99,99,0.50034,0.1,1,0.3836,0.23349,0.40027,99,1.88462,-0.274,-0.13342,0.36692,5,2U1D,2.0,True,0.993,6,True,right,0.0,0.3933,0.7597,0.3665,1.1596,1.66,0.5003,V
100,100,0.50034,1.2,1,0.37526,0.27519,0.40027,100,1.943,-0.21,-0.10841,0.39194,5,3U1D,2.0,True,0.425,1,True,right,0.0,0.3794,0.7714,0.3921,1.171,1.6706,0.4996,A
101,101,0.50034,0.1,1,0.40861,0.24183,0.60875,101,2.48503,0.45,0.22515,0.7255,5,3D1U,1.0,True,0.342,1,False,left,0.0,0.4102,1.1353,0.725,1.7457,2.244,0.4983,A
102,102,0.50034,0.1,2,0.39194,0.35858,0.75885,102,2.96036,0.9,0.45031,0.95065,5,lapse_rate,2.0,True,0.326,0,False,right,0.0,1.6602,2.6103,0.9502,0.4023,0.9022,0.4999,A
103,103,0.50034,1.2,1,0.21682,0.35024,0.6838,103,2.16815,-0.174,-0.08339,0.41695,5,3U1D,2.0,True,1.145,2,True,right,0.0,0.2239,0.6423,0.4183,1.3248,1.8242,0.4994,A
104,104,0.50034,0.1,1,0.3419,0.28353,0.80055,104,2.29324,-0.274,-0.13342,0.36692,5,2U1D,2.0,True,0.484,6,True,right,0.0,0.3495,0.716,0.3666,1.5155,2.0165,0.501,A
105,105,0.50034,1.2,1,0.3836,0.40027,0.86726,105,2.84361,0.39,0.1918,0.69214,5,3D1U,2.0,False,0.735,1,False,right,0.0,0.3873,1.0786,0.6913,1.945,2.4451,0.5001,A
106,106,0.50034,0.1,2,0.27519,0.45031,0.75051,106,2.76022,0.562,0.28353,0.78387,5,2D1U,2.0,True,0.276,5,True,right,0.0,1.5298,2.3132,0.7835,0.2805,0.7801,0.4996,V
107,107,0.50034,1.2,1,0.20014,0.37526,0.67546,107,2.53507,0.562,0.28353,0.78387,5,2D1U,2.0,False,1.26,5,True,right,0.0,0.2035,0.9865,0.7831,1.6618,2.1617,0.4999,V
108,108,0.50034,0.1,2,0.21682,0.24183,0.64211,108,2.01805,-0.174,-0.08339,0.41695,5,3U1D,1.0,True,0.469,2,True,left,0.0,1.3682,1.7858,0.4176,0.2277,0.7269,0.4992,V
109,109,0.50034,1.2,1,0.20014,0.28353,0.74218,109,2.10979,-0.238,-0.11675,0.3836,5,2U1D,2.0,True,0.526,6,False,right,0.0,0.2054,0.5884,0.3831,1.3303,1.8309,0.5005,A
110,110,0.50034,0.1,1,0.23349,0.28353,0.70048,110,2.435,0.426,0.21682,0.71716,5,3D1U,2.0,False,1.46,2,True,right,0.0,0.2439,0.9603,0.7163,1.6606,2.1603,0.4997,A
111,111,0.50034,0.1,2,0.44197,0.35858,0.58373,111,1.93465,-0.9,-0.45031,0.05003,5,lapse_rate,1.0,True,0.301,0,False,left,0.0,1.5318,1.5821,0.0503,0.4482,0.9488,0.5005,A
112,112,0.50034,1.2,2,0.21682,0.41695,0.42529,112,2.29324,0.462,0.23349,0.73384,5,3D1U,2.0,True,0.326,2,False,right,0.0,1.1471,1.8815,0.7344,0.2226,0.7227,0.5001,A
113,113,0.50034,0.1,2,0.31688,0.31688,0.75885,113,2.6935,0.598,0.30021,0.80055,5,2D1U,2.0,True,0.342,5,False,right,0.0,1.5826,2.3821,0.7996,0.323,0.8233,0.5003,V
114,114,0.50034,1.2,2,0.32522,0.37526,0.52536,114,1.77621,-0.9,-0.45031,0.05003,5,lapse_rate,1.0,True,1.177,0,False,left,0.0,1.3523,1.4027,0.0504,0.3273,0.8286,0.5013,V
115,115,0.50034,1.2,1,0.21682,0.25017,0.57539,115,1.92632,-0.238,-0.11675,0.3836,5,2U1D,2.0,True,0.785,6,False,right,0.0,0.2245,0.6083,0.3838,1.184,1.6843,0.5003,A
116,116,0.50034,0.1,1,0.25017,0.37526,0.73384,116,2.27656,-0.174,-0.08339,0.41695,5,3U1D,2.0,True,3.226,2,True,right,0.0,0.2529,0.67,0.4171,1.4037,1.9029,0.4992,V
117,117,0.50034,0.1,2,0.27519,0.43363,0.73384,117,1.99303,-0.9,-0.45031,0.05003,5,lapse_rate,1.0,True,0.268,0,False,left,0.0,1.5155,1.5663,0.0508,0.2819,0.7829,0.501,A
118,118,0.50034,1.2,2,0.39194,0.24183,0.8756,118,2.40998,-0.202,-0.10007,0.40027,5,2U1D,1.0,True,0.409,6,False,left,0.0,1.7778,2.178,0.4003,0.4023,0.9026,0.5003,V
119,119,0.50034,0.1,1,0.25851,0.43363,0.54204,119,2.46836,0.462,0.23349,0.73384,5,3D1U,2.0,False,0.359,2,False,right,0.0,0.2653,0.9986,0.7332,1.5401,2.0404,0.5002,V
120,120,0.50034,1.2,2,0.29187,0.45031,0.90062,120,2.57677,-0.138,-0.06671,0.43363,5,3U1D,1.0,True,0.276,2,False,left,0.0,1.6948,2.1284,0.4336,0.2946,0.7947,0.5001,V
121,121,0.50034,0.1,1,0.20014,0.40861,0.46699,121,2.37663,0.598,0.30021,0.80055,5,2D1U,1.0,True,0.26,5,False,left,0.0,0.2079,1.0074,0.7996,1.4742,1.9736,0.4994,V
122,122,0.50034,1.2,1,0.36692,0.30021,0.76719,122,2.36829,-0.138,-0.06671,0.43363,5,3U1D,1.0,False,0.492,2,False,left,0.0,0.3721,0.8053,0.4332,1.5718,2.0715,0.4997,V
123,123,0.50034,0.1,1,0.40027,0.25851,0.69214,123,2.80191,0.9,0.45031,0.95065,5,lapse_rate,2.0,False,0.418,0,False,right,0.0,0.4063,1.3564,0.95,2.0476,2.5477,0.5001,A
124,124,0.50034,0.1,1,0.35858,0.42529,0.45031,124,2.48503,0.498,0.25017,0.75051,5,3D1U,2.0,False,0.425,2,False,right,0.0,0.3693,1.1182,0.7489,1.5688,2.0689,0.5,V
125,125,0.50034,1.2,2,0.41695,0.40027,0.89228,125,2.99371,0.562,0.28353,0.78387,5,2D1U,2.0,True,0.301,6,True,right,0.0,1.8124,2.5954,0.783,0.4205,0.9207,0.5003,V
126,126,0.50034,0.1,1,0.42529,0.31688,0.45031,126,2.09309,-0.202,-0.10007,0.40027,5,2U1D,1.0,False,0.734,6,False,left,0.0,0.4283,0.8285,0.4002,1.2792,1.7798,0.5007,A
127,127,0.50034,0.1,1,0.40861,0.26685,0.65045,127,2.7769,0.9,0.45031,0.95065,5,lapse_rate,1.0,True,0.31,0,False,left,0.0,0.4143,1.3638,0.9496,2.014,2.5139,0.4999,A
128,128,0.50034,1.2,2,0.40027,0.3419,0.45031,128,2.10977,-0.174,-0.08339,0.41695,5,3U1D,2.0,False,0.367,3,True,right,0.0,1.3599,1.7771,0.4172,0.4109,0.91,0.4991,A
129,129,0.50034,0.1,1,0.44197,0.27519,0.59207,129,2.19317,-0.238,-0.11675,0.3836,5,2U1D,2.0,True,0.309,7,True,right,0.0,0.4451,0.8282,0.3831,1.4204,1.9201,0.4997,V
130,130,0.50034,1.2,1,0.3419,0.31688,0.46699,130,2.3933,0.534,0.26685,0.76719,5,3D1U,1.0,True,0.327,2,False,left,0.0,0.3505,1.1182,0.7677,1.5859,2.0835,0.4976,V
131,131,0.50034,0.1,1,0.22515,0.36692,0.74218,131,2.61846,0.562,0.28353,0.78387,5,2D1U,1.0,True,0.301,6,True,left,0.0,0.2329,1.016,0.7831,1.7593,2.2581,0.4988,A
132,132,0.50034,1.2,1,0.35024,0.32522,0.47533,132,2.03473,-0.238,-0.11675,0.3836,5,2U1D,2.0,True,0.361,7,True,right,0.0,0.3598,0.7426,0.3828,1.2176,1.7188,0.5012,A
133,133,0.50034,0.1,1,0.28353,0.40861,0.66712,133,2.61845,0.526,0.26685,0.75885,5,2D1U,1.0,True,0.284,6,False,left,0.0,0.2882,1.0465,0.7583,1.7135,2.213,0.4995,V
134,134,0.50034,1.2,2,0.25851,0.30021,0.75051,134,2.76022,0.9,0.45031,0.95065,5,lapse_rate,2.0,True,0.259,0,False,right,0.0,1.5188,2.4683,0.9494,0.269,0.7688,0.4998,V
135,135,0.50034,1.2,2,0.3836,0.32522,0.85058,135,2.45168,-0.21,-0.10841,0.39194,5,3U1D,1.0,True,0.55,3,False,left,0.0,1.7409,2.1327,0.3918,0.3907,0.8906,0.4999,A
136,136,0.50034,0.1,2,0.35024,0.27519,0.85892,136,2.75188,0.534,0.26685,0.76719,5,3D1U,2.0,True,0.267,2,False,right,0.0,1.7133,2.4804,0.7671,0.3543,0.8547,0.5004,A
137,137,0.50034,1.2,2,0.31688,0.31688,0.74218,137,2.63513,0.526,0.26685,0.75885,5,2D1U,2.0,True,0.309,6,False,right,0.0,1.5648,2.3222,0.7574,0.3219,0.8227,0.5008,V
138,138,0.50034,1.2,1,0.29187,0.24183,0.82557,138,2.81026,0.9,0.45031,0.95065,5,lapse_rate,1.0,True,0.602,0,False,left,0.0,0.2953,1.2465,0.9513,2.0708,2.5716,0.5008,A
139,139,0.50034,0.1,1,0.40027,0.43363,0.74218,139,2.84361,0.534,0.26685,0.76719,5,3D1U,1.0,True,0.927,2,False,left,0.0,0.4053,1.1709,0.7656,1.9126,2.4139,0.5012,V
140,140,0.50034,1.2,1,0.26685,0.30854,0.47533,140,1.95133,-0.202,-0.10007,0.40027,5,2U1D,2.0,True,1.319,8,True,right,0.0,0.2767,0.6778,0.4011,1.1512,1.6513,0.5,A
141,141,0.50034,0.1,1,0.33356,0.26685,0.45031,141,1.943,-0.21,-0.10841,0.39194,5,3U1D,2.0,True,2.577,3,False,right,0.0,0.3388,0.7301,0.3913,1.1793,1.6799,0.5006,A
142,142,0.50034,1.2,2,0.43363,0.22515,0.70048,142,2.61011,0.498,0.25017,0.75051,5,3D1U,2.0,True,0.343,3,True,right,0.0,1.6446,2.3945,0.7499,0.4446,0.9444,0.4998,A
143,143,0.50034,0.1,1,0.28353,0.20014,0.5337,143,1.90965,-0.21,-0.10841,0.39194,5,3U1D,2.0,True,1.659,3,False,right,0.0,0.2869,0.6792,0.3923,1.2131,1.7129,0.4998,V
144,144,0.50034,1.2,2,0.25017,0.44197,0.73384,144,2.34327,-0.174,-0.08339,0.41695,5,3U1D,1.0,True,0.327,4,True,left,0.0,1.4887,1.9057,0.417,0.2548,0.7554,0.5006,A
145,145,0.50034,0.1,2,0.30021,0.24183,0.80055,145,2.58511,0.49,0.24183,0.74218,5,2D1U,2.0,True,0.335,6,False,right,0.0,1.6063,2.3491,0.7429,0.3063,0.8071,0.5008,A
146,146,0.50034,1.2,2,0.23349,0.43363,0.84224,146,2.40997,-0.202,-0.10007,0.40027,5,2U1D,2.0,False,0.884,8,True,right,0.0,1.5855,1.9841,0.3985,0.2434,0.743,0.4995,V
147,147,0.50034,0.1,1,0.32522,0.23349,0.6838,147,2.48503,0.49,0.24183,0.74218,5,2D1U,1.0,True,0.326,6,False,left,0.0,0.3355,1.0765,0.741,1.7592,2.2602,0.501,V
148,148,0.50034,1.2,1,0.43363,0.31688,0.81723,148,2.81859,0.498,0.25017,0.75051,5,3D1U,1.0,True,0.477,3,True,left,0.0,0.4393,1.1895,0.7502,2.0068,2.5063,0.4995,A
149,149,0.50034,0.1,1,0.31688,0.29187,0.80055,149,2.32659,-0.174,-0.08339,0.41695,5,3U1D,2.0,True,0.843,4,True,right,0.0,0.3271,0.7436,0.4165,1.5439,2.0434,0.4995,V
150,150,0.50034,1.2,1,0.39194,0.35858,0.46699,150,2.1348,-0.174,-0.08339,0.41695,5,3U1D,2.0,True,3.318,4,True,right,0.0,0.4013,0.8176,0.4163,1.2846,1.7851,0.5005,V
151,151,0.50034,0.1,2,0.45031,0.29187,0.74218,151,2.3683,-0.238,-0.11675,0.3836,5,2U1D,1.0,True,0.351,9,True,left,0.0,1.6965,2.0809,0.3844,0.4542,0.9551,0.5009,V
152,152,0.50034,1.2,1,0.43363,0.24183,0.55872,152,2.46002,0.454,0.22515,0.7255,5,2D1U,1.0,True,0.426,6,False,left,0.0,0.4444,1.169,0.7246,1.7271,2.2273,0.5002,A
153,153,0.50034,0.1,1,0.36692,0.36692,0.60875,153,2.27656,-0.138,-0.06671,0.43363,5,3U1D,2.0,True,0.375,4,False,right,0.0,0.3771,0.8102,0.4331,1.4191,1.9184,0.4993,A
154,154,0.50034,1.2,2,0.23349,0.26685,0.58373,154,2.01804,-0.138,-0.06671,0.43363,5,3U1D,1.0,True,0.325,4,False,left,0.0,1.3273,1.7603,0.433,0.2433,0.7435,0.5002,A
155,155,0.50034,0.1,1,0.26685,0.30854,0.67546,155,2.13479,-0.238,-0.11675,0.3836,5,2U1D,1.0,False,0.351,9,True,left,0.0,0.2761,0.6598,0.3837,1.334,1.8341,0.5001,V
156,156,0.50034,1.2,2,0.21682,0.37526,0.86726,156,2.71019,0.498,0.25017,0.75051,5,3D1U,2.0,True,0.276,3,True,right,0.0,1.5883,2.3389,0.7505,0.221,0.7214,0.5005,A
157,157,0.50034,0.1,2,0.37526,0.20014,0.61709,157,2.42667,0.462,0.23349,0.73384,5,3D1U,2.0,True,0.218,3,False,right,0.0,1.4995,2.2321,0.7326,0.383,0.8821,0.4991,V
158,158,0.50034,1.2,2,0.35024,0.22515,0.46699,158,2.27656,0.462,0.23349,0.73384,5,3D1U,2.0,True,0.351,3,False,right,0.0,1.3204,2.0541,0.7337,0.3537,0.8535,0.4998,V
159,159,0.50034,0.1,1,0.3419,0.31688,0.90062,159,2.49337,-0.138,-0.06671,0.43363,5,3U1D,1.0,False,0.293,4,False,left,0.0,0.3459,0.7793,0.4335,1.6786,2.1786,0.5001,A
160,160,0.50034,1.2,1,0.22515,0.37526,0.78387,160,2.61012,0.454,0.22515,0.7255,5,2D1U,2.0,False,0.476,6,False,right,0.0,0.2307,0.9548,0.7241,1.7395,2.2406,0.5011,V
161,161,0.50034,0.1,1,0.27519,0.32522,0.70882,161,2.17649,-0.274,-0.13342,0.36692,5,2U1D,2.0,True,0.26,9,False,right,0.0,0.2819,0.6476,0.3658,1.3567,1.8568,0.5001,V
162,162,0.50034,1.2,1,0.40027,0.45031,0.85892,162,2.57676,-0.274,-0.13342,0.36692,5,2U1D,2.0,True,0.359,9,False,right,0.0,0.405,0.7701,0.3651,1.6286,2.1284,0.4998,V
163,163,0.50034,0.1,1,0.30854,0.22515,0.57539,163,2.34326,0.462,0.23349,0.73384,5,3D1U,2.0,False,0.336,3,False,right,0.0,0.3152,1.0482,0.733,1.6236,2.1241,0.5005,V
164,164,0.50034,1.2,2,0.40027,0.33356,0.43363,164,2.40998,0.49,0.24183,0.74218,5,2D1U,2.0,True,0.251,7,True,right,0.0,1.3415,2.0836,0.7421,0.4099,0.909,0.4991,A
165,165,0.50034,0.1,2,0.36692,0.32522,0.55038,165,2.15981,-0.174,-0.08339,0.41695,5,3U1D,1.0,True,0.326,5,True,left,0.0,1.4215,1.8383,0.4168,0.372,0.8709,0.4989,V
166,166,0.50034,1.2,2,0.32522,0.3836,0.55872,166,2.18483,-0.174,-0.08339,0.41695,5,3U1D,2.0,False,0.325,5,True,right,0.0,1.3874,1.8041,0.4166,0.3301,0.8294,0.4993,A
167,167,0.50034,0.1,1,0.30854,0.25851,0.8756,167,2.68517,0.49,0.24183,0.74218,5,2D1U,1.0,True,0.35,7,True,left,0.0,0.3142,1.0557,0.7414,1.9301,2.4305,0.5004,V
168,168,0.50034,1.2,2,0.44197,0.26685,0.85058,168,2.81025,0.498,0.25017,0.75051,5,3D1U,2.0,True,0.343,4,True,right,0.0,1.7965,2.5461,0.7496,0.4463,0.9482,0.5019,A
169,169,0.50034,0.1,2,0.27519,0.35858,0.41695,169,1.93466,-0.238,-0.11675,0.3836,5,2U1D,1.0,True,0.268,10,True,left,0.0,1.2026,1.5849,0.3823,0.2849,0.785,0.5002,V
170,170,0.50034,1.2,2,0.3836,0.31688,0.86726,170,2.45168,-0.238,-0.11675,0.3836,5,2U1D,2.0,False,0.384,10,True,right,0.0,1.7612,2.1436,0.3824,0.3945,0.895,0.5005,A
171,171,0.50034,0.1,2,0.43363,0.26685,0.44197,171,2.03473,-0.21,-0.10841,0.39194,5,3U1D,2.0,False,1.976,5,False,right,0.0,1.3843,1.7761,0.3919,0.4431,0.9432,0.5001,A
172,172,0.50034,1.2,1,0.27519,0.30021,0.83391,172,2.63515,0.454,0.22515,0.7255,5,2D1U,1.0,True,0.392,8,True,left,0.0,0.2854,1.0098,0.7244,1.8429,2.3433,0.5004,A
173,173,0.50034,0.1,1,0.24183,0.39194,0.77553,173,2.2849,-0.246,-0.12509,0.37526,5,3U1D,1.0,False,0.367,5,False,left,0.0,0.2512,0.6253,0.3741,1.4009,1.9006,0.4997,A
174,174,0.50034,1.2,1,0.23349,0.44197,0.77553,174,2.30991,-0.282,-0.14176,0.35858,5,3U1D,2.0,True,0.267,5,False,right,0.0,0.2399,0.5981,0.3582,1.374,1.8739,0.5,A
175,175,0.50034,0.1,1,0.24183,0.44197,0.41695,175,2.3516,0.498,0.25017,0.75051,5,3D1U,2.0,False,0.326,4,True,right,0.0,0.2495,0.9993,0.7497,1.4154,1.9158,0.5004,V
176,176,0.50034,1.2,2,0.26685,0.41695,0.65878,176,2.20984,-0.274,-0.13342,0.36692,5,2U1D,2.0,False,0.493,11,True,right,0.0,1.4322,1.7986,0.3664,0.2744,0.7743,0.4999,A
177,177,0.50034,0.1,2,0.37526,0.37526,0.70882,177,2.72687,0.534,0.26685,0.76719,5,3D1U,2.0,True,0.226,4,False,right,0.0,1.594,2.3594,0.7654,0.386,0.8858,0.4999,V
178,178,0.50034,1.2,2,0.36692,0.32522,0.67546,178,2.22652,-0.282,-0.14176,0.35858,5,3U1D,2.0,False,0.742,5,False,right,0.0,1.5464,1.9048,0.3584,0.3722,0.871,0.4987,V
179,179,0.50034,0.1,1,0.3419,0.32522,0.66712,179,2.17648,-0.31,-0.15844,0.3419,5,2U1D,2.0,True,0.219,11,False,right,0.0,0.3488,0.6899,0.3411,1.3572,1.8567,0.4995,V
180,180,0.50034,1.2,2,0.21682,0.32522,0.70048,180,2.08476,-0.31,-0.15844,0.3419,5,2U1D,2.0,False,1.276,11,False,right,0.0,1.4256,1.7696,0.3439,0.227,0.727,0.4999,V
181,181,0.50034,0.1,1,0.45031,0.28353,0.67546,181,2.63514,0.454,0.22515,0.7255,5,2D1U,2.0,False,1.668,8,True,right,0.0,0.4577,1.181,0.7234,1.8568,2.356,0.4991,V
182,182,0.50034,1.2,2,0.32522,0.27519,0.60041,182,2.44334,0.49,0.24183,0.74218,5,2D1U,2.0,True,0.26,9,True,right,0.0,1.4297,2.1723,0.7426,0.3315,0.83,0.4984,A
183,183,0.50034,0.1,1,0.39194,0.40861,0.75051,183,2.81859,0.534,0.26685,0.76719,5,3D1U,2.0,False,1.517,4,False,right,0.0,0.3991,1.1651,0.766,1.9155,2.4157,0.5001,A
184,184,0.50034,1.2,1,0.41695,0.26685,0.65045,184,2.17649,-0.318,-0.15844,0.3419,5,3U1D,1.0,False,0.46,5,False,left,0.0,0.4218,0.7637,0.3419,1.4141,1.9132,0.4991,A
185,185,0.50034,0.1,2,0.28353,0.35858,0.88394,185,2.35161,-0.346,-0.17512,0.32522,5,2U1D,1.0,True,0.243,11,False,left,0.0,1.6697,1.9949,0.3252,0.2864,0.7868,0.5003,A
186,186,0.50034,1.2,1,0.25851,0.42529,0.5337,186,2.46002,0.49,0.24183,0.74218,5,2D1U,1.0,True,0.368,9,True,left,0.0,0.2654,1.0074,0.742,1.5403,2.0409,0.5007,A
187,187,0.50034,0.1,1,0.43363,0.33356,0.75051,187,2.34326,-0.354,-0.17512,0.32522,5,3U1D,2.0,True,0.117,5,False,right,0.0,0.4364,0.7611,0.3248,1.5113,2.011,0.4997,A
188,188,0.50034,1.2,1,0.3836,0.40861,0.55038,188,2.16815,-0.346,-0.17512,0.32522,5,2U1D,2.0,True,0.326,11,False,right,0.0,0.3882,0.7124,0.3242,1.2629,1.7635,0.5006,A
189,189,0.50034,0.1,2,0.40861,0.44197,0.65045,189,2.78524,0.57,0.28353,0.78387,5,3D1U,2.0,True,0.117,4,False,right,0.0,1.564,2.348,0.784,0.4151,0.9144,0.4993,V
190,190,0.50034,1.2,2,0.27519,0.27519,0.56706,190,2.40165,0.57,0.28353,0.78387,5,3D1U,2.0,True,0.276,4,False,right,0.0,1.3511,2.1355,0.7844,0.2857,0.7857,0.5,A
191,191,0.50034,0.1,2,0.32522,0.20848,0.55038,191,2.30992,0.454,0.22515,0.7255,5,2D1U,2.0,True,1.451,10,True,right,0.0,1.3822,2.1078,0.7256,0.3331,0.8331,0.5,V
192,192,0.50034,1.2,2,0.20014,0.30021,0.64211,192,2.42667,0.57,0.28353,0.78387,5,3D1U,2.0,True,0.367,4,False,right,0.0,1.3491,2.1325,0.7834,0.2076,0.7067,0.4991,V
193,193,0.50034,0.1,2,0.29187,0.33356,0.45031,193,2.34327,0.534,0.26685,0.76719,5,3D1U,2.0,True,0.159,5,True,right,0.0,1.2459,2.0129,0.7669,0.2973,0.796,0.4987,A
194,194,0.50034,1.2,2,0.3419,0.3836,0.50868,194,2.46002,0.454,0.22515,0.7255,5,2D1U,2.0,True,0.234,10,True,right,0.0,1.3583,2.0831,0.7248,0.3503,0.85,0.4997,A
195,195,0.50034,0.1,1,0.28353,0.24183,0.40027,195,1.75119,-0.354,-0.17512,0.32522,5,3U1D,2.0,True,0.233,5,False,right,0.0,0.2885,0.6136,0.3251,1.0136,1.5138,0.5002,V
196,196,0.50034,1.2,2,0.24183,0.3836,0.57539,196,2.04306,-0.31,-0.15844,0.3419,5,2U1D,2.0,False,0.385,12,True,right,0.0,1.3268,1.6685,0.3417,0.2519,0.7524,0.5006,A
197,197,0.50034,0.1,1,0.37526,0.43363,0.74218,197,2.37663,-0.346,-0.17512,0.32522,5,2U1D,1.0,False,0.35,13,True,left,0.0,0.3786,0.7046,0.326,1.4448,1.9466,0.5018,A
198,198,0.50034,1.2,1,0.24183,0.25851,0.71716,198,2.02638,-0.382,-0.1918,0.30854,5,2U1D,2.0,True,0.268,13,False,right,0.0,0.2479,0.5555,0.3076,1.2724,1.7725,0.5001,A
199,199,0.50034,0.1,2,0.39194,0.26685,0.57539,199,2.44334,0.418,0.20848,0.70882,5,2D1U,2.0,True,0.108,10,False,right,0.0,1.4739,2.1824,0.7085,0.4001,0.8987,0.4986,V
200,200,0.50034,1.2,2,0.30021,0.3836,0.65878,200,2.61012,0.534,0.26685,0.76719,5,3D1U,2.0,True,0.342,5,True,right,0.0,1.4643,2.2313,0.7669,0.3063,0.8066,0.5003,A
201,201,0.50034,0.1,2,0.40027,0.26685,0.41695,201,1.90963,-0.354,-0.17512,0.32522,5,3U1D,1.0,True,0.285,5,False,left,0.0,1.3233,1.6477,0.3243,0.406,0.9059,0.4998,A
202,202,0.50034,1.2,2,0.43363,0.26685,0.84224,202,2.38496,-0.318,-0.15844,0.3419,5,3U1D,1.0,True,0.45,6,True,left,0.0,1.785,2.1267,0.3417,0.4434,0.9437,0.5003,A
203,203,0.50034,0.1,1,0.3419,0.40027,0.55038,203,2.56008,0.534,0.26685,0.76719,5,3D1U,2.0,False,1.259,5,True,right,0.0,0.3485,1.1156,0.767,1.6648,2.1648,0.5001,A
204,204,0.50034,1.2,1,0.36692,0.29187,0.69214,204,2.56009,0.418,0.20848,0.70882,5,2D1U,1.0,True,0.268,10,False,left,0.0,0.373,1.0815,0.7085,1.7738,2.2723,0.4985,V
205,205,0.50034,0.1,1,0.21682,0.25017,0.45865,205,1.73452,-0.382,-0.1918,0.30854,5,2U1D,2.0,True,0.31,13,False,right,0.0,0.2271,0.5352,0.3081,0.9949,1.4947,0.4998,V
206,206,0.50034,1.2,2,0.43363,0.31688,0.74218,206,2.33493,-0.318,-0.15844,0.3419,5,3U1D,1.0,True,0.242,6,True,left,0.0,1.6852,2.0271,0.3419,0.4434,0.9432,0.4998,V
207,207,0.50034,0.1,1,0.29187,0.24183,0.85892,207,2.67683,0.57,0.28353,0.78387,5,3D1U,1.0,True,1.135,6,True,left,0.0,0.3011,1.0856,0.7845,1.9435,2.4427,0.4992,A
208,208,0.50034,1.2,1,0.29187,0.28353,0.85058,208,2.26822,-0.318,-0.15844,0.3419,5,3U1D,2.0,True,2.543,6,True,right,0.0,0.2949,0.6368,0.342,1.4881,1.9861,0.498,V
209,209,0.50034,0.1,2,0.30854,0.25851,0.45865,209,1.85126,-0.346,-0.17512,0.32522,5,2U1D,1.0,True,0.225,14,True,left,0.0,1.2783,1.6016,0.3233,0.319,0.8191,0.5001,A
210,210,0.50034,1.2,2,0.25851,0.41695,0.60875,210,2.10977,-0.346,-0.17512,0.32522,5,2U1D,1.0,True,0.275,14,True,left,0.0,1.3702,1.6951,0.3249,0.2612,0.7628,0.5016,V
211,211,0.50034,0.1,2,0.29187,0.40861,0.70882,211,2.60178,0.382,0.1918,0.69214,5,2D1U,2.0,True,0.501,10,False,right,0.0,1.5094,2.2011,0.6916,0.3007,0.8009,0.5002,A
212,212,0.50034,1.2,2,0.22515,0.36692,0.44197,212,1.87628,-0.31,-0.15844,0.3419,5,2U1D,1.0,True,0.234,14,False,left,0.0,1.1767,1.5192,0.3425,0.2348,0.7343,0.4995,V
213,213,0.50034,0.1,1,0.3419,0.25851,0.78387,213,2.66849,0.57,0.28353,0.78387,5,3D1U,2.0,False,0.484,6,True,right,0.0,0.3471,1.1303,0.7832,1.9137,2.4137,0.5,V
214,214,0.50034,1.2,1,0.36692,0.30021,0.57539,214,2.10144,-0.282,-0.14176,0.35858,5,3U1D,2.0,True,0.327,6,False,right,0.0,0.3753,0.733,0.3577,1.3075,1.8075,0.5,A
215,215,0.50034,0.1,2,0.22515,0.36692,0.46699,215,1.91798,-0.282,-0.14176,0.35858,5,3U1D,1.0,True,0.259,6,False,left,0.0,1.198,1.5555,0.3576,0.2309,0.7312,0.5004,A
216,216,0.50034,1.2,1,0.35858,0.26685,0.89228,216,2.71019,0.382,0.1918,0.69214,5,2D1U,2.0,False,0.334,10,False,right,0.0,0.3626,1.0539,0.6913,1.9452,2.4467,0.5014,A
217,217,0.50034,0.1,2,0.26685,0.40861,0.88394,217,2.76856,0.418,0.20848,0.70882,5,2D1U,2.0,True,0.367,11,True,right,0.0,1.6544,2.3629,0.7084,0.2712,0.7714,0.5002,V
218,218,0.50034,1.2,1,0.33356,0.30854,0.5337,218,2.03472,-0.282,-0.14176,0.35858,5,3U1D,1.0,False,0.701,6,False,left,0.0,0.3385,0.6965,0.3581,1.2301,1.73,0.4999,A
219,219,0.50034,0.1,1,0.31688,0.25017,0.67546,219,2.08475,-0.31,-0.15844,0.3419,5,2U1D,1.0,False,0.293,14,False,left,0.0,0.3237,0.6655,0.3418,1.3412,1.8409,0.4996,V
220,220,0.50034,1.2,1,0.23349,0.37526,0.80889,220,2.71853,0.606,0.30021,0.80055,5,3D1U,2.0,False,0.459,6,False,right,0.0,0.2427,1.0427,0.8,1.85,2.3509,0.5009,A
221,221,0.50034,0.1,2,0.27519,0.39194,0.88394,221,2.86864,0.642,0.31688,0.81723,5,3D1U,2.0,True,0.359,6,False,right,0.0,1.6644,2.4804,0.816,0.2806,0.7798,0.4992,A
222,222,0.50034,1.2,2,0.28353,0.25017,0.60875,222,1.96801,-0.346,-0.17512,0.32522,5,2U1D,1.0,True,0.326,15,True,left,0.0,1.4015,1.7273,0.3259,0.2929,0.7926,0.4997,A
223,223,0.50034,0.1,2,0.3419,0.25851,0.67546,223,2.48503,0.418,0.20848,0.70882,5,2D1U,2.0,True,0.343,11,True,right,0.0,1.5258,2.2336,0.7079,0.3507,0.8505,0.4998,V
224,224,0.50034,1.2,2,0.36692,0.26685,0.59207,224,2.06808,-0.318,-0.15844,0.3419,5,3U1D,2.0,False,1.759,7,True,right,0.0,1.4641,1.8056,0.3415,0.3725,0.8717,0.4992,V
225,225,0.50034,0.1,2,0.37526,0.23349,0.86726,225,2.79358,0.642,0.31688,0.81723,5,3D1U,2.0,True,0.459,6,False,right,0.0,1.7532,2.5689,0.8157,0.3852,0.8851,0.4999,A
226,226,0.50034,1.2,1,0.28353,0.25851,0.70048,226,2.06808,-0.346,-0.17512,0.32522,5,2U1D,2.0,True,0.26,15,True,right,0.0,0.2903,0.6152,0.3249,1.3154,1.8151,0.4997,V
227,227,0.50034,0.1,2,0.27519,0.42529,0.60875,227,2.50171,0.382,0.1918,0.69214,5,2D1U,2.0,True,0.251,12,True,right,0.0,1.3909,2.0821,0.6912,0.283,0.7831,0.5001,A
228,228,0.50034,1.2,1,0.31688,0.29187,0.70882,228,2.51005,0.382,0.1918,0.69214,5,2D1U,1.0,True,0.3,12,True,left,0.0,0.3208,1.0124,0.6916,1.7208,2.2206,0.4998,V
229,229,0.50034,0.1,1,0.20014,0.25851,0.64211,229,2.41833,0.642,0.31688,0.81723,5,3D1U,1.0,True,0.341,6,False,left,0.0,0.2107,1.0284,0.8177,1.67,2.1692,0.4992,V
230,230,0.50034,1.2,1,0.28353,0.26685,0.86726,230,2.2432,-0.354,-0.17512,0.32522,5,3U1D,2.0,True,0.326,7,False,right,0.0,0.2925,0.6173,0.3249,1.4837,1.9839,0.5002,A
231,231,0.50034,0.1,2,0.33356,0.30854,0.65878,231,2.14312,-0.31,-0.15844,0.3419,5,2U1D,1.0,True,0.251,16,True,left,0.0,1.4948,1.836,0.3412,0.337,0.8361,0.4991,V
232,232,0.50034,1.2,1,0.35024,0.21682,0.52536,232,2.26822,0.346,0.17512,0.67546,5,2D1U,1.0,True,0.457,12,False,left,0.0,0.3561,1.0306,0.6745,1.5563,2.0558,0.4995,A
233,233,0.50034,0.1,2,0.40027,0.29187,0.82557,233,2.8186,0.606,0.30021,0.80055,5,3D1U,2.0,True,0.268,7,True,right,0.0,1.7297,2.5309,0.8012,0.4049,0.9049,0.5,V
234,234,0.50034,1.2,1,0.39194,0.28353,0.6838,234,2.20151,-0.31,-0.15844,0.3419,5,2U1D,2.0,True,0.318,16,True,right,0.0,0.3966,0.7387,0.3421,1.4223,1.922,0.4997,V
235,235,0.50034,0.1,2,0.33356,0.44197,0.80889,235,2.40998,-0.354,-0.17512,0.32522,5,3U1D,1.0,True,0.285,7,False,left,0.0,1.6447,1.9698,0.3251,0.3362,0.8369,0.5008,V
236,236,0.50034,1.2,1,0.3836,0.30854,0.6838,236,2.2015,-0.354,-0.17512,0.32522,5,3U1D,2.0,True,0.309,7,False,right,0.0,0.3912,0.7161,0.3249,1.3989,1.8993,0.5004,V
237,237,0.50034,0.1,2,0.22515,0.33356,0.73384,237,2.59344,0.606,0.30021,0.80055,5,3D1U,2.0,True,0.276,7,True,right,0.0,1.4689,2.2678,0.7989,0.2346,0.7356,0.501,V
238,238,0.50034,1.2,2,0.24183,0.25851,0.59207,238,1.93465,-0.318,-0.15844,0.3419,5,3U1D,1.0,True,0.392,8,True,left,0.0,1.3423,1.6843,0.342,0.25,0.751,0.501,V
239,239,0.50034,0.1,2,0.26685,0.24183,0.84224,239,2.21818,-0.274,-0.13342,0.36692,5,2U1D,2.0,False,0.425,16,False,right,0.0,1.6194,1.9863,0.367,0.2779,0.778,0.5001,V
240,240,0.50034,1.2,2,0.36692,0.36692,0.79221,240,2.70185,0.346,0.17512,0.67546,5,2D1U,2.0,True,0.342,12,False,right,0.0,1.6631,2.3375,0.6744,0.3712,0.8708,0.4995,A
241,241,0.50034,0.1,2,0.41695,0.30854,0.5337,241,2.56008,0.606,0.30021,0.80055,5,3D1U,2.0,True,0.301,7,True,right,0.0,1.458,2.2581,0.8001,0.4245,0.9248,0.5003,A
242,242,0.50034,1.2,1,0.43363,0.29187,0.57539,242,2.46001,0.31,0.15844,0.65878,5,2D1U,2.0,False,0.601,12,False,right,0.0,0.4375,1.096,0.6585,1.6711,2.1709,0.4999,A
243,243,0.50034,0.1,1,0.35858,0.33356,0.7255,243,2.25988,-0.31,-0.15844,0.3419,5,2U1D,1.0,False,0.492,17,True,left,0.0,0.3681,0.7103,0.3422,1.4352,1.9343,0.4991,V
244,244,0.50034,1.2,1,0.27519,0.29187,0.47533,244,1.86795,-0.346,-0.17512,0.32522,5,2U1D,2.0,True,0.493,17,False,right,0.0,0.2847,0.6098,0.3251,1.0844,1.5842,0.4998,A
245,245,0.50034,0.1,1,0.31688,0.21682,0.77553,245,2.59344,0.57,0.28353,0.78387,5,3D1U,1.0,True,0.442,7,False,left,0.0,0.3232,1.1078,0.7846,1.8816,2.382,0.5005,A
246,246,0.50034,1.2,2,0.23349,0.33356,0.73384,246,2.14313,-0.318,-0.15844,0.3419,5,3U1D,1.0,True,0.351,8,True,left,0.0,1.474,1.8151,0.3411,0.2403,0.7403,0.5,A
247,247,0.50034,0.1,2,0.22515,0.26685,0.50034,247,1.8179,-0.346,-0.17512,0.32522,5,2U1D,1.0,True,0.285,17,False,left,0.0,1.2341,1.56,0.3259,0.2341,0.7331,0.499,A
248,248,0.50034,1.2,2,0.29187,0.26685,0.59207,248,1.99303,-0.318,-0.15844,0.3419,5,3U1D,1.0,True,0.451,8,True,left,0.0,1.3864,1.7282,0.3418,0.2944,0.7948,0.5004,A
249,249,0.50034,0.1,2,0.25017,0.26685,0.79221,249,2.16815,-0.282,-0.14176,0.35858,5,3U1D,1.0,True,0.344,8,False,left,0.0,1.5501,1.9092,0.3591,0.2587,0.7586,0.4999,A
250,250,0.50034,1.2,2,0.20014,0.20848,0.43363,250,2.01805,0.346,0.17512,0.67546,5,2D1U,2.0,True,0.276,13,True,right,0.0,1.1429,1.8192,0.6763,0.2096,0.7097,0.5001,V
251,251,0.50034,0.1,2,0.39194,0.24183,0.65878,251,2.57676,0.57,0.28353,0.78387,5,3D1U,2.0,True,0.309,7,False,right,0.0,1.5551,2.3387,0.7836,0.3974,0.8974,0.4999,V
252,252,0.50034,1.2,2,0.3836,0.27519,0.54204,252,2.48504,0.57,0.28353,0.78387,5,3D1U,2.0,True,0.301,7,False,right,0.0,1.429,2.2127,0.7837,0.3872,0.8874,0.5002,A
253,253,0.50034,0.1,2,0.36692,0.20014,0.78387,253,2.52673,0.346,0.17512,0.67546,5,2D1U,1.0,False,0.326,13,True,left,0.0,1.6571,2.3334,0.6763,0.3727,0.8732,0.5005,V
254,254,0.50034,1.2,1,0.3836,0.32522,0.81723,254,2.38497,-0.282,-0.14176,0.35858,5,3U1D,2.0,True,0.309,8,False,right,0.0,0.3935,0.7519,0.3584,1.5691,2.0694,0.5003,A
255,255,0.50034,0.1,1,0.33356,0.35024,0.57539,255,2.10143,-0.31,-0.15844,0.3419,5,2U1D,2.0,True,0.392,18,True,right,0.0,0.3414,0.6829,0.3415,1.2578,1.7587,0.5009,V
256,256,0.50034,1.2,1,0.43363,0.42529,0.60875,256,2.30991,-0.31,-0.15844,0.3419,5,2U1D,2.0,True,0.31,18,True,right,0.0,0.4436,0.7848,0.3411,1.3929,1.8946,0.5017,V
257,257,0.50034,0.1,2,0.35858,0.24183,0.5337,257,2.00137,-0.274,-0.13342,0.36692,5,2U1D,2.0,False,0.411,18,False,right,0.0,1.403,1.77,0.3671,0.3696,0.8702,0.5006,V
258,258,0.50034,1.2,2,0.28353,0.35858,0.76719,258,2.25154,-0.31,-0.15844,0.3419,5,2U1D,2.0,False,0.317,19,True,right,0.0,1.5613,1.9031,0.3418,0.295,0.7947,0.4997,V
259,259,0.50034,0.1,1,0.23349,0.30854,0.57539,259,1.97634,-0.282,-0.14176,0.35858,5,3U1D,2.0,True,0.534,8,False,right,0.0,0.2418,0.5996,0.3578,1.1745,1.6748,0.5003,A
260,260,0.50034,1.2,2,0.29187,0.40861,0.80889,260,2.7769,0.534,0.26685,0.76719,5,3D1U,2.0,True,0.225,7,False,right,0.0,1.6044,2.3708,0.7664,0.2958,0.7956,0.4997,V
261,261,0.50034,0.1,1,0.40027,0.22515,0.84224,261,2.66014,0.382,0.1918,0.69214,5,2D1U,1.0,True,0.244,13,False,left,0.0,0.4105,1.1003,0.6898,1.9423,2.4428,0.5005,V
262,262,0.50034,1.2,2,0.3836,0.36692,0.5337,262,2.10978,-0.346,-0.17512,0.32522,5,2U1D,1.0,True,0.226,19,False,left,0.0,1.4222,1.7491,0.327,0.389,0.8907,0.5017,V
263,263,0.50034,0.1,2,0.24183,0.27519,0.62543,263,2.33493,0.382,0.1918,0.69214,5,2D1U,2.0,True,0.277,13,False,right,0.0,1.374,2.066,0.692,0.2511,0.7496,0.4985,A
264,264,0.50034,1.2,2,0.3419,0.35024,0.75885,264,2.71852,0.534,0.26685,0.76719,5,3D1U,2.0,True,0.284,7,False,right,0.0,1.6059,2.374,0.7681,0.3487,0.8483,0.4995,A
265,265,0.50034,0.1,1,0.44197,0.23349,0.74218,265,2.29324,-0.246,-0.12509,0.37526,5,3U1D,2.0,True,0.268,8,False,right,0.0,0.4515,0.8259,0.3745,1.5689,2.0672,0.4983,A
266,266,0.50034,1.2,2,0.32522,0.28353,0.45865,266,1.89296,-0.346,-0.17512,0.32522,5,2U1D,1.0,True,0.377,19,False,left,0.0,1.2887,1.6141,0.3253,0.3304,0.8299,0.4995,V
267,267,0.50034,0.1,2,0.28353,0.30021,0.44197,267,1.90131,-0.246,-0.12509,0.37526,5,3U1D,1.0,True,0.375,8,False,left,0.0,1.2348,1.6101,0.3753,0.2931,0.794,0.5009,V
268,268,0.50034,1.2,1,0.43363,0.32522,0.64211,268,2.2432,-0.31,-0.15844,0.3419,5,2U1D,2.0,True,0.318,20,True,right,0.0,0.4361,0.7779,0.3418,1.4196,1.9191,0.4996,A
269,269,0.50034,0.1,2,0.42529,0.23349,0.70882,269,2.20984,-0.31,-0.15844,0.3419,5,2U1D,1.0,True,0.259,20,True,left,0.0,1.6447,1.9861,0.3414,0.4355,0.9353,0.4998,V
270,270,0.50034,1.2,1,0.30021,0.43363,0.40861,270,2.31825,0.346,0.17512,0.67546,5,2D1U,1.0,True,0.417,14,True,left,0.0,0.3068,0.9813,0.6745,1.3904,1.8898,0.4994,A
271,271,0.50034,0.1,2,0.39194,0.25017,0.65045,271,2.56009,0.534,0.26685,0.76719,5,3D1U,2.0,True,0.293,7,False,right,0.0,1.5528,2.3201,0.7673,0.4027,0.9036,0.5009,V
272,272,0.50034,1.2,2,0.25017,0.30021,0.85058,272,2.65181,0.498,0.25017,0.75051,5,3D1U,2.0,True,0.242,7,False,right,0.0,1.6064,2.356,0.7496,0.2561,0.7562,0.5001,V
273,273,0.50034,0.1,2,0.39194,0.42529,0.61709,273,2.30158,-0.274,-0.13342,0.36692,5,2U1D,1.0,True,0.558,20,False,left,0.0,1.5152,1.884,0.3687,0.3994,0.9,0.5006,V
274,274,0.50034,1.2,1,0.29187,0.20848,0.85892,274,2.22653,-0.274,-0.13342,0.36692,5,2U1D,1.0,False,1.043,20,False,left,0.0,0.3006,0.6667,0.3661,1.5257,2.0248,0.4991,V
275,275,0.50034,0.1,2,0.41695,0.22515,0.43363,275,2.25153,0.346,0.17512,0.67546,5,2D1U,2.0,True,0.333,14,True,right,0.0,1.3576,2.0327,0.6751,0.4231,0.9237,0.5006,A
276,276,0.50034,1.2,2,0.43363,0.25017,0.44197,276,2.00137,-0.246,-0.12509,0.37526,5,3U1D,1.0,True,0.409,8,False,left,0.0,1.384,1.759,0.375,0.4432,0.9421,0.4989,A
277,277,0.50034,0.1,1,0.42529,0.32522,0.57539,277,2.16814,-0.31,-0.15844,0.3419,5,2U1D,2.0,True,0.442,21,True,right,0.0,0.4355,0.7768,0.3413,1.352,1.8521,0.5001,V
278,278,0.50034,1.2,1,0.41695,0.20848,0.70882,278,2.17649,-0.31,-0.15844,0.3419,5,2U1D,2.0,True,0.293,21,True,right,0.0,0.4241,0.7648,0.3407,1.4738,1.9734,0.4996,V
279,279,0.50034,0.1,1,0.3419,0.25851,0.45031,279,1.943,-0.21,-0.10841,0.39194,5,3U1D,2.0,True,0.518,8,False,right,0.0,0.3478,0.7385,0.3907,1.1893,1.6884,0.4991,V
280,280,0.50034,1.2,2,0.22515,0.20848,0.83391,280,2.42666,0.31,0.15844,0.65878,5,2D1U,2.0,True,0.284,14,False,right,0.0,1.5619,2.2202,0.6583,0.2288,0.7296,0.5008,A
281,281,0.50034,0.1,2,0.44197,0.35024,0.43363,281,2.47669,0.498,0.25017,0.75051,5,3D1U,2.0,True,0.46,7,False,right,0.0,1.3784,2.1282,0.7497,0.4451,0.9449,0.4998,V
282,282,0.50034,1.2,2,0.44197,0.30021,0.73384,282,2.63514,0.31,0.15844,0.65878,5,2D1U,1.0,False,0.951,14,False,left,0.0,1.6839,2.3418,0.6578,0.4501,0.9501,0.5,A
283,283,0.50034,0.1,1,0.3419,0.37526,0.5337,283,2.14314,-0.21,-0.10841,0.39194,5,3U1D,2.0,True,0.375,8,False,right,0.0,0.3484,0.739,0.3905,1.2727,1.7731,0.5005,A
284,284,0.50034,1.2,1,0.22515,0.27519,0.62543,284,2.01805,-0.21,-0.10841,0.39194,5,3U1D,2.0,True,0.666,8,False,right,0.0,0.2355,0.6267,0.3913,1.2518,1.7516,0.4998,V
285,285,0.50034,0.1,1,0.33356,0.30854,0.7255,285,2.61845,0.498,0.25017,0.75051,5,3D1U,1.0,True,0.376,7,False,left,0.0,0.341,1.0911,0.7502,1.8161,2.3167,0.5005,V
286,286,0.50034,1.2,2,0.41695,0.22515,0.7255,286,2.23486,-0.274,-0.13342,0.36692,5,2U1D,1.0,True,0.459,22,True,left,0.0,1.6468,2.0134,0.3666,0.4214,0.9221,0.5007,A
287,287,0.50034,0.1,1,0.23349,0.27519,0.41695,287,2.15981,0.462,0.23349,0.73384,5,3D1U,2.0,False,0.359,7,False,right,0.0,0.2372,0.9707,0.7334,1.3864,1.8869,0.5005,V
288,288,0.50034,1.2,2,0.40861,0.30021,0.60041,288,2.17649,-0.274,-0.13342,0.36692,5,2U1D,1.0,True,0.576,22,True,left,0.0,1.5184,1.8848,0.3664,0.4174,0.9181,0.5006,V
289,289,0.50034,0.1,1,0.42529,0.44197,0.62543,289,2.40998,-0.174,-0.08339,0.41695,5,3U1D,2.0,True,0.833,8,False,right,0.0,0.4364,0.8533,0.4169,1.4778,1.9785,0.5007,V
290,290,0.50034,1.2,2,0.35858,0.3836,0.89228,290,2.81026,0.346,0.17512,0.67546,5,2D1U,2.0,True,0.359,15,True,right,0.0,1.7573,2.4323,0.675,0.3666,0.8651,0.4985,A
291,291,0.50034,0.1,2,0.26685,0.25017,0.73384,291,2.50171,0.498,0.25017,0.75051,5,3D1U,2.0,True,0.308,8,True,right,0.0,1.5099,2.2594,0.7495,0.2748,0.776,0.5012,A
292,292,0.50034,1.2,2,0.20848,0.30021,0.75885,292,2.18483,-0.174,-0.08339,0.41695,5,3U1D,1.0,True,0.384,8,False,left,0.0,1.4699,1.8869,0.4169,0.2108,0.712,0.5011,V
293,293,0.50034,0.1,1,0.30021,0.40027,0.6838,293,2.56008,0.346,0.17512,0.67546,5,2D1U,1.0,True,0.718,15,True,left,0.0,0.3063,0.9817,0.6754,1.665,2.1671,0.5021,V
294,294,0.50034,1.2,2,0.28353,0.26685,0.69214,294,2.49337,0.498,0.25017,0.75051,5,3D1U,2.0,True,0.294,8,True,right,0.0,1.4806,2.231,0.7504,0.2874,0.7895,0.5021,V
295,295,0.50034,0.1,2,0.20848,0.37526,0.79221,295,2.6268,0.498,0.25017,0.75051,5,3D1U,2.0,True,0.242,8,True,right,0.0,1.5079,2.2581,0.7502,0.2167,0.717,0.5004,A
296,296,0.50034,1.2,2,0.35024,0.21682,0.51702,296,2.2432,0.31,0.15844,0.65878,5,2D1U,2.0,True,0.301,16,True,right,0.0,1.3729,2.0315,0.6586,0.3567,0.8561,0.4994,V
297,297,0.50034,0.1,1,0.26685,0.25017,0.55038,297,2.22652,0.31,0.15844,0.65878,5,2D1U,2.0,False,0.36,16,True,right,0.0,0.2695,0.9284,0.6589,1.4785,1.9784,0.4999,A
298,298,0.50034,1.2,1,0.24183,0.45031,0.50868,298,2.37662,0.346,0.17512,0.67546,5,2D1U,2.0,False,1.108,17,True,right,0.0,0.2467,0.9213,0.6746,1.4291,1.9303,0.5012,A
299,299,0.50034,0.1,1,0.40861,0.20014,0.76719,299,2.56842,0.382,0.1918,0.69214,5,2D1U,1.0,True,0.325,17,False,left,0.0,0.4133,1.1036,0.6904,1.8718,2.3715,0.4997,A
300,300,0.50034,1.2,1,0.35858,0.40027,0.82557,300,2.7769,0.382,0.1918,0.69214,5,2D1U,2.0,False,0.251,17,False,right,0.0,0.3649,1.0556,0.6907,1.8809,2.3814,0.5005,A
301,301,0.50034,0.1,2,0.26685,0.39194,0.62543,301,2.5184,0.462,0.23349,0.73384,5,3D1U,2.0,True,0.494,9,True,right,0.0,1.3979,2.1311,0.7332,0.2727,0.7731,0.5005,A
302,302,0.50034,1.2,2,0.37526,0.29187,0.70048,302,2.57677,0.418,0.20848,0.70882,5,2D1U,2.0,True,0.243,17,False,right,0.0,1.5854,2.2931,0.7077,0.3852,0.885,0.4998,A
303,303,0.50034,0.1,2,0.3836,0.21682,0.55038,303,2.35996,0.418,0.20848,0.70882,5,2D1U,2.0,True,0.284,17,False,right,0.0,1.4438,2.1512,0.7074,0.3934,0.894,0.5006,A
304,304,0.50034,1.2,1,0.22515,0.36692,0.52536,304,2.35161,0.462,0.23349,0.73384,5,3D1U,2.0,False,0.292,9,True,right,0.0,0.2344,0.9689,0.7345,1.4932,1.9932,0.5,A
305,305,0.50034,0.1,1,0.22515,0.27519,0.67546,305,2.36828,0.382,0.1918,0.69214,5,2D1U,1.0,True,0.642,18,True,left,0.0,0.2367,0.9277,0.691,1.6037,2.1037,0.4999,V
306,306,0.50034,1.2,2,0.23349,0.43363,0.66712,306,2.58509,0.498,0.25017,0.75051,5,3D1U,2.0,True,0.259,10,True,right,0.0,1.4032,2.1531,0.75,0.2365,0.7363,0.4998,V
307,307,0.50034,0.1,1,0.21682,0.31688,0.65878,307,2.44333,0.498,0.25017,0.75051,5,3D1U,1.0,True,0.309,10,True,left,0.0,0.2236,0.9738,0.7502,1.6315,2.1314,0.4999,A
