Unnamed: 0,standardDur,audNoise,order,preDur,postDur,isiDur,trial_num,totalDur,delta_dur_percents,deltaDurS,testDurS,intensities,current_stair,responses,is_correct,response_rts,stair_num_reversal,stair_is_reversal,response_keys,conflictDur,recordedOnsetVisualTest,recordedOffsetVisualTest,recordedDurVisualTest,recordedOnsetVisualStandard,recordedOffsetVisualStandard,recordedDurVisualStandard,modalityCue
0,0.50179,1.2,1,0.24253,0.30108,0.65233,0,1.87336,-0.65,-0.32616,0.17563,5,2U1D,1.0,False,1.582,0,False,left,0.08363,0.1592,0.5091,0.3499,1.0342,1.7926,0.7584,A
1,0.50179,1.2,2,0.22581,0.32616,0.81123,1,1.91517,-0.9,-0.45161,0.05018,5,lapse_rate,1.0,True,0.395,0,False,left,-0.2509,1.5822,1.5405,-0.0416,0.2655,0.6906,0.425,A
2,0.50179,1.2,1,0.24253,0.30944,0.45161,2,1.63082,-0.75,-0.37634,0.12545,5,2U1D,2.0,True,0.181,0,False,right,0.08363,0.155,0.4559,0.3009,0.7808,1.5392,0.7584,A
3,0.50179,1.2,2,0.28435,0.40143,0.81123,3,2.9522,0.9,0.45161,0.9534,5,lapse_rate,2.0,True,0.206,0,False,right,-0.2509,1.639,2.4973,0.8583,0.3218,0.747,0.4252,A
4,0.50179,0.1,1,0.30108,0.21744,0.84468,4,2.69295,0.65,0.32616,0.82796,5,2D1U,1.0,True,0.24,0,False,left,0.08363,0.2842,1.1425,0.8583,1.925,2.5417,0.6167,A
5,0.50179,0.1,1,0.2509,0.20908,0.86977,5,2.6595,0.65,0.32616,0.82796,5,2D1U,1.0,True,0.256,0,False,left,-0.2509,0.2304,1.0887,0.8583,2.0636,2.3462,0.2826,A
6,0.50179,1.2,2,0.21744,0.32616,0.77778,6,1.87335,-0.9,-0.45161,0.05018,5,lapse_rate,1.0,True,0.456,0,False,left,0.08363,1.7061,1.6647,-0.0414,0.0897,0.8472,0.7575,A
7,0.50179,1.2,2,0.44325,0.20072,0.51016,7,1.78137,-0.75,-0.37634,0.12545,5,2U1D,1.0,True,0.309,0,False,left,-0.2509,1.5029,1.5368,0.0339,0.4865,0.9119,0.4254,A
8,0.50179,0.1,1,0.26762,0.20072,0.68578,8,1.70609,-0.9,-0.45161,0.05018,5,lapse_rate,2.0,True,0.113,0,False,right,0.08363,0.2471,0.3312,0.084,0.9562,1.5727,0.6165,A
9,0.50179,1.2,2,0.20908,0.37634,0.51852,9,1.76463,-0.69,-0.34289,0.1589,5,2U1D,1.0,True,0.112,1,True,left,-0.2509,1.2719,1.3389,0.067,0.2478,0.6726,0.4248,A
10,0.50179,0.1,1,0.43489,0.36798,0.58542,10,2.66786,0.55,0.27599,0.77778,5,2D1U,1.0,True,0.211,0,False,left,0.08363,0.4189,1.2273,0.8083,1.7524,2.3692,0.6168,A
11,0.50179,0.1,1,0.41816,0.32616,0.74432,11,2.76821,0.55,0.27599,0.77778,5,2D1U,1.0,True,0.15,0,False,left,-0.2509,0.4028,1.211,0.8082,2.0614,2.3436,0.2821,A
12,0.50179,1.2,1,0.28435,0.20908,0.61051,12,2.55913,0.9,0.45161,0.9534,5,lapse_rate,1.0,True,0.229,0,False,left,0.08363,0.1978,1.3226,1.1248,1.8059,2.5645,0.7586,A
13,0.50179,1.2,2,0.20908,0.20072,0.55197,13,1.62246,-0.69,-0.34289,0.1589,5,2U1D,1.0,True,0.288,1,True,left,-0.2509,1.3112,1.3771,0.0659,0.2527,0.6778,0.4251,A
14,0.50179,1.2,1,0.20072,0.22581,0.76105,14,1.87336,-0.63,-0.3178,0.18399,5,2U1D,2.0,True,0.241,1,False,right,0.08363,0.1199,0.478,0.358,1.1116,1.8701,0.7585,A
15,0.50179,0.1,1,0.24253,0.43489,0.64397,15,2.55078,0.45,0.22581,0.7276,5,2D1U,1.0,True,0.108,0,False,left,-0.2509,0.2204,0.979,0.7586,1.7288,2.0127,0.2839,A
16,0.50179,1.2,1,0.35125,0.30108,0.51016,16,2.61768,0.9,0.45161,0.9534,5,lapse_rate,1.0,True,0.113,0,False,left,0.08363,0.2621,1.3875,1.1254,1.7708,2.5289,0.7581,A
17,0.50179,0.1,2,0.24253,0.21744,0.55197,17,1.69772,-0.63,-0.3178,0.18399,5,2U1D,1.0,True,0.214,1,False,left,-0.2509,1.1967,1.3635,0.1667,0.3465,0.6304,0.2839,A
18,0.50179,1.2,1,0.42652,0.30944,0.64397,18,2.60932,0.45,0.22581,0.7276,5,2D1U,1.0,True,0.296,0,False,left,0.08363,0.3392,1.2391,0.8999,1.7557,2.5138,0.7581,A
19,0.50179,0.1,2,0.30108,0.43489,0.77778,19,2.96894,0.9,0.45161,0.9534,5,lapse_rate,2.0,True,0.228,0,False,right,-0.2509,1.4797,2.4127,0.933,0.4038,0.6879,0.2841,A
20,0.50179,1.2,1,0.2509,0.35962,0.44325,20,1.773,-0.57,-0.28435,0.21744,5,2U1D,2.0,True,0.167,1,False,right,0.08363,0.1643,0.5555,0.3913,0.8722,1.6306,0.7584,A
21,0.50179,0.1,2,0.2509,0.23417,0.70251,21,2.36679,0.35,0.17563,0.67742,5,2D1U,2.0,True,0.114,0,False,right,-0.2509,1.3565,2.0154,0.6589,0.357,0.6402,0.2832,A
22,0.50179,1.2,1,0.24253,0.22581,0.55197,22,1.57228,-0.9,-0.45161,0.05018,5,lapse_rate,2.0,True,0.189,0,False,right,0.08363,0.1591,0.3841,0.225,0.8091,1.5673,0.7582,A
23,0.50179,0.1,1,0.22581,0.22581,0.77778,23,1.94863,-0.57,-0.28435,0.21744,5,2U1D,2.0,True,0.119,1,False,right,-0.2509,0.2038,0.4537,0.2499,1.3372,1.6205,0.2833,A
24,0.50179,0.1,2,0.29271,0.44325,0.52688,24,1.81481,-0.9,-0.45161,0.05018,5,lapse_rate,1.0,True,0.142,0,False,left,0.08363,1.3951,1.4287,0.0336,0.2372,0.8529,0.6157,A
25,0.50179,1.2,2,0.25926,0.38471,0.51852,25,2.3417,0.35,0.17563,0.67742,5,2D1U,2.0,True,0.214,0,False,right,-0.2509,1.3196,1.9032,0.5836,0.295,0.7194,0.4244,A
26,0.50179,1.2,2,0.2509,0.22581,0.69415,26,1.72283,-0.9,-0.45161,0.05018,5,lapse_rate,1.0,True,0.439,0,False,left,0.08363,1.6601,1.618,-0.0421,0.1266,0.8845,0.7579,A
27,0.50179,1.2,2,0.36798,0.43489,0.69415,27,2.62605,0.25,0.12545,0.62724,5,2D1U,2.0,True,0.224,0,False,right,-0.2509,1.6068,2.1404,0.5335,0.4064,0.8318,0.4255,A
28,0.50179,0.1,1,0.30944,0.24253,0.51852,28,1.81481,-0.51,-0.2509,0.24253,5,2U1D,2.0,True,0.132,1,False,right,0.08363,0.2899,0.5646,0.2747,1.0233,1.6398,0.6165,A
29,0.50179,0.1,1,0.24253,0.41816,0.45161,29,1.85662,-0.51,-0.2509,0.24253,5,2U1D,2.0,True,0.365,1,False,right,-0.2509,0.2237,0.4988,0.2752,1.0572,1.3405,0.2833,A
30,0.50179,1.2,2,0.38471,0.32616,0.85305,30,2.69295,0.25,0.12545,0.62724,5,2D1U,2.0,True,0.308,0,False,right,0.08363,1.9522,2.4856,0.5334,0.2606,1.0188,0.7582,A
31,0.50179,0.1,2,0.44325,0.4098,0.77778,31,2.1828,-0.9,-0.45161,0.05018,5,lapse_rate,1.0,True,0.291,0,False,left,-0.2509,1.6231,1.6565,0.0334,0.5474,0.8318,0.2843,A
32,0.50179,1.2,2,0.30108,0.30944,0.73596,32,2.80167,0.9,0.45161,0.9534,5,lapse_rate,2.0,True,0.263,0,False,right,0.08363,1.7515,2.6097,0.8582,0.1761,0.9344,0.7583,A
33,0.50179,1.2,1,0.32616,0.39307,0.58542,33,2.3835,0.15,0.07527,0.57706,5,2D1U,2.0,False,0.308,0,False,right,-0.2509,0.2449,0.995,0.7501,1.6199,2.045,0.4251,A
34,0.50179,0.1,1,0.36798,0.38471,0.44325,34,1.97372,-0.45,-0.22581,0.27599,5,2U1D,1.0,False,0.265,1,False,left,0.08363,0.3507,0.6602,0.3095,1.043,1.6596,0.6166,A
35,0.50179,1.2,1,0.30944,0.25926,0.68578,35,2.70967,0.9,0.45161,0.9534,5,lapse_rate,1.0,True,0.267,0,False,left,-0.2509,0.2271,1.3529,1.1258,2.077,2.5025,0.4256,A
36,0.50179,0.1,1,0.30108,0.23417,0.85305,36,2.14935,-0.486,-0.24253,0.25926,5,2U1D,2.0,True,0.183,2,True,right,0.08363,0.279,0.5697,0.2907,1.362,1.979,0.617,A
37,0.50179,1.2,1,0.37634,0.29271,0.5687,37,2.34169,0.21,0.10872,0.60215,5,2D1U,2.0,False,0.231,1,True,right,-0.2509,0.289,1.0637,0.7746,1.6723,2.0969,0.4246,A
38,0.50179,0.1,2,0.23417,0.27599,0.89486,38,2.86021,0.9,0.45161,0.9534,5,lapse_rate,2.0,True,0.226,0,False,right,0.08363,1.697,2.6302,0.9333,0.1719,0.7885,0.6167,A
39,0.50179,1.2,1,0.20908,0.35125,0.4767,39,2.17442,0.27,0.13381,0.6356,5,2D1U,1.0,True,0.317,1,False,left,-0.2509,0.1275,0.9358,0.8083,1.4525,1.8774,0.4249,A
40,0.50179,0.1,1,0.30944,0.39307,0.71924,40,2.1828,-0.486,-0.24253,0.25926,5,2U1D,2.0,True,0.321,2,True,right,0.08363,0.2937,0.5859,0.2922,1.2439,1.8604,0.6166,A
41,0.50179,0.1,2,0.30944,0.28435,0.4767,41,1.84827,-0.45,-0.22581,0.27599,5,2U1D,1.0,True,0.222,3,True,left,-0.2509,1.1908,1.4486,0.2578,0.4153,0.6982,0.2829,A
42,0.50179,0.1,1,0.20072,0.26762,0.55197,42,2.4755,0.9,0.45161,0.9534,5,lapse_rate,1.0,True,0.168,0,False,left,0.08363,0.1861,1.1695,0.9833,1.6611,2.2779,0.6168,A
43,0.50179,1.2,1,0.23417,0.3178,0.56033,43,2.24969,0.27,0.13381,0.6356,5,2D1U,1.0,True,0.22,1,False,left,-0.2509,0.1488,0.9574,0.8085,1.5573,1.9822,0.4249,A
44,0.50179,1.2,1,0.27599,0.41816,0.8865,44,2.35843,-0.45,-0.22581,0.27599,5,2U1D,1.0,False,0.191,3,True,left,0.08363,0.19,0.6402,0.4503,1.3984,2.1566,0.7583,A
45,0.50179,0.1,2,0.22581,0.20072,0.48507,45,1.46357,-0.9,-0.45161,0.05018,5,lapse_rate,1.0,True,0.303,0,False,left,-0.2509,1.1203,1.1534,0.0331,0.336,0.6193,0.2832,A
46,0.50179,0.1,1,0.38471,0.2509,0.66906,46,2.42534,0.234,0.11708,0.61888,5,2D1U,1.0,True,0.11,2,True,left,0.08363,0.3632,1.0139,0.6507,1.6229,2.2381,0.6152,A
47,0.50179,1.2,2,0.32616,0.26762,0.45998,47,2.50895,0.9,0.45161,0.9534,5,lapse_rate,1.0,False,0.185,0,False,left,-0.2509,1.3344,2.193,0.8585,0.3681,0.7933,0.4252,A
48,0.50179,0.1,2,0.27599,0.2509,0.46834,48,1.75628,-0.486,-0.24253,0.25926,5,2U1D,1.0,True,0.23,4,True,left,0.08363,1.3138,1.5554,0.2417,0.2136,0.8309,0.6173,A
49,0.50179,1.2,1,0.22581,0.3178,0.74432,49,2.4086,0.234,0.11708,0.61888,5,2D1U,1.0,True,0.228,2,True,left,-0.2509,0.1376,0.9288,0.7911,1.7123,2.1371,0.4248,A
50,0.50179,1.2,1,0.33453,0.38471,0.80287,50,2.62605,0.198,0.10036,0.60215,5,2D1U,1.0,True,0.31,2,False,left,0.08363,0.2489,1.0237,0.7748,1.698,2.4571,0.7591,A
51,0.50179,0.1,2,0.38471,0.33453,0.5687,51,2.74313,0.9,0.45161,0.9534,5,lapse_rate,2.0,True,0.241,0,False,right,-0.2509,1.3594,2.2929,0.9335,0.493,0.7764,0.2834,A
52,0.50179,0.1,1,0.27599,0.40143,0.53524,52,1.97371,-0.486,-0.24253,0.25926,5,2U1D,2.0,True,0.113,4,True,right,0.08363,0.2555,0.547,0.2915,1.0227,1.6392,0.6165,A
53,0.50179,0.1,1,0.22581,0.24253,0.80287,53,2.37515,0.198,0.10036,0.60215,5,2D1U,1.0,True,0.348,2,False,left,-0.2509,0.2051,0.8376,0.6325,1.7467,2.0301,0.2834,A
54,0.50179,1.2,2,0.28435,0.41816,0.82796,54,2.98566,0.9,0.45161,0.9534,5,lapse_rate,1.0,False,0.268,0,False,left,0.08363,1.8219,2.6803,0.8584,0.1554,0.9136,0.7582,A
55,0.50179,1.2,1,0.34289,0.30944,0.81959,55,2.2497,-0.45,-0.22581,0.27599,5,2U1D,1.0,False,0.264,5,True,left,-0.2509,0.2545,0.7046,0.4501,1.5628,1.9879,0.425,A
56,0.50179,0.1,2,0.20908,0.35125,0.66906,56,1.78136,-0.9,-0.45161,0.05018,5,lapse_rate,1.0,True,0.298,0,False,left,0.08363,1.4532,1.4867,0.0335,0.1537,0.7702,0.6166,A
57,0.50179,1.2,1,0.4098,0.40143,0.56033,57,2.13261,-0.486,-0.24253,0.25926,5,2U1D,1.0,False,0.23,6,True,left,-0.2509,0.3203,0.7533,0.433,1.3534,1.7783,0.425,A
58,0.50179,0.1,1,0.36798,0.45161,0.6356,58,2.53404,0.162,0.08363,0.57706,5,2D1U,1.0,True,0.193,2,False,left,0.08363,0.3524,0.9606,0.6082,1.5356,2.1523,0.6167,A
59,0.50179,0.1,2,0.32616,0.35125,0.81123,59,2.23296,-0.522,-0.25926,0.24253,5,2U1D,1.0,True,0.258,6,False,left,-0.2509,1.5441,1.7693,0.2252,0.436,0.7193,0.2833,A
60,0.50179,1.2,2,0.21744,0.44325,0.43489,60,2.17443,0.162,0.08363,0.57706,5,2D1U,1.0,False,0.208,2,False,left,0.08363,1.3678,1.8505,0.4827,0.0931,0.8513,0.7581,A
61,0.50179,0.1,1,0.22581,0.42652,0.74432,61,1.94862,-0.9,-0.45161,0.05018,5,lapse_rate,2.0,True,0.191,0,False,right,-0.2509,0.2101,0.2936,0.0835,1.1436,1.4269,0.2833,A
62,0.50179,1.2,1,0.21744,0.42652,0.4098,62,2.1577,0.198,0.10036,0.60215,5,2D1U,2.0,False,0.258,3,True,right,0.08363,0.131,0.906,0.775,1.1893,1.9481,0.7587,A
63,0.50179,1.2,1,0.30944,0.34289,0.5687,63,2.67622,0.9,0.45161,0.9534,5,lapse_rate,2.0,False,0.226,0,False,right,-0.2509,0.2265,1.3515,1.125,1.9598,2.3848,0.425,A
64,0.50179,0.1,2,0.41816,0.29271,0.59379,64,2.04898,-0.522,-0.25926,0.24253,5,2U1D,1.0,True,0.391,6,False,left,0.08363,1.5854,1.8109,0.2255,0.3607,0.9772,0.6166,A
65,0.50179,0.1,2,0.36798,0.4098,0.84468,65,2.74313,0.234,0.11708,0.61888,5,2D1U,1.0,False,0.228,3,False,left,-0.2509,1.6125,2.2131,0.6007,0.4713,0.7547,0.2834,A
66,0.50179,1.2,1,0.30944,0.35125,0.49343,66,1.91517,-0.486,-0.24253,0.25926,5,2U1D,1.0,False,0.112,7,True,left,0.08363,0.2227,0.6559,0.4332,1.023,1.781,0.758,A
67,0.50179,0.1,1,0.30944,0.35962,0.61888,67,2.74313,0.9,0.45161,0.9534,5,lapse_rate,1.0,True,0.231,0,False,left,-0.2509,0.2944,1.278,0.9836,2.0027,2.2854,0.2827,A
68,0.50179,1.2,2,0.45161,0.24253,0.5687,68,1.81481,-0.9,-0.45161,0.05018,5,lapse_rate,1.0,True,0.419,0,False,left,0.08363,1.7341,1.6924,-0.0417,0.3258,1.0842,0.7584,A
69,0.50179,1.2,1,0.44325,0.41816,0.76105,69,2.75985,0.27,0.13381,0.6356,5,2D1U,1.0,True,0.246,3,False,left,-0.2509,0.3556,1.1642,0.8086,1.964,2.3888,0.4248,A
70,0.50179,0.1,2,0.4098,0.42652,0.70251,70,2.28315,-0.522,-0.25926,0.24253,5,2U1D,1.0,True,0.45,8,True,left,0.08363,1.6819,1.9067,0.2247,0.3486,0.965,0.6165,A
71,0.50179,0.1,1,0.30108,0.27599,0.59379,71,1.72283,-0.9,-0.45161,0.05018,5,lapse_rate,2.0,True,0.268,0,False,right,-0.2509,0.2812,0.3645,0.0833,1.0646,1.3478,0.2832,A
72,0.50179,0.1,1,0.35962,0.24253,0.45998,72,2.19952,0.27,0.13381,0.6356,5,2D1U,1.0,True,0.281,3,False,left,0.08363,0.3393,1.006,0.6667,1.406,2.0228,0.6168,A
73,0.50179,1.2,2,0.40143,0.27599,0.61051,73,2.03225,-0.522,-0.25926,0.24253,5,2U1D,1.0,True,0.215,8,True,left,-0.2509,1.5534,1.7035,0.1501,0.4369,0.862,0.4252,A
74,0.50179,1.2,1,0.20072,0.20072,0.6356,74,1.79809,-0.486,-0.24253,0.25926,5,2U1D,1.0,False,0.238,9,True,left,0.08363,0.1144,0.5475,0.4331,1.0559,999.0,997.9441,A
75,0.50179,1.2,2,0.32616,0.39307,0.56033,75,1.83153,-0.9,-0.45161,0.05018,5,lapse_rate,1.0,True,0.296,0,False,left,-0.2509,1.4363,1.3947,-0.0415,0.3695,0.7948,0.4254,A
76,0.50179,0.1,1,0.30944,0.28435,0.59379,76,2.30825,0.234,0.11708,0.61888,5,2D1U,1.0,True,0.128,4,True,left,0.08363,0.2902,0.9402,0.65,1.4735,2.0901,0.6166,A
77,0.50179,0.1,2,0.35962,0.4098,0.54361,77,2.76822,0.9,0.45161,0.9534,5,lapse_rate,1.0,False,0.11,0,False,left,-0.2509,1.307,2.2404,0.9333,0.4653,0.7487,0.2833,A
78,0.50179,0.1,1,0.45161,0.38471,0.46834,78,2.42533,0.234,0.11708,0.61888,5,2D1U,1.0,True,0.149,4,True,left,0.08363,0.4363,1.0861,0.6498,1.4944,2.1113,0.6169,A
79,0.50179,1.2,1,0.25926,0.40143,0.60215,79,2.00716,-0.522,-0.25926,0.24253,5,2U1D,1.0,False,0.227,10,True,left,-0.2509,0.1763,0.593,0.4168,1.2349,1.6597,0.4248,A
80,0.50179,0.1,2,0.44325,0.26762,0.42652,80,1.68936,-0.9,-0.45161,0.05018,5,lapse_rate,1.0,True,0.276,0,False,left,0.08363,1.4384,1.4718,0.0334,0.3802,0.997,0.6168,A
81,0.50179,1.2,2,0.34289,0.30944,0.68578,81,2.44205,0.198,0.10036,0.60215,5,2D1U,1.0,False,0.112,4,False,left,-0.2509,1.5766,2.0857,0.5091,0.3859,0.8107,0.4249,A
82,0.50179,0.1,2,0.3178,0.20072,0.61051,82,1.84826,-0.558,-0.27599,0.21744,5,2U1D,1.0,True,0.323,10,False,left,0.08363,1.5031,1.7033,0.2002,0.2615,0.8777,0.6162,A
83,0.50179,1.2,2,0.43489,0.3178,0.86141,83,2.16607,-0.9,-0.45161,0.05018,5,lapse_rate,1.0,True,0.28,0,False,left,-0.2509,1.8453,1.8036,-0.0417,0.4786,0.9035,0.4249,A
84,0.50179,0.1,1,0.22581,0.25926,0.86977,84,2.47551,0.234,0.11708,0.61888,5,2D1U,2.0,False,0.114,5,True,right,0.08363,0.2041,0.8541,0.65,1.6618,2.2789,0.6171,A
85,0.50179,1.2,2,0.20072,0.35125,0.56033,85,1.83153,-0.558,-0.27599,0.21744,5,2U1D,1.0,True,0.333,10,False,left,-0.2509,1.3052,1.4301,0.1249,0.2385,0.6637,0.4252,A
86,0.50179,0.1,2,0.25926,0.21744,0.61051,86,1.63918,-0.9,-0.45161,0.05018,5,lapse_rate,1.0,True,0.937,0,False,left,0.08363,1.4367,1.4703,0.0337,0.1957,0.8121,0.6163,A
87,0.50179,1.2,2,0.38471,0.27599,0.55197,87,1.95699,-0.522,-0.25926,0.24253,5,2U1D,1.0,True,0.268,11,True,left,-0.2509,1.4848,1.6345,0.1497,0.4266,0.8509,0.4243,A
88,0.50179,0.1,1,0.3178,0.30944,0.41816,88,2.18279,0.27,0.13381,0.6356,5,2D1U,1.0,True,0.25,5,False,left,0.08363,0.2966,0.963,0.6664,1.3214,1.9386,0.6172,A
89,0.50179,0.1,1,0.25926,0.4098,0.62724,89,1.84827,-0.9,-0.45161,0.05018,5,lapse_rate,2.0,True,0.114,0,False,right,-0.2509,0.2384,0.3216,0.0832,1.0551,1.3376,0.2825,A
90,0.50179,0.1,2,0.35962,0.26762,0.4767,90,1.84826,-0.522,-0.25926,0.24253,5,2U1D,1.0,True,0.261,11,True,left,0.08363,1.4111,1.6362,0.2251,0.3029,0.9197,0.6169,A
91,0.50179,1.2,2,0.34289,0.23417,0.45161,91,2.16606,0.27,0.13381,0.6356,5,2D1U,1.0,False,0.336,5,False,left,-0.2509,1.3392,1.8805,0.5413,0.3805,0.8056,0.4251,A
92,0.50179,1.2,1,0.3178,0.32616,0.60215,92,2.40023,0.306,0.15054,0.65233,5,2D1U,1.0,True,0.356,5,False,left,0.08363,0.2303,1.0551,0.8248,1.5299,2.2883,0.7583,A
93,0.50179,1.2,2,0.42652,0.3178,0.85305,93,2.14934,-0.9,-0.45161,0.05018,5,lapse_rate,1.0,True,0.365,0,False,left,-0.2509,1.8229,1.7813,-0.0416,0.4649,0.8897,0.4247,A
94,0.50179,0.1,2,0.43489,0.37634,0.43489,94,2.00717,-0.486,-0.24253,0.25926,5,2U1D,1.0,True,0.235,11,False,left,0.08363,1.443,1.6849,0.2419,0.3763,0.993,0.6167,A
95,0.50179,0.1,1,0.25926,0.21744,0.45998,95,2.0908,0.306,0.15054,0.65233,5,2D1U,1.0,True,0.323,5,False,left,-0.2509,0.243,0.9264,0.6834,1.4933,1.7764,0.2831,A
96,0.50179,1.2,2,0.23417,0.27599,0.46834,96,1.73955,-0.486,-0.24253,0.25926,5,2U1D,1.0,True,0.201,11,False,left,0.08363,1.4141,1.5806,0.1666,0.1057,0.864,0.7584,A
97,0.50179,1.2,2,0.27599,0.30108,0.42652,97,2.45878,0.9,0.45161,0.9534,5,lapse_rate,2.0,True,0.254,0,False,right,-0.2509,1.2478,2.1063,0.8585,0.3146,0.7396,0.4251,A
98,0.50179,0.1,2,0.42652,0.36798,0.42652,98,2.67621,0.9,0.45161,0.9534,5,lapse_rate,2.0,True,0.194,0,False,right,0.08363,1.4275,2.3607,0.9332,0.3692,0.9859,0.6168,A
99,0.50179,1.2,2,0.34289,0.25926,0.56033,99,1.94026,-0.45,-0.22581,0.27599,5,2U1D,1.0,True,0.28,11,False,left,-0.2509,1.4478,1.6315,0.1837,0.3811,0.806,0.4249,A
100,0.50179,0.1,2,0.23417,0.42652,0.59379,100,2.39187,0.27,0.13381,0.6356,5,2D1U,2.0,True,0.212,6,True,right,0.08363,1.4036,2.0202,0.6166,0.1779,0.7952,0.6174,A
101,0.50179,1.2,2,0.4098,0.27599,0.62724,101,1.865,-0.9,-0.45161,0.05018,5,lapse_rate,1.0,True,0.395,0,False,left,-0.2509,1.5798,1.5383,-0.0415,0.4472,0.8719,0.4248,A
102,0.50179,0.1,1,0.29271,0.23417,0.77778,102,2.44205,0.27,0.13381,0.6356,5,2D1U,1.0,True,0.301,6,True,left,0.08363,0.2709,0.9375,0.6666,1.6539,2.271,0.6171,A
103,0.50179,1.2,1,0.41816,0.28435,0.67742,103,2.15771,-0.45,-0.22581,0.27599,5,2U1D,1.0,False,0.264,11,False,left,-0.2509,0.3349,0.7847,0.4498,1.5015,1.9267,0.4252,A
104,0.50179,1.2,1,0.2509,0.3178,0.45161,104,1.78136,-0.486,-0.24253,0.25926,5,2U1D,2.0,True,0.191,12,True,right,0.08363,0.1689,0.6021,0.4331,0.9271,1.6855,0.7584,A
105,0.50179,0.1,2,0.41816,0.40143,0.64397,105,2.58423,0.234,0.11708,0.61888,5,2D1U,2.0,True,0.169,6,False,right,-0.2509,1.4663,2.0662,0.5999,0.5246,0.8082,0.2835,A
106,0.50179,1.2,2,0.3178,0.34289,0.71924,106,1.9319,-0.9,-0.45161,0.05018,5,lapse_rate,1.0,True,0.467,0,False,left,0.08363,1.7473,1.706,-0.0412,0.189,0.9468,0.7578,A
107,0.50179,0.1,1,0.38471,0.27599,0.73596,107,2.15771,-0.486,-0.24253,0.25926,5,2U1D,2.0,True,0.26,12,True,right,-0.2509,0.3666,0.6583,0.2916,1.4999,1.7837,0.2837,A
108,0.50179,1.2,2,0.42652,0.3178,0.69415,108,2.55914,0.234,0.11708,0.61888,5,2D1U,2.0,True,0.575,6,False,right,0.08363,1.8303,2.3557,0.5254,0.2974,1.0558,0.7584,A
109,0.50179,0.1,1,0.30108,0.22581,0.86977,109,1.94863,-0.9,-0.45161,0.05018,5,lapse_rate,2.0,True,0.231,0,False,right,-0.2509,0.2841,0.3674,0.0833,1.342,1.6253,0.2832,A
110,0.50179,1.2,1,0.38471,0.38471,0.57706,110,2.12426,-0.45,-0.22581,0.27599,5,2U1D,2.0,True,0.212,13,True,right,0.08363,0.2991,0.749,0.4499,1.199,1.9567,0.7577,A
111,0.50179,0.1,2,0.42652,0.20908,0.48507,111,2.22461,0.198,0.10036,0.60215,5,2D1U,2.0,True,0.109,6,False,right,-0.2509,1.3127,1.8954,0.5827,0.5295,0.8126,0.2831,A
112,0.50179,0.1,1,0.34289,0.4098,0.57706,112,2.78494,0.9,0.45161,0.9534,5,lapse_rate,1.0,True,0.206,0,False,left,0.08363,0.3261,1.3095,0.9834,1.8261,2.4422,0.6161,A
113,0.50179,0.1,2,0.35125,0.27599,0.7945,113,2.19952,-0.45,-0.22581,0.27599,5,2U1D,1.0,True,0.22,13,True,left,-0.2509,1.5482,1.8065,0.2583,0.4566,0.7392,0.2826,A
114,0.50179,1.2,1,0.21744,0.30944,0.48507,114,2.11589,0.198,0.10036,0.60215,5,2D1U,2.0,False,0.245,6,False,right,0.08363,0.1349,0.9099,0.775,1.2681,2.0265,0.7584,A
115,0.50179,0.1,2,0.29271,0.30108,0.75269,115,1.89845,-0.9,-0.45161,0.05018,5,lapse_rate,1.0,True,0.238,0,False,left,-0.2509,1.4472,1.4805,0.0333,0.3973,0.6808,0.2835,A
116,0.50179,1.2,2,0.22581,0.30944,0.6356,116,1.96535,-0.414,-0.20908,0.29271,5,2U1D,1.0,True,0.218,13,False,left,0.08363,1.5756,1.7762,0.2006,0.1006,0.8597,0.7591,A
117,0.50179,0.1,1,0.35962,0.36798,0.80287,117,2.98566,0.9,0.45161,0.9534,5,lapse_rate,1.0,True,0.226,0,False,left,-0.2509,0.3412,1.3243,0.9831,2.2328,2.516,0.2832,A
118,0.50179,0.1,2,0.39307,0.36798,0.71087,118,2.59259,0.234,0.11708,0.61888,5,2D1U,1.0,False,0.16,7,True,left,0.08363,1.671,2.2705,0.5995,0.3295,0.946,0.6165,A
119,0.50179,0.1,2,0.45161,0.37634,0.52688,119,2.14933,-0.414,-0.20908,0.29271,5,2U1D,1.0,True,0.529,13,False,left,-0.2509,1.3806,1.6554,0.2748,0.5555,0.8387,0.2832,A
120,0.50179,1.2,1,0.25926,0.22581,0.6356,120,2.25806,0.27,0.13381,0.6356,5,2D1U,1.0,True,0.372,7,False,left,0.08363,0.177,0.985,0.808,1.4932,2.2509,0.7577,A
121,0.50179,1.2,1,0.41816,0.29271,0.7276,121,1.99044,-0.9,-0.45161,0.05018,5,lapse_rate,2.0,True,0.25,0,False,right,-0.2509,0.3309,0.5561,0.2251,1.3227,1.7479,0.4252,A
122,0.50179,1.2,2,0.20908,0.29271,0.66069,122,1.97371,-0.378,-0.19235,0.30944,5,2U1D,1.0,True,0.323,13,False,left,0.08363,1.5854,1.8022,0.2168,0.0856,0.8437,0.758,A
123,0.50179,1.2,1,0.4098,0.44325,0.83632,123,3.14456,0.9,0.45161,0.9534,5,lapse_rate,1.0,True,0.301,0,False,left,-0.2509,0.3202,1.4452,1.125,2.3197,2.7453,0.4256,A
124,0.50179,0.1,2,0.35962,0.40143,0.75269,124,2.65113,0.27,0.13381,0.6356,5,2D1U,2.0,True,0.238,7,False,right,0.08363,1.6833,2.2997,0.6164,0.2997,0.9163,0.6166,A
125,0.50179,1.2,2,0.32616,0.24253,0.40143,125,1.52209,-0.9,-0.45161,0.05018,5,lapse_rate,1.0,True,0.583,0,False,left,-0.2509,1.2731,1.2315,-0.0415,0.365,0.7894,0.4244,A
126,0.50179,0.1,1,0.45161,0.43489,0.86141,126,2.55914,-0.378,-0.19235,0.30944,5,2U1D,1.0,False,0.714,13,False,left,0.08363,0.4319,0.7733,0.3414,1.5734,2.1899,0.6165,A
127,0.50179,1.2,1,0.32616,0.34289,0.8865,127,2.67622,0.234,0.11708,0.61888,5,2D1U,1.0,True,0.17,8,True,left,-0.2509,0.2403,1.0321,0.7918,1.957,2.3821,0.4251,A
128,0.50179,1.2,2,0.20908,0.26762,0.59379,128,2.19116,0.234,0.11708,0.61888,5,2D1U,1.0,False,0.623,8,True,left,0.08363,1.5179,2.043,0.5251,0.0848,0.8431,0.7583,A
129,0.50179,0.1,1,0.41816,0.26762,0.61888,129,1.85663,-0.9,-0.45161,0.05018,5,lapse_rate,2.0,True,0.122,0,False,right,-0.2509,0.3968,0.4803,0.0836,1.2049,1.489,0.2841,A
130,0.50179,0.1,2,0.22581,0.33453,0.55197,130,1.90681,-0.414,-0.20908,0.29271,5,2U1D,1.0,True,0.227,14,True,left,0.08363,1.3459,1.6208,0.2749,0.1618,0.7791,0.6172,A
131,0.50179,0.1,2,0.40143,0.22581,0.51852,131,2.60095,0.9,0.45161,0.9534,5,lapse_rate,2.0,True,0.192,0,False,right,-0.2509,1.3233,2.2566,0.9333,0.5064,0.7898,0.2835,A
132,0.50179,0.1,1,0.2509,0.28435,0.87814,132,2.20789,-0.414,-0.20908,0.29271,5,2U1D,2.0,True,0.126,14,True,right,0.08363,0.2295,0.5543,0.3249,1.3711,1.9879,0.6168,A
133,0.50179,1.2,2,0.3178,0.24253,0.66906,133,2.36678,0.27,0.13381,0.6356,5,2D1U,2.0,True,0.231,9,True,right,-0.2509,1.5288,2.0706,0.5418,0.3539,0.7793,0.4254,A
134,0.50179,1.2,2,0.34289,0.34289,0.8865,134,2.70967,0.27,0.13381,0.6356,5,2D1U,2.0,True,0.238,9,True,right,0.08363,1.9443,2.4858,0.5415,0.2192,0.9774,0.7583,A
135,0.50179,0.1,1,0.33453,0.38471,0.81123,135,2.3417,-0.378,-0.19235,0.30944,5,2U1D,1.0,False,0.199,15,True,left,-0.2509,0.3148,0.6558,0.3411,1.5731,1.8564,0.2833,A
136,0.50179,0.1,2,0.36798,0.45161,0.49343,136,2.76821,0.9,0.45161,0.9534,5,lapse_rate,2.0,True,0.124,0,False,right,0.08363,1.4351,2.3685,0.9335,0.3102,0.9268,0.6166,A
137,0.50179,1.2,2,0.30944,0.44325,0.64397,137,1.94863,-0.9,-0.45161,0.05018,5,lapse_rate,1.0,True,0.254,0,False,left,-0.2509,1.4954,1.4538,-0.0416,0.3459,0.7707,0.4248,A
138,0.50179,0.1,1,0.25926,0.20908,0.62724,138,2.21625,0.234,0.11708,0.61888,5,2D1U,1.0,True,0.304,10,True,left,0.08363,0.2387,0.8882,0.6495,1.4554,2.072,0.6166,A
139,0.50179,1.2,2,0.23417,0.25926,0.51016,139,1.79809,-0.414,-0.20908,0.29271,5,2U1D,1.0,True,0.242,16,True,left,-0.2509,1.2883,1.4884,0.2001,0.2718,0.6967,0.4249,A
140,0.50179,1.2,2,0.29271,0.3178,0.42652,140,2.49222,0.9,0.45161,0.9534,5,lapse_rate,2.0,True,0.114,0,False,right,0.08363,1.4286,2.2873,0.8587,0.162,0.9204,0.7584,A
141,0.50179,1.2,2,0.44325,0.40143,0.8865,141,2.85185,0.234,0.11708,0.61888,5,2D1U,2.0,True,0.538,10,True,right,-0.2509,1.874,2.3989,0.525,0.4823,0.9078,0.4255,A
142,0.50179,0.1,2,0.38471,0.40143,0.67742,142,2.25806,-0.414,-0.20908,0.29271,5,2U1D,1.0,True,0.234,16,True,left,0.08363,1.6284,1.9029,0.2745,0.32,0.9371,0.6171,A
143,0.50179,0.1,2,0.30944,0.35962,0.80287,143,2.28316,-0.378,-0.19235,0.30944,5,2U1D,1.0,True,0.225,17,True,left,-0.2509,1.515,1.8067,0.2917,0.4149,0.698,0.283,A
144,0.50179,1.2,1,0.4098,0.43489,0.62724,144,2.57587,0.198,0.10036,0.60215,5,2D1U,1.0,True,0.507,10,False,left,0.08363,0.3277,1.1022,0.7745,1.6029,2.3612,0.7582,A
145,0.50179,0.1,2,0.25926,0.41816,0.58542,145,2.71803,0.9,0.45161,0.9534,5,lapse_rate,2.0,True,0.141,0,False,right,-0.2509,1.2486,2.1824,0.9338,0.3655,0.6488,0.2832,A
146,0.50179,1.2,2,0.36798,0.28435,0.50179,146,1.96535,-0.378,-0.19235,0.30944,5,2U1D,1.0,True,0.442,17,True,left,0.08363,1.5799,1.7965,0.2166,0.2381,0.9965,0.7584,A
147,0.50179,0.1,1,0.21744,0.30944,0.61051,147,2.24133,0.198,0.10036,0.60215,5,2D1U,1.0,True,0.147,10,False,left,-0.2509,0.1984,0.8317,0.6333,1.5487,1.8315,0.2828,A
148,0.50179,1.2,1,0.3178,0.38471,0.52688,148,2.68458,0.9,0.45161,0.9534,5,lapse_rate,1.0,True,0.305,0,False,left,0.08363,0.2318,1.3568,1.125,1.7567,2.5152,0.7584,A
149,0.50179,1.2,2,0.40143,0.30108,0.8865,149,2.14098,-0.9,-0.45161,0.05018,5,lapse_rate,1.0,True,0.309,0,False,left,-0.2509,1.829,1.7875,-0.0415,0.4374,0.8624,0.425,A
150,0.50179,0.1,1,0.29271,0.30108,0.42652,150,2.09916,0.162,0.08363,0.57706,5,2D1U,1.0,True,0.265,10,False,left,0.08363,0.2767,0.8847,0.608,1.2512,1.8681,0.6168,A
151,0.50179,1.2,2,0.39307,0.36798,0.64397,151,2.23297,-0.342,-0.16726,0.32616,5,2U1D,1.0,True,0.244,17,False,left,-0.2509,1.5827,1.816,0.2333,0.4326,0.858,0.4255,A
152,0.50179,1.2,1,0.30108,0.30944,0.57706,152,2.01553,-0.342,-0.16726,0.32616,5,2U1D,1.0,False,0.265,17,False,left,0.08363,0.2158,0.7148,0.499,1.1651,1.9235,0.7584,A
153,0.50179,0.1,1,0.20072,0.23417,0.58542,153,2.4755,0.9,0.45161,0.9534,5,lapse_rate,1.0,True,0.163,0,False,left,-0.2509,0.1801,1.1638,0.9836,1.8555,2.139,0.2835,A
154,0.50179,0.1,1,0.21744,0.34289,0.48507,154,2.12425,0.162,0.08363,0.57706,5,2D1U,1.0,True,0.324,10,False,left,0.08363,0.1973,0.806,0.6086,1.2309,1.8475,0.6166,A
155,0.50179,0.1,2,0.34289,0.36798,0.6356,155,2.40859,0.126,0.06691,0.56033,5,2D1U,2.0,True,0.239,10,False,right,-0.2509,1.3792,1.9206,0.5415,0.4454,0.7287,0.2833,A
156,0.50179,1.2,1,0.28435,0.29271,0.81959,156,2.85184,0.9,0.45161,0.9534,5,lapse_rate,1.0,True,0.331,0,False,left,0.08363,0.2017,1.3268,1.1252,2.0188,2.7772,0.7584,A
157,0.50179,1.2,2,0.33453,0.37634,0.60215,157,2.12425,-0.378,-0.19235,0.30944,5,2U1D,1.0,True,0.21,18,True,left,-0.2509,1.4807,1.697,0.2162,0.3725,0.797,0.4245,A
158,0.50179,0.1,2,0.43489,0.41816,0.7945,158,2.19952,-0.9,-0.45161,0.05018,5,lapse_rate,1.0,True,0.22,0,False,left,0.08363,1.7963,1.8296,0.0333,0.3713,0.9876,0.6163,A
159,0.50179,1.2,1,0.36798,0.3178,0.74432,159,2.24133,-0.378,-0.19235,0.30944,5,2U1D,1.0,False,0.334,18,True,left,-0.2509,0.2791,0.7629,0.4838,1.545,1.9705,0.4256,A
160,0.50179,0.1,1,0.45161,0.21744,0.42652,160,2.15769,0.126,0.06691,0.56033,5,2D1U,1.0,True,0.297,10,False,left,0.08363,0.4319,1.0232,0.5914,1.3899,2.0067,0.6168,A
161,0.50179,0.1,1,0.38471,0.44325,0.83632,161,2.70968,0.09,0.04182,0.54361,5,2D1U,1.0,True,0.185,10,False,left,-0.2509,0.3629,0.9377,0.5748,1.8794,2.1626,0.2832,A
162,0.50179,1.2,2,0.27599,0.21744,0.78614,162,2.07407,-0.414,-0.20908,0.29271,5,2U1D,1.0,True,0.279,18,False,left,0.08363,1.7734,1.973,0.1996,0.1488,0.9069,0.758,A
163,0.50179,1.2,2,0.43489,0.30944,0.87814,163,3.07766,0.9,0.45161,0.9534,5,lapse_rate,2.0,True,0.263,0,False,right,-0.2509,1.8558,2.7141,0.8584,0.4725,0.8982,0.4257,A
164,0.50179,1.2,1,0.35962,0.45161,0.6356,164,2.49223,0.09,0.04182,0.54361,5,2D1U,1.0,True,0.307,10,False,left,0.08363,0.2765,0.9928,0.7163,1.5011,2.2594,0.7584,A
165,0.50179,0.1,1,0.26762,0.41816,0.81959,165,2.96056,0.9,0.45161,0.9534,5,lapse_rate,1.0,True,0.168,0,False,left,-0.2509,0.2483,1.2316,0.9833,2.1568,2.4398,0.283,A
166,0.50179,0.1,1,0.4098,0.3178,0.50179,166,2.02389,-0.414,-0.20908,0.29271,5,2U1D,2.0,True,0.113,18,False,right,0.08363,0.3945,0.7196,0.3251,1.1613,1.778,0.6166,A
167,0.50179,0.1,2,0.40143,0.24253,0.77778,167,2.23297,-0.378,-0.19235,0.30944,5,2U1D,1.0,True,0.217,19,True,left,-0.2509,1.581,1.8722,0.2912,0.5058,0.7895,0.2837,A
168,0.50179,1.2,1,0.38471,0.36798,0.70251,168,2.48387,0.054,0.02509,0.52688,5,2D1U,1.0,True,0.214,10,False,left,0.08363,0.3018,1.0013,0.6995,1.5765,2.3351,0.7586,A
169,0.50179,1.2,2,0.33453,0.4098,0.43489,169,2.20789,0.054,0.02509,0.52688,5,2D1U,1.0,False,0.205,10,False,left,-0.2509,1.3149,1.7483,0.4334,0.3733,0.7981,0.4247,A
170,0.50179,0.1,2,0.3178,0.44325,0.76105,170,2.5675,0.09,0.04182,0.54361,5,2D1U,1.0,False,0.174,11,True,left,0.08363,1.6466,2.172,0.5254,0.2544,0.8721,0.6177,A
171,0.50179,0.1,2,0.30944,0.24253,0.4098,171,1.773,-0.378,-0.19235,0.30944,5,2U1D,1.0,True,0.134,19,True,left,-0.2509,1.1234,1.4153,0.2918,0.4151,0.6983,0.2831,A
172,0.50179,1.2,1,0.21744,0.25926,0.46834,172,2.00716,0.126,0.06691,0.56033,5,2D1U,1.0,True,0.206,11,False,left,0.08363,0.1325,0.8659,0.7335,1.2077,1.9658,0.7581,A
173,0.50179,1.2,1,0.43489,0.37634,0.45998,173,2.33333,0.126,0.06691,0.56033,5,2D1U,2.0,False,0.477,11,False,right,-0.2509,0.3465,1.0796,0.7331,1.5797,2.0047,0.425,A
174,0.50179,0.1,1,0.35962,0.30108,0.78614,174,2.27479,-0.342,-0.16726,0.32616,5,2U1D,2.0,True,0.316,19,False,right,0.08363,0.3398,0.6974,0.3576,1.4226,2.0391,0.6165,A
175,0.50179,0.1,1,0.21744,0.26762,0.45998,175,1.77299,-0.342,-0.16726,0.32616,5,2U1D,1.0,False,0.292,19,False,left,-0.2509,0.1988,0.5572,0.3584,1.1238,1.407,0.2832,A
176,0.50179,1.2,1,0.37634,0.35962,0.80287,176,2.35006,-0.378,-0.19235,0.30944,5,2U1D,1.0,False,0.113,20,True,left,0.08363,0.2884,0.7723,0.4839,1.4473,2.2056,0.7583,A
177,0.50179,1.2,2,0.35125,0.38471,0.83632,177,2.36678,-0.414,-0.20908,0.29271,5,2U1D,1.0,True,0.163,20,False,left,-0.2509,1.7312,1.9308,0.1996,0.3892,0.8142,0.425,A
178,0.50179,0.1,1,0.3178,0.22581,0.42652,178,2.04898,0.162,0.08363,0.57706,5,2D1U,1.0,True,0.114,11,False,left,0.08363,0.2988,0.9077,0.6089,1.2739,1.8909,0.617,A
179,0.50179,0.1,2,0.39307,0.30108,0.61051,179,2.38351,0.162,0.08363,0.57706,5,2D1U,1.0,False,0.684,11,False,left,-0.2509,1.4073,1.9653,0.558,0.4985,0.7821,0.2835,A
180,0.50179,1.2,1,0.22581,0.3178,0.78614,180,2.12425,-0.414,-0.20908,0.29271,5,2U1D,2.0,True,0.321,20,False,right,0.08363,0.1408,0.6069,0.4661,1.2653,2.0236,0.7584,A
181,0.50179,1.2,1,0.40143,0.21744,0.51852,181,1.94862,-0.378,-0.19235,0.30944,5,2U1D,1.0,False,0.445,21,True,left,-0.2509,0.3126,0.7968,0.4843,1.3549,1.7798,0.4249,A
182,0.50179,0.1,2,0.22581,0.25926,0.55197,182,1.83154,-0.414,-0.20908,0.29271,5,2U1D,1.0,True,0.201,22,True,left,0.08363,1.3475,1.623,0.2755,0.1642,0.7808,0.6165,A
183,0.50179,0.1,2,0.25926,0.43489,0.67742,183,2.47551,0.198,0.10036,0.60215,5,2D1U,2.0,True,0.113,11,False,right,-0.2509,1.3385,1.9221,0.5837,0.3637,0.6467,0.283,A
184,0.50179,1.2,2,0.33453,0.25926,0.66069,184,2.35842,0.198,0.10036,0.60215,5,2D1U,1.0,False,0.384,11,False,left,0.08363,1.706,2.2142,0.5082,0.2059,0.9637,0.7578,A
185,0.50179,1.2,1,0.30944,0.34289,0.49343,185,2.26643,0.234,0.11708,0.61888,5,2D1U,1.0,True,0.223,11,False,left,-0.2509,0.2262,1.0179,0.7916,1.5515,1.9756,0.4241,A
186,0.50179,0.1,2,0.4098,0.35125,0.77778,186,2.6595,0.234,0.11708,0.61888,5,2D1U,1.0,False,0.129,11,False,left,0.08363,1.7587,2.3587,0.6,0.3507,0.9675,0.6168,A
187,0.50179,0.1,2,0.24253,0.34289,0.83632,187,2.21624,-0.414,-0.20908,0.29271,5,2U1D,1.0,True,0.154,22,True,left,-0.2509,1.4838,1.7585,0.2746,0.3512,0.6343,0.283,A
188,0.50179,1.2,2,0.21744,0.40143,0.75269,188,2.18279,-0.378,-0.19235,0.30944,5,2U1D,1.0,True,0.222,23,True,left,0.08363,1.6789,1.8964,0.2175,0.0875,0.8465,0.759,A
189,0.50179,1.2,2,0.25926,0.24253,0.45161,189,2.09079,0.27,0.13381,0.6356,5,2D1U,1.0,False,0.158,11,False,left,-0.2509,1.2561,1.7977,0.5416,0.2977,0.7226,0.4249,A
190,0.50179,0.1,1,0.40143,0.23417,0.70251,190,2.14934,-0.378,-0.19235,0.30944,5,2U1D,1.0,False,0.271,23,True,left,0.08363,0.3822,0.7237,0.3415,1.3653,1.9827,0.6174,A
191,0.50179,0.1,2,0.44325,0.33453,0.7945,191,2.36678,-0.414,-0.20908,0.29271,5,2U1D,1.0,True,0.198,24,True,left,-0.2509,1.6429,1.9179,0.275,0.5521,0.8343,0.2822,A
192,0.50179,1.2,2,0.30944,0.2509,0.66069,192,2.01553,-0.414,-0.20908,0.29271,5,2U1D,1.0,True,0.252,24,True,left,0.08363,1.6856,1.8853,0.1997,0.1857,0.9441,0.7584,A
193,0.50179,1.2,1,0.20908,0.21744,0.61051,193,2.19115,0.306,0.15054,0.65233,5,2D1U,2.0,False,0.333,11,False,right,-0.2509,0.125,0.9494,0.8243,1.6001,2.0247,0.4246,A
194,0.50179,0.1,1,0.26762,0.34289,0.50179,194,2.28315,0.342,0.16726,0.66906,5,2D1U,1.0,True,0.11,11,False,left,0.08363,0.2467,0.9475,0.7008,1.389,2.0058,0.6168,A
195,0.50179,0.1,1,0.4098,0.38471,0.81959,195,2.78495,0.342,0.16726,0.66906,5,2D1U,1.0,True,0.231,11,False,left,-0.2509,0.3891,1.089,0.6999,2.014,2.2974,0.2834,A
196,0.50179,1.2,2,0.44325,0.39307,0.51016,196,2.15771,-0.378,-0.19235,0.30944,5,2U1D,1.0,True,0.276,25,True,left,0.08363,1.6638,1.8799,0.2161,0.3135,1.0719,0.7583,A
197,0.50179,1.2,1,0.35962,0.44325,0.59379,197,2.55078,0.306,0.15054,0.65233,5,2D1U,1.0,True,0.115,12,True,left,-0.2509,0.2778,1.1021,0.8243,1.7352,2.1607,0.4255,A
198,0.50179,0.1,1,0.22581,0.30944,0.45161,198,1.79809,-0.378,-0.19235,0.30944,5,2U1D,2.0,True,0.115,25,True,right,0.08363,0.2109,0.5525,0.3416,0.9444,1.5604,0.616,A
199,0.50179,0.1,1,0.41816,0.20908,0.45998,199,2.24134,0.306,0.15054,0.65233,5,2D1U,2.0,False,0.255,12,True,right,-0.2509,0.3984,1.0817,0.6833,1.6483,1.9318,0.2835,A
200,0.50179,1.2,1,0.35125,0.2509,0.49343,200,2.26643,0.342,0.16726,0.66906,5,2D1U,1.0,True,0.385,13,True,left,0.08363,0.2635,1.1055,0.842,1.4725,2.2306,0.7581,A
201,0.50179,1.2,2,0.24253,0.35125,0.56033,201,1.98206,-0.342,-0.16726,0.32616,5,2U1D,1.0,True,0.183,25,False,left,-0.2509,1.3455,1.5787,0.2332,0.2791,0.704,0.4249,A
202,0.50179,0.1,1,0.35962,0.24253,0.50179,202,1.93189,-0.342,-0.16726,0.32616,5,2U1D,2.0,True,0.112,25,False,right,0.08363,0.3372,0.6951,0.3579,1.1369,1.7536,0.6166,A
203,0.50179,0.1,2,0.30108,0.32616,0.61888,203,2.0908,-0.306,-0.15054,0.34289,5,2U1D,1.0,True,0.113,25,False,left,-0.2509,1.3213,1.6463,0.3249,0.4048,0.6881,0.2834,A
204,0.50179,1.2,2,0.22581,0.36798,0.80287,204,2.56751,0.342,0.16726,0.66906,5,2D1U,2.0,True,0.181,13,True,right,0.08363,1.7373,2.3122,0.575,0.0958,0.8539,0.7581,A
205,0.50179,1.2,2,0.20908,0.29271,0.61051,205,2.26642,0.306,0.15054,0.65233,5,2D1U,1.0,False,0.107,14,True,left,-0.2509,1.3691,1.9268,0.5577,0.2525,0.6771,0.4246,A
206,0.50179,0.1,1,0.43489,0.37634,0.55197,206,2.20788,-0.306,-0.15054,0.34289,5,2U1D,1.0,False,0.236,25,False,left,0.08363,0.4145,0.7897,0.3752,1.2812,1.898,0.6168,A
207,0.50179,0.1,2,0.24253,0.32616,0.89486,207,2.6344,0.342,0.16726,0.66906,5,2D1U,2.0,True,0.112,15,True,right,-0.2509,1.5435,2.1935,0.65,0.3513,0.6351,0.2838,A
208,0.50179,1.2,1,0.28435,0.24253,0.50179,208,1.85662,-0.342,-0.16726,0.32616,5,2U1D,1.0,False,1.332,26,True,left,0.08363,0.1958,0.6957,0.4999,1.0709,1.829,0.758,A
209,0.50179,1.2,1,0.26762,0.40143,0.6356,209,2.11588,-0.378,-0.19235,0.30944,5,2U1D,1.0,False,0.313,26,False,left,-0.2509,0.1844,0.6676,0.4831,1.3425,1.7675,0.425,A
210,0.50179,0.1,2,0.39307,0.27599,0.58542,210,2.42533,0.342,0.16726,0.66906,5,2D1U,2.0,True,0.596,15,True,right,0.08363,1.5481,2.1988,0.6507,0.332,0.948,0.616,A
211,0.50179,0.1,2,0.44325,0.41816,0.61888,211,2.63441,0.306,0.15054,0.65233,5,2D1U,2.0,True,0.111,16,True,right,-0.2509,1.4642,2.0976,0.6333,0.5478,0.8309,0.2831,A
212,0.50179,1.2,2,0.4098,0.37634,0.7276,212,2.66786,0.306,0.15054,0.65233,5,2D1U,2.0,True,0.215,16,True,right,0.08363,1.8477,2.4063,0.5586,0.2811,1.0394,0.7584,A
213,0.50179,1.2,1,0.23417,0.35962,0.58542,213,2.3166,0.27,0.13381,0.6356,5,2D1U,2.0,False,0.305,16,False,right,-0.2509,0.1457,0.9539,0.8082,1.5789,2.0038,0.4248,A
214,0.50179,0.1,2,0.25926,0.30108,0.45998,214,1.81482,-0.414,-0.20908,0.29271,5,2U1D,1.0,True,0.183,26,False,left,0.08363,1.2881,1.563,0.2749,0.1966,0.8133,0.6166,A
215,0.50179,0.1,2,0.29271,0.40143,0.70251,215,2.19115,-0.414,-0.20908,0.29271,5,2U1D,1.0,True,0.226,26,False,left,-0.2509,1.4036,1.6784,0.2748,0.4037,0.6869,0.2833,A
216,0.50179,1.2,2,0.44325,0.41816,0.89486,216,2.5675,-0.378,-0.19235,0.30944,5,2U1D,1.0,True,0.244,27,True,left,0.08363,2.0476,2.2643,0.2167,0.3145,1.0729,0.7584,A
217,0.50179,1.2,2,0.36798,0.39307,0.81959,217,2.73476,0.306,0.15054,0.65233,5,2D1U,2.0,True,0.205,17,True,right,-0.2509,1.7315,2.2893,0.5578,0.4065,0.8316,0.425,A
218,0.50179,0.1,2,0.35125,0.3178,0.78614,218,2.60931,0.306,0.15054,0.65233,5,2D1U,1.0,False,0.276,17,True,left,0.08363,1.7108,2.3438,0.633,0.294,0.9106,0.6166,A
219,0.50179,0.1,1,0.20072,0.41816,0.45161,219,1.88172,-0.378,-0.19235,0.30944,5,2U1D,1.0,False,0.158,27,True,left,-0.2509,0.1862,0.5279,0.3418,1.0861,1.3695,0.2833,A
220,0.50179,1.2,2,0.27599,0.30944,0.8865,220,2.26643,-0.414,-0.20908,0.29271,5,2U1D,1.0,True,0.21,28,True,left,0.08363,1.8746,2.0746,0.2,0.1495,0.9078,0.7582,A
221,0.50179,1.2,2,0.32616,0.30944,0.61051,221,2.41696,0.342,0.16726,0.66906,5,2D1U,1.0,False,0.2,17,False,left,-0.2509,1.4815,2.0561,0.5746,0.3641,0.7895,0.4255,A
222,0.50179,0.1,2,0.33453,0.24253,0.8865,222,2.25806,-0.414,-0.20908,0.29271,5,2U1D,1.0,True,0.202,28,True,left,0.08363,1.7925,2.0676,0.2752,0.2759,0.8926,0.6167,A
223,0.50179,0.1,2,0.41816,0.20072,0.77778,223,2.58423,0.378,0.19235,0.68578,5,2D1U,1.0,False,0.627,17,False,left,-0.2509,1.5972,2.2636,0.6665,0.522,0.8051,0.2831,A
224,0.50179,1.2,1,0.38471,0.42652,0.83632,224,2.45878,-0.378,-0.19235,0.30944,5,2U1D,2.0,True,0.245,29,True,right,0.08363,0.302,0.7847,0.4828,1.4932,2.2513,0.7581,A
225,0.50179,1.2,2,0.25926,0.26762,0.55197,225,2.29151,0.414,0.20908,0.71087,5,2D1U,2.0,True,0.197,17,False,right,-0.2509,1.3569,1.9737,0.6168,0.2985,0.7237,0.4252,A
226,0.50179,0.1,1,0.33453,0.26762,0.75269,226,2.5675,0.414,0.20908,0.71087,5,2D1U,1.0,True,0.347,17,False,left,0.08363,0.313,1.0547,0.7417,1.746,2.363,0.617,A
227,0.50179,0.1,1,0.41816,0.21744,0.53524,227,2.35841,0.378,0.19235,0.68578,5,2D1U,1.0,True,0.205,18,True,left,-0.2509,0.4008,1.1181,0.7174,1.7597,2.0431,0.2834,A
228,0.50179,1.2,2,0.4098,0.27599,0.81123,228,2.68459,0.378,0.19235,0.68578,5,2D1U,2.0,True,0.197,18,True,right,0.08363,1.9347,2.5264,0.5917,0.2849,1.0429,0.7581,A
229,0.50179,1.2,2,0.20072,0.39307,0.4098,229,1.81482,-0.378,-0.19235,0.30944,5,2U1D,1.0,True,0.167,29,True,left,-0.2509,1.1556,1.3724,0.2168,0.239,0.6639,0.4249,A
230,0.50179,0.1,1,0.42652,0.23417,0.45161,230,2.28315,0.342,0.16726,0.66906,5,2D1U,1.0,True,0.111,18,False,left,0.08363,0.404,1.1038,0.6998,1.4955,2.1116,0.6161,A
231,0.50179,0.1,1,0.20908,0.21744,0.58542,231,2.18279,0.342,0.16726,0.66906,5,2D1U,1.0,True,0.367,18,False,left,-0.2509,0.1881,0.8881,0.7,1.5791,1.8631,0.284,A
232,0.50179,1.2,2,0.24253,0.40143,0.62724,232,2.09915,-0.342,-0.16726,0.32616,5,2U1D,1.0,True,0.254,29,False,left,0.08363,1.5808,1.8138,0.233,0.1143,0.8726,0.7584,A
233,0.50179,1.2,1,0.40143,0.43489,0.40143,233,2.0657,-0.342,-0.16726,0.32616,5,2U1D,1.0,False,0.272,29,False,left,-0.2509,0.3146,0.8135,0.4989,1.2556,1.6807,0.425,A
234,0.50179,0.1,2,0.34289,0.27599,0.44325,234,2.21625,0.306,0.15054,0.65233,5,2D1U,1.0,False,0.115,18,False,left,0.08363,1.3581,1.9914,0.6333,0.2827,0.9004,0.6177,A
235,0.50179,0.1,2,0.43489,0.20908,0.41816,235,2.23298,0.342,0.16726,0.66906,5,2D1U,1.0,False,0.231,19,True,left,-0.2509,1.2599,1.9099,0.65,0.5431,0.8266,0.2834,A
236,0.50179,1.2,2,0.30108,0.41816,0.48507,236,2.01554,-0.378,-0.19235,0.30944,5,2U1D,1.0,True,0.182,30,True,left,0.08363,1.498,1.7146,0.2165,0.1731,0.9313,0.7582,A
237,0.50179,1.2,1,0.26762,0.39307,0.58542,237,2.05734,-0.378,-0.19235,0.30944,5,2U1D,1.0,False,0.265,30,True,left,-0.2509,0.1805,0.6639,0.4834,1.2889,1.7139,0.425,A
238,0.50179,0.1,2,0.3178,0.42652,0.4767,238,2.40859,0.378,0.19235,0.68578,5,2D1U,1.0,False,0.254,19,False,left,0.08363,1.3641,2.0306,0.6665,0.2559,0.8723,0.6165,A
239,0.50179,0.1,1,0.3178,0.30944,0.76105,239,2.60095,0.414,0.20908,0.71087,5,2D1U,1.0,True,0.274,19,False,left,-0.2509,0.2963,1.0383,0.742,1.9048,2.1881,0.2833,A
240,0.50179,1.2,2,0.32616,0.42652,0.65233,240,2.19951,-0.414,-0.20908,0.29271,5,2U1D,1.0,True,0.193,30,False,left,0.08363,1.6898,1.8899,0.2001,0.198,0.9565,0.7585,A
241,0.50179,1.2,2,0.33453,0.40143,0.7276,241,2.67622,0.414,0.20908,0.71087,5,2D1U,2.0,True,0.237,19,False,right,-0.2509,1.6042,2.2215,0.6172,0.3716,0.7964,0.4248,A
242,0.50179,0.1,2,0.30108,0.34289,0.71087,242,2.54241,0.378,0.19235,0.68578,5,2D1U,2.0,True,0.212,20,True,right,0.08363,1.579,2.2458,0.6668,0.2376,0.8543,0.6167,A
243,0.50179,0.1,2,0.37634,0.37634,0.44325,243,1.99043,-0.414,-0.20908,0.29271,5,2U1D,1.0,True,0.112,30,False,left,-0.2509,1.2229,1.4977,0.2748,0.4812,0.7648,0.2836,A
244,0.50179,1.2,1,0.41816,0.41816,0.73596,244,2.75985,0.378,0.19235,0.68578,5,2D1U,2.0,False,0.3,20,True,right,0.08363,0.3321,1.1901,0.858,1.7988,2.5571,0.7582,A
245,0.50179,1.2,1,0.30108,0.27599,0.61888,245,2.40861,0.414,0.20908,0.71087,5,2D1U,1.0,True,0.287,21,True,left,-0.2509,0.2153,1.0987,0.8833,1.7566,2.182,0.4255,A
246,0.50179,0.1,1,0.36798,0.2509,0.68578,246,2.51732,0.414,0.20908,0.71087,5,2D1U,1.0,True,0.247,21,True,left,0.08363,0.3483,1.089,0.7406,1.7144,2.331,0.6166,A
247,0.50179,0.1,1,0.23417,0.38471,0.8865,247,2.31661,-0.378,-0.19235,0.30944,5,2U1D,2.0,True,0.238,31,True,right,-0.2509,0.2175,0.5602,0.3426,1.5514,1.835,0.2836,A
248,0.50179,1.2,2,0.35962,0.21744,0.66906,248,2.43369,0.378,0.19235,0.68578,5,2D1U,2.0,True,0.292,22,True,right,0.08363,1.7394,2.331,0.5916,0.2309,0.9892,0.7583,A
249,0.50179,1.2,1,0.28435,0.4098,0.7276,249,2.23298,-0.378,-0.19235,0.30944,5,2U1D,2.0,True,0.148,31,True,right,-0.2509,0.2014,0.685,0.4836,1.4514,1.8764,0.425,A
250,0.50179,0.1,1,0.35125,0.4098,0.67742,250,2.26642,-0.342,-0.16726,0.32616,5,2U1D,2.0,True,0.114,31,False,right,0.08363,0.3314,0.6899,0.3585,1.3065,1.9232,0.6167,A
251,0.50179,0.1,1,0.25926,0.3178,0.83632,251,2.60095,0.378,0.19235,0.68578,5,2D1U,1.0,True,0.292,22,True,left,-0.2509,0.2408,0.958,0.7172,1.8991,2.183,0.2839,A
252,0.50179,1.2,1,0.35125,0.34289,0.66906,252,2.19115,-0.342,-0.16726,0.32616,5,2U1D,2.0,True,0.256,31,False,right,0.08363,0.2697,0.7702,0.5005,1.3112,2.0701,0.7589,A
253,0.50179,1.2,1,0.22581,0.43489,0.55197,253,2.05735,-0.306,-0.15054,0.34289,5,2U1D,2.0,True,0.175,31,False,right,-0.2509,0.1401,0.6577,0.5176,1.2491,1.6735,0.4244,A
254,0.50179,0.1,2,0.3178,0.30944,0.71087,254,2.18279,-0.306,-0.15054,0.34289,5,2U1D,1.0,True,0.245,31,False,left,0.08363,1.5979,1.9224,0.3245,0.2559,0.8729,0.617,A
255,0.50179,0.1,1,0.20908,0.37634,0.7945,255,2.55077,0.342,0.16726,0.66906,5,2D1U,1.0,True,0.146,22,False,left,-0.2509,0.1897,0.8899,0.7002,1.79,2.0732,0.2833,A
256,0.50179,1.2,2,0.24253,0.37634,0.66906,256,2.45878,0.342,0.16726,0.66906,5,2D1U,2.0,True,0.249,22,False,right,0.08363,1.6236,2.1988,0.5752,0.1152,0.8737,0.7585,A
257,0.50179,1.2,2,0.2509,0.21744,0.59379,257,2.21625,0.306,0.15054,0.65233,5,2D1U,2.0,True,0.299,22,False,right,-0.2509,1.3893,1.9476,0.5582,0.289,0.7146,0.4256,A
258,0.50179,0.1,2,0.22581,0.4098,0.69415,258,2.19953,-0.27,-0.13381,0.36798,5,2U1D,1.0,True,0.147,31,False,left,0.08363,1.4878,1.8378,0.35,0.1628,0.7795,0.6167,A
259,0.50179,0.1,1,0.33453,0.3178,0.4767,259,2.28315,0.306,0.15054,0.65233,5,2D1U,1.0,True,0.398,22,False,left,-0.2509,0.3152,0.9983,0.6831,1.5817,1.865,0.2833,A
260,0.50179,1.2,1,0.38471,0.34289,0.45161,260,2.04898,-0.27,-0.13381,0.36798,5,2U1D,1.0,False,0.11,31,False,left,0.08363,0.2964,0.8376,0.5412,1.1624,1.9209,0.7585,A
261,0.50179,1.2,1,0.40143,0.35125,0.56033,261,2.4504,0.27,0.13381,0.6356,5,2D1U,1.0,True,0.191,22,False,left,-0.2509,0.3174,1.1263,0.8089,1.726,2.1509,0.4249,A
262,0.50179,0.1,1,0.26762,0.30108,0.55197,262,2.25806,0.27,0.13381,0.6356,5,2D1U,1.0,True,0.111,22,False,left,0.08363,0.2513,0.9186,0.6672,1.41,2.0267,0.6167,A
263,0.50179,0.1,2,0.2509,0.20072,0.51016,263,2.08245,0.234,0.11708,0.61888,5,2D1U,2.0,True,0.215,22,False,right,-0.2509,1.1685,1.7685,0.6,0.3601,0.6435,0.2834,A
264,0.50179,1.2,1,0.32616,0.27599,0.85305,264,2.57587,0.234,0.11708,0.61888,5,2D1U,1.0,True,0.248,22,False,left,0.08363,0.2447,1.0363,0.7916,1.7612,2.519,0.7578,A
265,0.50179,1.2,2,0.38471,0.39307,0.57706,265,2.19952,-0.306,-0.15054,0.34289,5,2U1D,1.0,True,0.111,32,True,left,-0.2509,1.51,1.7607,0.2507,0.4276,0.8524,0.4248,A
266,0.50179,0.1,1,0.41816,0.34289,0.48507,266,2.35006,0.198,0.10036,0.60215,5,2D1U,1.0,True,0.141,22,False,left,0.08363,0.397,1.0303,0.6333,1.4553,2.0724,0.6171,A
267,0.50179,0.1,1,0.35962,0.35125,0.77778,267,2.33333,-0.306,-0.15054,0.34289,5,2U1D,1.0,False,0.409,32,True,left,-0.2509,0.3436,0.7188,0.3751,1.6018,1.885,0.2833,A
268,0.50179,1.2,2,0.24253,0.32616,0.8865,268,2.28314,-0.342,-0.16726,0.32616,5,2U1D,1.0,True,0.237,32,False,left,0.08363,1.8439,2.0773,0.2334,0.1189,0.8773,0.7583,A
269,0.50179,1.2,1,0.33453,0.40143,0.67742,269,2.51732,0.198,0.10036,0.60215,5,2D1U,1.0,True,0.415,22,False,left,-0.2509,0.2477,1.0226,0.7749,1.7394,2.1644,0.425,A
270,0.50179,0.1,2,0.36798,0.3178,0.89486,270,2.40859,-0.342,-0.16726,0.32616,5,2U1D,1.0,True,0.225,32,False,left,0.08363,1.836,2.1437,0.3078,0.3102,0.9276,0.6174,A
271,0.50179,0.1,1,0.35962,0.40143,0.56033,271,2.40023,0.162,0.08363,0.57706,5,2D1U,1.0,True,0.112,22,False,left,-0.2509,0.3438,0.9515,0.6078,1.6182,1.9021,0.2838,A
272,0.50179,1.2,1,0.35962,0.4098,0.51852,272,2.36679,0.162,0.08363,0.57706,5,2D1U,1.0,True,0.2,22,False,left,0.08363,0.2705,1.0204,0.7498,1.4121,2.1703,0.7582,A
273,0.50179,1.2,2,0.22581,0.44325,0.81959,273,2.55077,0.126,0.06691,0.56033,5,2D1U,1.0,False,0.293,22,False,left,-0.2509,1.5941,2.0603,0.4662,0.2688,0.6943,0.4255,A
274,0.50179,0.1,1,0.39307,0.45161,0.5687,274,2.25806,-0.306,-0.15054,0.34289,5,2U1D,1.0,False,0.188,33,True,left,0.08363,0.3719,0.7471,0.3752,1.2552,1.8718,0.6166,A
275,0.50179,0.1,2,0.35962,0.40143,0.57706,275,2.16606,-0.342,-0.16726,0.32616,5,2U1D,1.0,True,0.239,34,True,left,-0.2509,1.3373,1.6458,0.3085,0.4627,0.7459,0.2832,A
276,0.50179,1.2,1,0.25926,0.30944,0.89486,276,2.54241,0.162,0.08363,0.57706,5,2D1U,2.0,False,0.317,23,True,right,0.08363,0.1779,0.9283,0.7503,1.6942,2.4525,0.7582,A
277,0.50179,1.2,2,0.30108,0.43489,0.45161,277,2.01553,-0.342,-0.16726,0.32616,5,2U1D,1.0,True,0.113,34,True,left,-0.2509,1.299,1.5324,0.2334,0.3397,0.7654,0.4258,A
278,0.50179,0.1,1,0.38471,0.41816,0.8865,278,2.53405,-0.306,-0.15054,0.34289,5,2U1D,2.0,True,0.227,35,True,right,0.08363,0.3677,0.7428,0.375,1.5678,2.1845,0.6167,A
279,0.50179,0.1,2,0.30108,0.32616,0.66069,279,2.13261,-0.306,-0.15054,0.34289,5,2U1D,1.0,True,0.184,35,True,left,-0.2509,1.3645,1.6904,0.3258,0.4071,0.69,0.2829,A
280,0.50179,1.2,1,0.35962,0.21744,0.59379,280,2.27479,0.198,0.10036,0.60215,5,2D1U,1.0,True,0.346,23,False,left,0.08363,0.273,1.0483,0.7753,1.5147,2.2733,0.7586,A
281,0.50179,1.2,1,0.35125,0.30944,0.43489,281,1.96535,-0.27,-0.13381,0.36798,5,2U1D,1.0,False,0.225,35,False,left,-0.2509,0.2691,0.8107,0.5417,1.2862,1.7108,0.4246,A
282,0.50179,0.1,2,0.37634,0.22581,0.44325,282,2.14934,0.198,0.10036,0.60215,5,2D1U,2.0,True,0.243,23,False,right,0.08363,1.3905,1.9732,0.5826,0.315,0.9325,0.6175,A
283,0.50179,0.1,1,0.2509,0.28435,0.75269,283,2.13262,-0.306,-0.15054,0.34289,5,2U1D,2.0,True,0.117,36,True,right,-0.2509,0.2321,0.6071,0.3749,1.4656,1.7489,0.2833,A
284,0.50179,1.2,2,0.39307,0.42652,0.46834,284,2.13261,-0.306,-0.15054,0.34289,5,2U1D,1.0,True,0.125,36,True,left,0.08363,1.5781,1.8281,0.25,0.2697,1.0282,0.7585,A
285,0.50179,1.2,2,0.37634,0.29271,0.5687,285,2.10752,-0.27,-0.13381,0.36798,5,2U1D,1.0,True,0.216,37,True,left,-0.2509,1.4887,1.7628,0.2741,0.413,0.8382,0.4252,A
286,0.50179,0.1,1,0.43489,0.21744,0.82796,286,2.55914,0.162,0.08363,0.57706,5,2D1U,2.0,False,0.267,24,True,right,0.08363,0.4158,1.0239,0.6081,1.7903,2.4075,0.6172,A
287,0.50179,0.1,2,0.35962,0.44325,0.41816,287,2.0908,-0.27,-0.13381,0.36798,5,2U1D,1.0,True,0.222,37,True,left,-0.2509,1.1867,1.537,0.3503,0.47,0.7535,0.2835,A
288,0.50179,1.2,2,0.22581,0.39307,0.48507,288,2.20789,0.198,0.10036,0.60215,5,2D1U,1.0,False,0.268,25,True,left,0.08363,1.4262,1.9346,0.5084,0.1013,0.8597,0.7583,A
289,0.50179,1.2,1,0.22581,0.45161,0.66069,289,2.45878,0.234,0.11708,0.61888,5,2D1U,1.0,True,0.179,25,False,left,-0.2509,0.1433,0.9356,0.7923,1.6348,2.0598,0.4249,A
290,0.50179,0.1,1,0.24253,0.35125,0.57706,290,2.29151,0.234,0.11708,0.61888,5,2D1U,1.0,True,0.245,25,False,left,0.08363,0.2275,0.8772,0.6497,1.394,2.0104,0.6164,A
291,0.50179,0.1,1,0.38471,0.37634,0.5687,291,2.21625,-0.234,-0.11708,0.38471,5,2U1D,2.0,True,0.112,37,False,right,-0.2509,0.3696,0.786,0.4164,1.4606,1.7444,0.2839,A
292,0.50179,1.2,2,0.29271,0.2509,0.45161,292,2.09916,0.198,0.10036,0.60215,5,2D1U,1.0,False,0.308,26,True,left,0.08363,1.455,1.9625,0.5075,0.1634,0.9221,0.7588,A
293,0.50179,1.2,1,0.20908,0.32616,0.86141,293,2.51732,0.234,0.11708,0.61888,5,2D1U,1.0,True,0.295,27,True,left,-0.2509,0.1263,0.918,0.7918,1.8179,2.2423,0.4244,A
294,0.50179,0.1,1,0.23417,0.34289,0.58542,294,2.04898,-0.234,-0.11708,0.38471,5,2U1D,1.0,False,0.111,37,False,left,0.08363,0.2122,0.6293,0.4171,1.1543,1.771,0.6167,A
295,0.50179,0.1,1,0.35962,0.33453,0.66069,295,2.22461,-0.27,-0.13381,0.36798,5,2U1D,1.0,False,0.155,38,True,left,-0.2509,0.3384,0.7385,0.4001,1.5051,1.7887,0.2837,A
296,0.50179,1.2,1,0.3178,0.32616,0.55197,296,2.04061,-0.306,-0.15054,0.34289,5,2U1D,1.0,False,0.248,38,False,left,0.08363,0.2346,0.7513,0.5167,1.1762,1.9346,0.7584,A
297,0.50179,1.2,1,0.40143,0.35125,0.6356,297,2.50895,0.234,0.11708,0.61888,5,2D1U,1.0,True,0.192,27,True,left,-0.2509,0.318,1.1099,0.7919,1.7849,2.2098,0.425,A
298,0.50179,0.1,2,0.33453,0.29271,0.44325,298,2.17443,0.198,0.10036,0.60215,5,2D1U,1.0,False,0.175,28,True,left,0.08363,1.348,1.9308,0.5827,0.273,0.8897,0.6167,A
299,0.50179,0.1,2,0.30944,0.24253,0.75269,299,2.42533,0.234,0.11708,0.61888,5,2D1U,1.0,False,0.221,29,True,left,-0.2509,1.4701,2.0701,0.6,0.4199,0.7033,0.2834,A
300,0.50179,1.2,1,0.32616,0.38471,0.82796,300,2.36678,-0.342,-0.16726,0.32616,5,2U1D,2.0,True,0.275,38,False,right,0.08363,0.2406,0.7408,0.5002,1.4407,2.1994,0.7587,A
301,0.50179,1.2,1,0.30944,0.21744,0.62724,301,1.98207,-0.342,-0.16726,0.32616,5,2U1D,1.0,False,0.466,38,False,left,-0.2509,0.2221,0.7221,0.5,1.3888,1.8142,0.4253,A
302,0.50179,0.1,1,0.27599,0.23417,0.86977,302,2.19116,-0.378,-0.19235,0.30944,5,2U1D,2.0,True,0.304,38,False,right,0.08363,0.2585,0.5998,0.3412,1.4085,2.0253,0.6169,A
303,0.50179,0.1,1,0.28435,0.39307,0.46834,303,1.95699,-0.378,-0.19235,0.30944,5,2U1D,2.0,True,0.111,38,False,right,-0.2509,0.2652,0.6068,0.3416,1.1818,1.4652,0.2834,A
304,0.50179,1.2,2,0.44325,0.34289,0.66906,304,2.59259,0.27,0.13381,0.6356,5,2D1U,1.0,False,0.224,29,False,left,0.08363,1.8225,2.3638,0.5413,0.314,1.0727,0.7587,A
305,0.50179,1.2,1,0.35125,0.30108,0.68578,305,2.49223,0.306,0.15054,0.65233,5,2D1U,1.0,True,0.217,29,False,left,-0.2509,0.2688,1.0933,0.8245,1.8193,2.244,0.4247,A
306,0.50179,0.1,2,0.41816,0.25926,0.56033,306,2.0657,-0.342,-0.16726,0.32616,5,2U1D,1.0,True,0.324,39,True,left,0.08363,1.5483,1.8559,0.3076,0.3567,0.9726,0.6159,A
307,0.50179,0.1,2,0.23417,0.20908,0.75269,307,2.35006,0.306,0.15054,0.65233,5,2D1U,1.0,False,0.126,29,False,left,-0.2509,1.3902,2.0233,0.6331,0.34,0.6232,0.2832,A
308,0.50179,1.2,1,0.28435,0.37634,0.56033,308,2.39187,0.342,0.16726,0.66906,5,2D1U,1.0,True,0.221,29,False,left,0.08363,0.1975,1.0383,0.8408,1.4716,2.2299,0.7583,A
309,0.50179,1.2,2,0.44325,0.30108,0.4767,309,2.04898,-0.342,-0.16726,0.32616,5,2U1D,1.0,True,0.192,39,True,left,-0.2509,1.465,1.6984,0.2334,0.4814,0.9066,0.4252,A
310,0.50179,0.1,2,0.29271,0.3178,0.51852,310,1.97371,-0.306,-0.15054,0.34289,5,2U1D,1.0,True,0.224,39,False,left,0.08363,1.3833,1.7088,0.3254,0.2333,0.8504,0.6171,A
311,0.50179,0.1,1,0.34289,0.2509,0.86141,311,2.29988,-0.306,-0.15054,0.34289,5,2U1D,1.0,False,0.159,39,False,left,-0.2509,0.3223,0.6973,0.375,1.664,1.9473,0.2834,A
312,0.50179,1.2,2,0.27599,0.30944,0.71087,312,2.12425,-0.342,-0.16726,0.32616,5,2U1D,1.0,True,0.266,40,True,left,0.08363,1.6977,1.9312,0.2335,0.1483,0.9067,0.7584,A
313,0.50179,1.2,2,0.35125,0.37634,0.44325,313,2.34169,0.342,0.16726,0.66906,5,2D1U,1.0,False,0.187,29,False,left,-0.2509,1.3394,1.9139,0.5745,0.389,0.8139,0.4249,A
314,0.50179,0.1,2,0.32616,0.43489,0.62724,314,2.21624,-0.342,-0.16726,0.32616,5,2U1D,1.0,True,0.122,40,True,left,0.08363,1.5229,1.8318,0.3089,0.2647,0.8812,0.6165,A
315,0.50179,0.1,2,0.35125,0.30944,0.77778,315,2.62604,0.378,0.19235,0.68578,5,2D1U,1.0,False,0.109,29,False,left,-0.2509,1.5348,2.2015,0.6667,0.4593,0.7431,0.2838,A
316,0.50179,1.2,2,0.33453,0.26762,0.54361,316,2.35842,0.414,0.20908,0.71087,5,2D1U,2.0,True,0.293,29,False,right,0.08363,1.589,2.2056,0.6166,0.2057,0.9637,0.7581,A
317,0.50179,1.2,1,0.30108,0.33453,0.73596,317,2.58423,0.414,0.20908,0.71087,5,2D1U,1.0,True,0.222,29,False,left,-0.2509,0.2141,1.0974,0.8833,1.8719,2.2974,0.4255,A
318,0.50179,0.1,2,0.21744,0.2509,0.70251,318,2.01553,-0.306,-0.15054,0.34289,5,2U1D,1.0,True,0.253,41,True,left,0.08363,1.4882,1.8139,0.3257,0.1555,0.7722,0.6167,A
319,0.50179,0.1,1,0.29271,0.23417,0.45161,319,1.82317,-0.306,-0.15054,0.34289,5,2U1D,2.0,True,0.229,41,True,right,-0.2509,0.2736,0.6487,0.3752,1.2073,1.4909,0.2836,A
320,0.50179,1.2,2,0.36798,0.4098,0.7276,320,2.69295,0.378,0.19235,0.68578,5,2D1U,2.0,True,0.197,30,True,right,0.08363,1.8099,2.4022,0.5924,0.2431,1.0016,0.7584,A
321,0.50179,1.2,2,0.33453,0.27599,0.42652,321,1.90681,-0.27,-0.13381,0.36798,5,2U1D,1.0,True,0.189,41,False,left,-0.2509,1.3056,1.5806,0.2751,0.3723,0.7974,0.425,A
322,0.50179,0.1,2,0.25926,0.25926,0.84468,322,2.55077,0.378,0.19235,0.68578,5,2D1U,2.0,True,0.243,30,True,right,0.08363,1.6756,2.3424,0.6668,0.2009,0.8176,0.6167,A
323,0.50179,0.1,1,0.37634,0.4098,0.44325,323,2.40024,0.342,0.16726,0.66906,5,2D1U,1.0,True,0.924,30,False,left,-0.2509,0.355,1.0551,0.7001,1.6052,1.8883,0.2831,A
324,0.50179,1.2,2,0.3178,0.36798,0.46834,324,2.02389,-0.27,-0.13381,0.36798,5,2U1D,1.0,True,0.113,41,False,left,0.08363,1.4975,1.7727,0.2752,0.1888,0.9476,0.7588,A
325,0.50179,1.2,2,0.20908,0.30944,0.81123,325,2.5006,0.342,0.16726,0.66906,5,2D1U,2.0,True,0.201,30,False,right,-0.2509,1.5651,2.1402,0.5751,0.2485,0.6736,0.4251,A
326,0.50179,0.1,2,0.25926,0.32616,0.76105,326,2.23297,-0.234,-0.11708,0.38471,5,2U1D,1.0,True,0.196,41,False,left,0.08363,1.5947,1.9616,0.3669,0.2018,0.8196,0.6178,A
327,0.50179,0.1,1,0.20072,0.44325,0.84468,327,2.37515,-0.234,-0.11708,0.38471,5,2U1D,1.0,False,0.12,41,False,left,-0.2509,0.1808,0.5976,0.4168,1.5474,1.8308,0.2834,A
328,0.50179,1.2,1,0.25926,0.30944,0.58542,328,2.30824,0.306,0.15054,0.65233,5,2D1U,1.0,True,0.317,30,False,left,0.08363,0.1744,0.9993,0.8249,1.4578,2.2162,0.7583,A
329,0.50179,1.2,2,0.28435,0.30944,0.69415,329,2.15771,-0.27,-0.13381,0.36798,5,2U1D,1.0,True,0.252,42,True,left,-0.2509,1.5244,1.7993,0.2749,0.3244,0.7494,0.4249,A
330,0.50179,0.1,2,0.29271,0.29271,0.73596,330,2.19115,-0.27,-0.13381,0.36798,5,2U1D,1.0,True,0.251,42,True,left,0.08363,1.6032,1.9532,0.3499,0.2366,0.8534,0.6168,A
331,0.50179,0.1,2,0.21744,0.34289,0.73596,331,2.45041,0.306,0.15054,0.65233,5,2D1U,2.0,True,0.214,30,False,right,-0.2509,1.3563,1.9897,0.6334,0.3237,0.6067,0.283,A
332,0.50179,1.2,1,0.35125,0.22581,0.5687,332,2.03226,-0.234,-0.11708,0.38471,5,2U1D,1.0,False,0.284,43,True,left,0.08363,0.2675,0.8266,0.5591,1.2685,2.0264,0.7579,A
333,0.50179,1.2,1,0.35962,0.22581,0.66906,333,2.39188,0.27,0.13381,0.6356,5,2D1U,1.0,True,0.273,30,False,left,-0.2509,0.278,1.0864,0.8084,1.7948,2.2198,0.425,A
334,0.50179,0.1,2,0.20908,0.21744,0.57706,334,1.87335,-0.27,-0.13381,0.36798,5,2U1D,1.0,True,0.285,44,True,left,0.08363,1.3602,1.7104,0.3502,0.1513,0.7686,0.6174,A
335,0.50179,0.1,2,0.2509,0.20908,0.64397,335,1.97372,-0.27,-0.13381,0.36798,5,2U1D,1.0,True,0.214,44,True,left,-0.2509,1.3024,1.6518,0.3494,0.3611,0.6444,0.2832,A
336,0.50179,1.2,2,0.42652,0.35125,0.48507,336,2.40023,0.27,0.13381,0.6356,5,2D1U,2.0,True,0.217,30,False,right,0.08363,1.6216,2.1632,0.5417,0.2967,1.0548,0.7581,A
337,0.50179,1.2,2,0.26762,0.34289,0.87814,337,2.37515,-0.234,-0.11708,0.38471,5,2U1D,1.0,True,0.201,45,True,left,-0.2509,1.6874,1.9789,0.2916,0.3041,0.7288,0.4247,A
338,0.50179,0.1,1,0.41816,0.35962,0.55197,338,2.45042,0.234,0.11708,0.61888,5,2D1U,1.0,True,0.113,30,False,left,0.08363,0.3984,1.0484,0.6501,1.5404,2.1569,0.6165,A
339,0.50179,0.1,1,0.29271,0.22581,0.56033,339,2.19952,0.234,0.11708,0.61888,5,2D1U,1.0,True,0.246,30,False,left,-0.2509,0.2713,0.9211,0.6499,1.5879,1.8709,0.2831,A
340,0.50179,1.2,1,0.29271,0.39307,0.56033,340,2.13261,-0.234,-0.11708,0.38471,5,2U1D,1.0,False,0.192,45,True,left,0.08363,0.2062,0.7646,0.5583,1.1986,1.957,0.7585,A
341,0.50179,1.2,1,0.41816,0.33453,0.5687,341,2.42533,0.198,0.10036,0.60215,5,2D1U,2.0,False,0.272,30,False,right,-0.2509,0.3336,1.1087,0.7751,1.7168,2.1418,0.425,A
342,0.50179,0.1,1,0.37634,0.41816,0.71924,342,2.63441,0.234,0.11708,0.61888,5,2D1U,2.0,False,0.239,31,True,right,0.08363,0.3542,1.0042,0.6501,1.6626,2.2792,0.6167,A
343,0.50179,0.1,1,0.32616,0.4098,0.69415,343,2.29988,-0.27,-0.13381,0.36798,5,2U1D,2.0,True,0.256,46,True,right,-0.2509,0.3103,0.71,0.3997,1.5103,1.7933,0.2829,A
344,0.50179,1.2,2,0.4098,0.37634,0.65233,344,2.30824,-0.27,-0.13381,0.36798,5,2U1D,1.0,True,0.948,46,True,left,0.08363,1.7719,2.0463,0.2744,0.2801,1.0378,0.7577,A
345,0.50179,1.2,2,0.33453,0.30108,0.86141,345,2.38352,-0.234,-0.11708,0.38471,5,2U1D,1.0,True,0.248,47,True,left,-0.2509,1.7386,2.0305,0.2919,0.3719,0.7963,0.4244,A
346,0.50179,0.1,1,0.20072,0.29271,0.70251,346,2.33333,0.27,0.13381,0.6356,5,2D1U,1.0,True,0.194,31,False,left,0.08363,0.1855,0.852,0.6665,1.4944,2.1105,0.6161,A
347,0.50179,0.1,1,0.2509,0.28435,0.52688,347,1.94863,-0.234,-0.11708,0.38471,5,2U1D,1.0,False,0.136,47,True,left,-0.2509,0.2352,0.6518,0.4166,1.2843,1.5683,0.284,A
348,0.50179,1.2,2,0.45161,0.28435,0.78614,348,2.65949,0.27,0.13381,0.6356,5,2D1U,2.0,True,0.289,31,False,right,0.08363,1.9474,2.4888,0.5413,0.3226,1.0808,0.7583,A
349,0.50179,1.2,1,0.36798,0.27599,0.89486,349,2.4086,-0.27,-0.13381,0.36798,5,2U1D,2.0,True,0.235,48,True,right,-0.2509,0.2845,0.8263,0.5418,1.7596,2.1845,0.4249,A
350,0.50179,0.1,2,0.26762,0.30944,0.62724,350,2.32497,0.234,0.11708,0.61888,5,2D1U,2.0,True,0.179,32,True,right,0.08363,1.4626,2.0618,0.5993,0.2046,0.8207,0.6162,A
351,0.50179,0.1,1,0.22581,0.41816,0.73596,351,2.5006,0.234,0.11708,0.61888,5,2D1U,1.0,True,0.199,32,True,left,-0.2509,0.2068,0.8568,0.65,1.698,1.9819,0.284,A
352,0.50179,1.2,1,0.24253,0.4098,0.55197,352,2.07407,-0.27,-0.13381,0.36798,5,2U1D,1.0,False,0.351,48,True,left,0.08363,0.1554,0.6965,0.5411,1.1217,1.8802,0.7586,A
353,0.50179,1.2,1,0.25926,0.36798,0.4098,353,1.88172,-0.306,-0.15054,0.34289,5,2U1D,1.0,False,0.201,48,False,left,-0.2509,0.1728,0.6888,0.516,1.1389,1.5644,0.4255,A
354,0.50179,0.1,2,0.32616,0.3178,0.5687,354,2.3166,0.198,0.10036,0.60215,5,2D1U,1.0,False,0.486,32,False,left,0.08363,1.4699,2.0537,0.5839,0.27,0.8866,0.6166,A
355,0.50179,0.1,1,0.21744,0.4098,0.56033,355,2.01552,-0.342,-0.16726,0.32616,5,2U1D,2.0,True,0.113,48,False,right,-0.2509,0.2002,0.5591,0.3589,1.2259,1.5088,0.2829,A
356,0.50179,1.2,2,0.39307,0.40143,0.78614,356,2.70131,0.234,0.11708,0.61888,5,2D1U,2.0,True,0.226,33,True,right,0.08363,1.8947,2.4192,0.5246,0.2689,1.0274,0.7585,A
357,0.50179,1.2,1,0.32616,0.36798,0.45161,357,1.9737,-0.342,-0.16726,0.32616,5,2U1D,2.0,True,0.15,48,False,right,-0.2509,0.2373,0.7376,0.5004,1.2302,1.6538,0.4236,A
358,0.50179,0.1,2,0.30108,0.25926,0.86977,358,2.27479,-0.306,-0.15054,0.34289,5,2U1D,1.0,True,0.239,49,True,left,0.08363,1.7392,2.0643,0.3251,0.2386,0.8554,0.6168,A
359,0.50179,0.1,1,0.34289,0.20908,0.4767,359,2.14934,0.234,0.11708,0.61888,5,2D1U,1.0,True,0.222,33,True,left,-0.2509,0.328,0.9781,0.6501,1.5616,1.8447,0.2832,A
360,0.50179,1.2,1,0.27599,0.43489,0.49343,360,2.04899,-0.306,-0.15054,0.34289,5,2U1D,1.0,False,0.109,49,True,left,0.08363,0.1898,0.7062,0.5164,1.0729,1.8315,0.7586,A
361,0.50179,1.2,2,0.34289,0.35125,0.51852,361,2.3166,0.198,0.10036,0.60215,5,2D1U,1.0,False,0.229,34,True,left,-0.2509,1.4058,1.914,0.5082,0.3806,0.8053,0.4246,A
362,0.50179,0.1,1,0.37634,0.41816,0.71924,362,2.34169,-0.342,-0.16726,0.32616,5,2U1D,1.0,False,0.482,50,True,left,0.08363,0.357,0.7156,0.3586,1.374,1.9907,0.6167,A
363,0.50179,0.1,1,0.21744,0.36798,0.77778,363,2.17443,-0.378,-0.19235,0.30944,5,2U1D,1.0,False,0.213,50,False,left,-0.2509,0.202,0.5438,0.3418,1.4273,1.7107,0.2834,A
364,0.50179,1.2,2,0.42652,0.34289,0.43489,364,2.32497,0.234,0.11708,0.61888,5,2D1U,2.0,True,0.226,35,True,right,0.08363,1.5759,2.1007,0.5248,0.3006,1.059,0.7585,A
365,0.50179,1.2,2,0.30108,0.3178,0.57706,365,1.99044,-0.414,-0.20908,0.29271,5,2U1D,1.0,True,0.226,50,False,left,-0.2509,1.4277,1.6274,0.1998,0.3444,0.7691,0.4248,A
366,0.50179,0.1,2,0.22581,0.35125,0.77778,366,2.47551,0.234,0.11708,0.61888,5,2D1U,2.0,True,0.183,35,True,right,0.08363,1.573,2.1725,0.5995,0.1648,0.7814,0.6166,A
367,0.50179,0.1,2,0.30108,0.35962,0.54361,367,1.99881,-0.414,-0.20908,0.29271,5,2U1D,1.0,True,0.208,50,False,left,-0.2509,1.251,1.5261,0.2751,0.4093,0.6927,0.2834,A
368,0.50179,1.2,2,0.4098,0.44325,0.57706,368,2.24134,-0.378,-0.19235,0.30944,5,2U1D,1.0,True,0.225,51,True,left,0.08363,1.6985,1.9154,0.2169,0.282,1.0401,0.758,A
369,0.50179,1.2,2,0.29271,0.42652,0.55197,369,2.08243,-0.378,-0.19235,0.30944,5,2U1D,1.0,True,0.124,51,True,left,-0.2509,1.3884,1.6052,0.2168,0.3302,0.7546,0.4244,A
370,0.50179,0.1,1,0.42652,0.34289,0.74432,370,2.61767,0.198,0.10036,0.60215,5,2D1U,1.0,True,0.223,36,True,left,0.08363,0.4076,1.0405,0.6329,1.7243,2.3416,0.6172,A
371,0.50179,0.1,1,0.41816,0.42652,0.70251,371,2.37514,-0.342,-0.16726,0.32616,5,2U1D,2.0,True,0.116,51,False,right,-0.2509,0.4008,0.7591,0.3583,1.5675,1.8508,0.2833,A
372,0.50179,1.2,2,0.44325,0.36798,0.41816,372,2.05734,-0.342,-0.16726,0.32616,5,2U1D,1.0,True,0.205,51,False,left,0.08363,1.577,1.8101,0.2332,0.3192,1.0773,0.7581,A
373,0.50179,1.2,2,0.29271,0.33453,0.45998,373,2.19116,0.198,0.10036,0.60215,5,2D1U,2.0,True,0.292,36,True,right,-0.2509,1.2985,1.8069,0.5083,0.3312,0.7562,0.4251,A
374,0.50179,0.1,1,0.35962,0.41816,0.62724,374,2.2497,-0.306,-0.15054,0.34289,5,2U1D,1.0,False,0.18,51,False,left,0.08363,0.3382,0.7132,0.375,1.2798,1.8966,0.6168,A
375,0.50179,0.1,1,0.23417,0.20908,0.78614,375,2.30824,0.162,0.08363,0.57706,5,2D1U,1.0,True,0.242,36,False,left,-0.2509,0.2139,0.8226,0.6087,1.7138,1.9972,0.2834,A
376,0.50179,1.2,2,0.23417,0.30944,0.89486,376,2.26642,-0.342,-0.16726,0.32616,5,2U1D,1.0,True,0.2,52,True,left,0.08363,1.838,2.072,0.234,0.1048,0.8636,0.7588,A
377,0.50179,1.2,2,0.36798,0.21744,0.7945,377,2.45877,0.162,0.08363,0.57706,5,2D1U,2.0,True,0.196,36,False,right,-0.2509,1.71,2.1932,0.4832,0.4104,0.8347,0.4243,A
378,0.50179,0.1,1,0.41816,0.35125,0.68578,378,2.51731,0.126,0.06691,0.56033,5,2D1U,1.0,True,0.11,36,False,left,0.08363,0.4013,0.993,0.5917,1.618,2.2346,0.6166,A
379,0.50179,0.1,2,0.39307,0.30944,0.64397,379,2.17443,-0.342,-0.16726,0.32616,5,2U1D,1.0,True,0.123,52,True,left,-0.2509,1.4392,1.7475,0.3083,0.4972,0.7812,0.2839,A
380,0.50179,1.2,1,0.41816,0.39307,0.51016,380,2.16607,-0.306,-0.15054,0.34289,5,2U1D,2.0,True,0.241,53,True,right,0.08363,0.3302,0.8472,0.5169,1.2303,1.9888,0.7585,A
381,0.50179,1.2,2,0.24253,0.27599,0.78614,381,2.36678,0.126,0.06691,0.56033,5,2D1U,2.0,True,0.173,36,False,right,-0.2509,1.5719,2.0385,0.4666,0.2794,0.7057,0.4262,A
382,0.50179,0.1,2,0.20072,0.37634,0.4767,382,1.89844,-0.306,-0.15054,0.34289,5,2U1D,1.0,True,0.451,53,True,left,0.08363,1.253,1.5778,0.3249,0.1447,0.7613,0.6165,A
383,0.50179,0.1,1,0.20072,0.32616,0.75269,383,2.32497,0.09,0.04182,0.54361,5,2D1U,1.0,True,0.325,36,False,left,-0.2509,0.1784,0.7534,0.5751,1.6117,1.8951,0.2834,A
384,0.50179,1.2,1,0.24253,0.30108,0.69415,384,2.10753,-0.27,-0.13381,0.36798,5,2U1D,2.0,True,0.375,53,False,right,0.08363,0.1599,0.7019,0.542,1.269,2.0268,0.7578,A
385,0.50179,1.2,2,0.40143,0.20072,0.58542,385,2.05734,-0.27,-0.13381,0.36798,5,2U1D,1.0,True,0.296,53,False,left,-0.2509,1.5359,1.8104,0.2745,0.4439,0.8687,0.4248,A
386,0.50179,0.1,2,0.23417,0.35125,0.57706,386,2.04898,-0.234,-0.11708,0.38471,5,2U1D,1.0,True,0.188,53,False,left,0.08363,1.3847,1.7506,0.366,0.176,0.7931,0.6171,A
387,0.50179,0.1,1,0.39307,0.32616,0.73596,387,2.34169,-0.234,-0.11708,0.38471,5,2U1D,2.0,True,0.154,53,False,right,-0.2509,0.3728,0.7902,0.4174,1.6317,1.9152,0.2835,A
388,0.50179,1.2,2,0.29271,0.45161,0.87814,388,2.66786,0.09,0.04182,0.54361,5,2D1U,2.0,True,0.229,36,False,right,0.08363,1.8812,2.3313,0.4501,0.1646,0.923,0.7584,A
389,0.50179,1.2,1,0.41816,0.44325,0.49343,389,2.25806,-0.198,-0.10036,0.40143,5,2U1D,1.0,False,0.155,53,False,left,-0.2509,0.3306,0.9062,0.5756,1.4391,1.8641,0.4249,A
390,0.50179,0.1,1,0.4098,0.42652,0.86977,390,2.73476,0.054,0.02509,0.52688,5,2D1U,1.0,True,0.183,36,False,left,0.08363,0.3888,0.9472,0.5584,1.7558,2.3721,0.6163,A
391,0.50179,0.1,2,0.30108,0.3178,0.50179,391,2.00717,-0.234,-0.11708,0.38471,5,2U1D,1.0,True,0.19,54,True,left,-0.2509,1.2058,1.5725,0.3667,0.4061,0.6891,0.283,A
392,0.50179,1.2,2,0.28435,0.29271,0.65233,392,2.25806,0.054,0.02509,0.52688,5,2D1U,1.0,False,0.274,36,False,left,0.08363,1.6488,2.0819,0.4331,0.1573,0.916,0.7587,A
393,0.50179,1.2,1,0.34289,0.28435,0.40143,393,1.91517,-0.234,-0.11708,0.38471,5,2U1D,1.0,False,0.218,54,True,left,-0.2509,0.2568,0.8147,0.5579,1.2564,1.6813,0.4249,A
394,0.50179,0.1,2,0.44325,0.30108,0.61051,394,2.40024,0.09,0.04182,0.54361,5,2D1U,1.0,False,0.175,37,True,left,0.08363,1.6222,2.1479,0.5257,0.3808,0.9969,0.6162,A
395,0.50179,0.1,1,0.20072,0.28435,0.46834,395,1.82318,-0.27,-0.13381,0.36798,5,2U1D,1.0,False,0.216,54,False,left,-0.2509,0.1792,0.5794,0.4001,1.1545,1.4375,0.283,A
396,0.50179,1.2,1,0.35962,0.33453,0.82796,396,2.36679,-0.306,-0.15054,0.34289,5,2U1D,2.0,True,0.272,54,False,right,0.08363,0.2762,0.7929,0.5167,1.4926,2.2512,0.7586,A
397,0.50179,1.2,1,0.27599,0.3178,0.58542,397,2.24133,0.126,0.06691,0.56033,5,2D1U,2.0,False,0.489,37,False,right,-0.2509,0.1942,0.9275,0.7333,1.5524,1.9774,0.425,A
398,0.50179,0.1,2,0.22581,0.30108,0.50179,398,1.87336,-0.306,-0.15054,0.34289,5,2U1D,1.0,True,0.193,54,False,left,0.08363,1.2988,1.624,0.3251,0.1655,0.7817,0.6162,A
399,0.50179,0.1,1,0.33453,0.24253,0.40143,399,2.05734,0.162,0.08363,0.57706,5,2D1U,1.0,True,0.232,37,False,left,-0.2509,0.314,0.9219,0.6079,1.4319,1.7137,0.2819,A
400,0.50179,1.2,2,0.33453,0.40143,0.67742,400,2.49223,0.162,0.08363,0.57706,5,2D1U,1.0,False,0.172,37,False,left,0.08363,1.7236,2.207,0.4834,0.2076,0.9657,0.7581,A
401,0.50179,1.2,1,0.40143,0.30108,0.42652,401,2.23297,0.198,0.10036,0.60215,5,2D1U,1.0,True,0.194,37,False,left,-0.2509,0.3175,1.0928,0.7753,1.5592,1.9842,0.425,A
402,0.50179,0.1,2,0.22581,0.42652,0.66069,402,2.18279,-0.27,-0.13381,0.36798,5,2U1D,1.0,True,0.18,55,True,left,0.08363,1.4609,1.8114,0.3505,0.1691,0.7858,0.6167,A
403,0.50179,0.1,1,0.23417,0.24253,0.52688,403,2.10752,0.198,0.10036,0.60215,5,2D1U,1.0,True,0.16,37,False,left,-0.2509,0.2142,0.8472,0.633,1.4804,1.7637,0.2833,A
404,0.50179,1.2,2,0.38471,0.30108,0.81959,404,2.37515,-0.27,-0.13381,0.36798,5,2U1D,1.0,True,0.221,55,True,left,0.08363,1.9179,2.1929,0.275,0.26,1.0176,0.7576,A
405,0.50179,1.2,1,0.35125,0.35962,0.83632,405,2.62604,0.162,0.08363,0.57706,5,2D1U,1.0,True,0.201,38,True,left,-0.2509,0.2638,1.0137,0.7499,1.8886,2.3137,0.4251,A
406,0.50179,0.1,2,0.28435,0.20908,0.76105,406,2.14098,-0.234,-0.11708,0.38471,5,2U1D,1.0,True,0.263,55,False,left,0.08363,1.6154,1.9822,0.3668,0.224,0.8397,0.6157,A
407,0.50179,0.1,1,0.27599,0.38471,0.69415,407,2.4337,0.162,0.08363,0.57706,5,2D1U,1.0,True,0.258,38,True,left,-0.2509,0.2552,0.8631,0.6079,1.6629,1.9464,0.2835,A
408,0.50179,1.2,2,0.28435,0.38471,0.52688,408,2.08244,-0.234,-0.11708,0.38471,5,2U1D,1.0,True,0.358,55,False,left,0.08363,1.5234,1.8154,0.292,0.1566,0.9155,0.7588,A
409,0.50179,1.2,1,0.20072,0.38471,0.87814,409,2.52569,0.126,0.06691,0.56033,5,2D1U,1.0,True,0.325,38,False,left,-0.2509,0.1146,0.8488,0.7342,1.7654,2.1905,0.4252,A
410,0.50179,0.1,1,0.37634,0.38471,0.69415,410,2.51732,0.126,0.06691,0.56033,5,2D1U,1.0,True,0.113,38,False,left,0.08363,0.3548,0.9468,0.5921,1.58,2.1967,0.6167,A
411,0.50179,0.1,1,0.40143,0.30944,0.73596,411,2.35005,-0.198,-0.10036,0.40143,5,2U1D,1.0,False,0.25,55,False,left,-0.2509,0.3862,0.8199,0.4337,1.6615,1.9448,0.2834,A
412,0.50179,1.2,2,0.32616,0.34289,0.58542,412,2.29987,0.09,0.04182,0.54361,5,2D1U,1.0,False,0.158,38,False,left,0.08363,1.6212,2.0714,0.4502,0.1966,0.9556,0.759,A
413,0.50179,1.2,2,0.34289,0.36798,0.67742,413,2.27479,-0.234,-0.11708,0.38471,5,2U1D,1.0,True,0.229,56,True,left,-0.2509,1.5684,1.86,0.2916,0.3843,0.8101,0.4258,A
414,0.50179,0.1,2,0.41816,0.32616,0.69415,414,2.50059,0.126,0.06691,0.56033,5,2D1U,1.0,False,0.159,39,True,left,0.08363,1.6807,2.2226,0.5419,0.3551,0.9723,0.6173,A
415,0.50179,0.1,1,0.30108,0.30108,0.49343,415,2.17444,0.162,0.08363,0.57706,5,2D1U,1.0,True,0.112,39,False,left,-0.2509,0.2837,0.8923,0.6087,1.4924,1.7756,0.2832,A
416,0.50179,1.2,1,0.4098,0.29271,0.44325,416,2.03226,-0.234,-0.11708,0.38471,5,2U1D,2.0,True,0.273,56,True,right,0.08363,0.3213,0.8794,0.5581,1.1962,1.9545,0.7583,A
417,0.50179,1.2,2,0.35962,0.24253,0.67742,417,2.35842,0.162,0.08363,0.57706,5,2D1U,2.0,True,0.436,39,False,right,-0.2509,1.5807,2.0639,0.4832,0.3972,0.8226,0.4254,A
418,0.50179,0.1,1,0.26762,0.23417,0.59379,418,2.1577,0.126,0.06691,0.56033,5,2D1U,1.0,True,0.229,40,True,left,0.08363,0.2481,0.8401,0.592,1.3731,1.9898,0.6167,A
419,0.50179,0.1,2,0.2509,0.4098,0.43489,419,2.15771,0.126,0.06691,0.56033,5,2D1U,1.0,False,0.604,40,True,left,-0.2509,1.0923,1.6344,0.5421,0.3592,0.6424,0.2831,A
420,0.50179,1.2,1,0.37634,0.34289,0.65233,420,2.27478,-0.198,-0.10036,0.40143,5,2U1D,2.0,True,0.264,57,True,right,0.08363,0.2926,0.8682,0.5755,1.3925,2.1509,0.7584,A
421,0.50179,1.2,2,0.35962,0.43489,0.42652,421,2.29988,0.162,0.08363,0.57706,5,2D1U,2.0,True,0.11,41,True,right,-0.2509,1.3306,1.8139,0.4833,0.3977,0.8224,0.4247,A
422,0.50179,0.1,1,0.30944,0.24253,0.51016,422,2.14098,0.162,0.08363,0.57706,5,2D1U,1.0,True,0.287,41,True,left,0.08363,0.2928,0.9013,0.6085,1.353,1.968,0.615,A
423,0.50179,0.1,2,0.34289,0.43489,0.5687,423,2.2497,-0.198,-0.10036,0.40143,5,2U1D,1.0,True,0.211,57,True,left,-0.2509,1.3149,1.6983,0.3834,0.4482,0.732,0.2838,A
424,0.50179,1.2,2,0.27599,0.21744,0.67742,424,2.0908,-0.162,-0.08363,0.41816,5,2U1D,1.0,True,0.341,57,False,left,0.08363,1.6668,1.9923,0.3255,0.1506,0.9089,0.7583,A
425,0.50179,1.2,2,0.25926,0.20072,0.48507,425,1.865,-0.162,-0.08363,0.41816,5,2U1D,2.0,False,0.259,57,False,right,-0.2509,1.29,1.6143,0.3243,0.2984,0.7233,0.4249,A
426,0.50179,0.1,2,0.37634,0.20908,0.51016,426,1.9988,-0.198,-0.10036,0.40143,5,2U1D,1.0,True,0.311,58,True,left,0.08363,1.46,1.8434,0.3834,0.3184,0.9358,0.6174,A
427,0.50179,0.1,2,0.29271,0.28435,0.66906,427,2.30824,0.126,0.06691,0.56033,5,2D1U,1.0,False,0.11,42,True,left,-0.2509,1.3629,1.905,0.5421,0.3971,0.6802,0.2831,A
428,0.50179,1.2,2,0.41816,0.24253,0.51852,428,2.08243,-0.198,-0.10036,0.40143,5,2U1D,1.0,True,0.216,58,True,left,0.08363,1.6512,1.9598,0.3086,0.2928,1.0515,0.7586,A
429,0.50179,1.2,1,0.39307,0.3178,0.51852,429,2.30824,0.162,0.08363,0.57706,5,2D1U,1.0,True,0.138,43,True,left,-0.2509,0.3105,1.0604,0.7499,1.6188,2.0434,0.4247,A
430,0.50179,0.1,2,0.27599,0.30944,0.81123,430,2.31661,-0.162,-0.08363,0.41816,5,2U1D,1.0,True,0.116,59,True,left,0.08363,1.6564,2.0559,0.3995,0.2153,0.8312,0.6159,A
431,0.50179,0.1,1,0.29271,0.44325,0.69415,431,2.50896,0.162,0.08363,0.57706,5,2D1U,1.0,True,0.266,43,True,left,-0.2509,0.2733,0.8815,0.6082,1.6813,1.9648,0.2835,A
432,0.50179,1.2,2,0.43489,0.29271,0.75269,432,2.54241,0.126,0.06691,0.56033,5,2D1U,1.0,False,0.276,44,True,left,0.08363,1.8968,2.3634,0.4666,0.3049,1.0635,0.7585,A
433,0.50179,1.2,1,0.35962,0.28435,0.66906,433,2.23298,-0.162,-0.08363,0.41816,5,2U1D,1.0,False,0.263,59,True,left,-0.2509,0.2748,0.8672,0.5924,1.5748,1.9995,0.4247,A
434,0.50179,0.1,2,0.23417,0.35962,0.73596,434,2.23297,-0.198,-0.10036,0.40143,5,2U1D,1.0,True,0.167,60,True,left,0.08363,1.5396,1.9228,0.3832,0.1727,0.7889,0.6162,A
435,0.50179,0.1,2,0.30108,0.43489,0.58542,435,2.22461,-0.198,-0.10036,0.40143,5,2U1D,1.0,True,0.421,60,True,left,-0.2509,1.2936,1.6767,0.3831,0.4103,0.6942,0.2839,A
436,0.50179,1.2,2,0.45161,0.30944,0.66906,436,2.50896,0.162,0.08363,0.57706,5,2D1U,1.0,False,0.216,45,True,left,0.08363,1.8314,2.3145,0.4831,0.3229,1.081,0.758,A
437,0.50179,1.2,1,0.43489,0.2509,0.60215,437,2.20789,-0.162,-0.08363,0.41816,5,2U1D,1.0,False,0.203,61,True,left,-0.2509,0.3508,0.9432,0.5924,1.5842,2.0094,0.4252,A
438,0.50179,0.1,1,0.21744,0.28435,0.4767,438,2.08243,0.198,0.10036,0.60215,5,2D1U,1.0,True,0.112,45,False,left,0.08363,0.2013,0.8346,0.6333,1.2508,1.868,0.6172,A
439,0.50179,0.1,1,0.43489,0.28435,0.83632,439,2.45878,-0.198,-0.10036,0.40143,5,2U1D,1.0,False,0.358,62,True,left,-0.2509,0.4153,0.8485,0.4332,1.79,2.0734,0.2834,A
440,0.50179,1.2,2,0.2509,0.26762,0.81123,440,2.21625,-0.234,-0.11708,0.38471,5,2U1D,1.0,True,0.487,62,False,left,0.08363,1.7701,2.0617,0.2916,0.12,0.8778,0.7578,A
441,0.50179,1.2,2,0.30108,0.36798,0.7945,441,2.5675,0.198,0.10036,0.60215,5,2D1U,2.0,True,0.231,45,False,right,-0.2509,1.6386,2.1476,0.509,0.3394,0.7644,0.4249,A
442,0.50179,0.1,2,0.2509,0.20908,0.58542,442,1.9319,-0.234,-0.11708,0.38471,5,2U1D,1.0,True,0.381,62,False,left,0.08363,1.4042,1.7704,0.3661,0.1871,0.8036,0.6165,A
443,0.50179,0.1,1,0.28435,0.40143,0.89486,443,2.48386,-0.198,-0.10036,0.40143,5,2U1D,1.0,False,0.28,63,True,left,-0.2509,0.264,0.6973,0.4333,1.6972,1.9802,0.283,A
444,0.50179,1.2,2,0.40143,0.3178,0.71087,444,2.3166,-0.234,-0.11708,0.38471,5,2U1D,1.0,True,0.274,64,True,left,0.08363,1.8277,2.1187,0.291,0.2771,1.0359,0.7588,A
445,0.50179,1.2,1,0.24253,0.30108,0.48507,445,2.10753,0.162,0.08363,0.57706,5,2D1U,1.0,True,0.223,46,True,left,-0.2509,0.1618,0.9119,0.7502,1.4367,1.8618,0.4251,A
446,0.50179,0.1,2,0.27599,0.20072,0.65233,446,2.01554,-0.234,-0.11708,0.38471,5,2U1D,1.0,True,0.22,64,True,left,0.08363,1.5027,1.8692,0.3665,0.2194,0.8358,0.6164,A
447,0.50179,0.1,1,0.2509,0.27599,0.66069,447,2.26643,0.162,0.08363,0.57706,5,2D1U,1.0,True,0.219,46,True,left,-0.2509,0.23,0.8384,0.6084,1.6049,1.888,0.2832,A
448,0.50179,1.2,1,0.41816,0.44325,0.77778,448,2.54241,-0.198,-0.10036,0.40143,5,2U1D,2.0,True,0.963,65,True,right,0.08363,0.3309,0.9058,0.5748,1.5558,2.3144,0.7586,A
449,0.50179,1.2,1,0.20072,0.39307,0.44325,449,1.94026,-0.198,-0.10036,0.40143,5,2U1D,1.0,False,0.251,65,True,left,-0.2509,0.1179,0.6932,0.5753,1.1764,1.6019,0.4255,A
450,0.50179,0.1,2,0.29271,0.24253,0.70251,450,2.29987,0.126,0.06691,0.56033,5,2D1U,1.0,False,0.298,46,False,left,0.08363,1.568,2.1095,0.5416,0.2339,0.8514,0.6175,A
451,0.50179,0.1,1,0.30108,0.21744,0.75269,451,2.35006,0.162,0.08363,0.57706,5,2D1U,1.0,True,0.209,47,True,left,-0.2509,0.2842,0.8924,0.6082,1.7514,2.0344,0.283,A
452,0.50179,1.2,2,0.26762,0.35962,0.82796,452,2.53405,0.162,0.08363,0.57706,5,2D1U,2.0,True,0.243,47,True,right,0.08363,1.8097,2.2941,0.4844,0.1437,0.9021,0.7584,A
453,0.50179,1.2,2,0.30108,0.37634,0.59379,453,2.33333,0.126,0.06691,0.56033,5,2D1U,2.0,True,0.226,48,True,right,-0.2509,1.4377,1.9126,0.4749,0.3382,0.7632,0.425,A
454,0.50179,0.1,1,0.28435,0.35125,0.84468,454,2.36678,-0.234,-0.11708,0.38471,5,2U1D,2.0,True,0.222,66,True,right,0.08363,0.2678,0.6848,0.4171,1.4682,2.0848,0.6165,A
455,0.50179,0.1,1,0.23417,0.4098,0.84468,455,2.37515,-0.234,-0.11708,0.38471,5,2U1D,1.0,False,0.193,66,True,left,-0.2509,0.2135,0.6304,0.4169,1.5804,1.8637,0.2833,A
456,0.50179,1.2,1,0.25926,0.29271,0.80287,456,2.41696,0.126,0.06691,0.56033,5,2D1U,2.0,False,0.226,48,True,right,0.08363,0.1712,0.9044,0.7332,1.5794,2.3377,0.7583,A
457,0.50179,1.2,2,0.40143,0.35125,0.71924,457,2.34169,-0.27,-0.13381,0.36798,5,2U1D,1.0,True,0.306,66,False,left,-0.2509,1.6632,1.9381,0.2749,0.4378,0.8631,0.4253,A
458,0.50179,0.1,1,0.32616,0.38471,0.5687,458,2.35842,0.162,0.08363,0.57706,5,2D1U,1.0,True,0.335,49,True,left,0.08363,0.3118,0.9201,0.6083,1.4283,2.0454,0.6171,A
459,0.50179,0.1,1,0.32616,0.29271,0.66906,459,2.1577,-0.27,-0.13381,0.36798,5,2U1D,2.0,True,0.222,66,False,right,-0.2509,0.3097,0.7097,0.4,1.4848,1.7681,0.2834,A
460,0.50179,1.2,1,0.20908,0.40143,0.65233,460,2.34169,0.162,0.08363,0.57706,5,2D1U,2.0,False,0.25,49,True,right,0.08363,0.1243,0.8742,0.75,1.3991,2.1577,0.7586,A
461,0.50179,1.2,1,0.30944,0.20908,0.41816,461,1.82318,-0.234,-0.11708,0.38471,5,2U1D,2.0,True,0.233,67,True,right,-0.2509,0.2233,0.7816,0.5584,1.2405,1.6652,0.4248,A
462,0.50179,0.1,1,0.26762,0.41816,0.6356,462,2.20788,-0.234,-0.11708,0.38471,5,2U1D,2.0,True,0.114,67,True,right,0.08363,0.2486,0.666,0.4174,1.241,1.8577,0.6167,A
463,0.50179,0.1,1,0.42652,0.26762,0.59379,463,2.39187,0.198,0.10036,0.60215,5,2D1U,1.0,True,0.241,49,False,left,-0.2509,0.411,1.0439,0.6329,1.744,2.0272,0.2832,A
464,0.50179,1.2,1,0.29271,0.44325,0.74432,464,2.58422,0.198,0.10036,0.60215,5,2D1U,1.0,True,0.246,49,False,left,0.08363,0.2113,0.9858,0.7745,1.6033,2.3615,0.7582,A
465,0.50179,1.2,2,0.43489,0.35125,0.74432,465,2.43368,-0.198,-0.10036,0.40143,5,2U1D,1.0,True,0.283,67,False,left,-0.2509,1.7245,2.0328,0.3083,0.4758,0.9,0.4242,A
466,0.50179,0.1,1,0.3178,0.22581,0.51016,466,2.13262,0.162,0.08363,0.57706,5,2D1U,1.0,True,0.301,50,True,left,0.08363,0.2993,0.908,0.6087,1.358,1.9745,0.6165,A
467,0.50179,0.1,2,0.24253,0.4098,0.70251,467,2.25806,-0.198,-0.10036,0.40143,5,2U1D,1.0,True,0.14,67,False,left,-0.2509,1.3466,1.7302,0.3836,0.3468,0.6304,0.2836,A
468,0.50179,1.2,1,0.42652,0.30108,0.44325,468,2.2497,0.162,0.08363,0.57706,5,2D1U,1.0,True,0.115,50,True,left,0.08363,0.3413,1.0912,0.7499,1.4077,2.1662,0.7585,A
469,0.50179,1.2,2,0.42652,0.25926,0.50179,469,2.24969,0.126,0.06691,0.56033,5,2D1U,1.0,False,0.443,50,False,left,-0.2509,1.4734,1.9406,0.4672,0.4654,0.8906,0.4252,A
470,0.50179,0.1,2,0.26762,0.29271,0.56033,470,2.04061,-0.162,-0.08363,0.41816,5,2U1D,1.0,True,0.25,67,False,left,0.08363,1.397,1.797,0.4,0.2052,0.8219,0.6167,A
471,0.50179,0.1,1,0.26762,0.27599,0.4098,471,2.03226,0.162,0.08363,0.57706,5,2D1U,1.0,True,0.172,51,True,left,-0.2509,0.2513,0.8589,0.6077,1.3756,1.6595,0.2839,A
472,0.50179,1.2,2,0.21744,0.24253,0.86977,472,2.24969,-0.162,-0.08363,0.41816,5,2U1D,1.0,True,0.447,67,False,left,0.08363,1.7983,2.123,0.3247,0.09,0.8477,0.7576,A
473,0.50179,1.2,1,0.29271,0.20908,0.51852,473,1.95699,-0.126,-0.06691,0.43489,5,2U1D,1.0,False,0.52,67,False,left,-0.2509,0.2094,0.8175,0.6081,1.3761,1.8007,0.4246,A
474,0.50179,0.1,1,0.22581,0.28435,0.66069,474,2.2497,0.162,0.08363,0.57706,5,2D1U,2.0,False,0.268,51,True,right,0.08363,0.2071,0.8159,0.6089,1.4159,2.0327,0.6168,A
475,0.50179,0.1,1,0.45161,0.3178,0.68578,475,2.55913,0.198,0.10036,0.60215,5,2D1U,1.0,True,0.215,51,False,left,-0.2509,0.4369,1.0697,0.6329,1.8614,2.1446,0.2833,A
476,0.50179,1.2,2,0.43489,0.27599,0.66906,476,2.48388,0.198,0.10036,0.60215,5,2D1U,1.0,False,0.397,51,False,left,0.08363,1.8131,2.3219,0.5088,0.3041,1.0636,0.7595,A
477,0.50179,1.2,2,0.38471,0.25926,0.69415,477,2.45879,0.234,0.11708,0.61888,5,2D1U,1.0,False,0.16,51,False,left,-0.2509,1.6228,2.1482,0.5254,0.4235,0.8477,0.4243,A
478,0.50179,0.1,1,0.28435,0.37634,0.45161,478,2.03225,-0.162,-0.08363,0.41816,5,2U1D,1.0,False,0.142,68,True,left,0.08363,0.2676,0.7179,0.4503,1.1097,1.7262,0.6165,A
479,0.50179,0.1,1,0.2509,0.22581,0.83632,479,2.21625,-0.198,-0.10036,0.40143,5,2U1D,1.0,False,0.673,68,False,left,-0.2509,0.2364,0.6695,0.4331,1.6114,1.8942,0.2828,A
480,0.50179,1.2,2,0.27599,0.35125,0.82796,480,2.3417,-0.234,-0.11708,0.38471,5,2U1D,1.0,True,0.215,68,False,left,0.08363,1.8182,2.1099,0.2917,0.1517,0.9098,0.7581,A
481,0.50179,1.2,2,0.26762,0.27599,0.84468,481,2.52568,0.27,0.13381,0.6356,5,2D1U,1.0,False,0.397,51,False,left,-0.2509,1.6603,2.2023,0.542,0.3106,0.7355,0.4249,A
482,0.50179,0.1,2,0.3178,0.34289,0.42652,482,1.97371,-0.234,-0.11708,0.38471,5,2U1D,1.0,True,0.111,68,False,left,0.08363,1.3178,1.6846,0.3668,0.2597,0.8765,0.6168,A
483,0.50179,0.1,1,0.22581,0.4098,0.77778,483,2.56751,0.306,0.15054,0.65233,5,2D1U,1.0,True,0.212,51,False,left,-0.2509,0.2055,0.8894,0.6839,1.773,2.0562,0.2832,A
484,0.50179,1.2,2,0.23417,0.20908,0.45161,484,2.04898,0.306,0.15054,0.65233,5,2D1U,2.0,True,0.318,51,False,right,0.08363,1.397,1.9546,0.5576,0.1054,0.8638,0.7584,A
485,0.50179,1.2,2,0.29271,0.30944,0.81959,485,2.55913,0.27,0.13381,0.6356,5,2D1U,1.0,False,0.188,52,True,left,-0.2509,1.6615,2.2027,0.5413,0.3357,0.7614,0.4257,A
486,0.50179,0.1,1,0.40143,0.39307,0.83632,486,2.53404,-0.198,-0.10036,0.40143,5,2U1D,1.0,False,0.232,69,True,left,0.08363,0.3818,0.815,0.4332,1.5899,2.2066,0.6167,A
487,0.50179,0.1,1,0.4098,0.42652,0.44325,487,2.43369,0.306,0.15054,0.65233,5,2D1U,1.0,True,0.11,53,True,left,-0.2509,0.3938,1.0772,0.6834,1.627,1.9104,0.2834,A
488,0.50179,1.2,1,0.27599,0.4098,0.89486,488,2.73477,0.306,0.15054,0.65233,5,2D1U,1.0,True,0.306,53,True,left,0.08363,0.1926,1.0182,0.8256,1.7846,2.5429,0.7583,A
489,0.50179,1.2,2,0.37634,0.42652,0.73596,489,2.42532,-0.234,-0.11708,0.38471,5,2U1D,1.0,True,0.325,70,True,left,-0.2509,1.6561,1.9484,0.2923,0.4148,0.8404,0.4255,A
490,0.50179,0.1,1,0.39307,0.2509,0.81123,490,2.3417,-0.234,-0.11708,0.38471,5,2U1D,1.0,False,0.293,70,True,left,0.08363,0.3766,0.7934,0.4168,1.5425,2.1598,0.6173,A
491,0.50179,0.1,1,0.20908,0.30944,0.67742,491,2.33333,0.27,0.13381,0.6356,5,2D1U,1.0,True,0.238,54,True,left,-0.2509,0.1898,0.8566,0.6668,1.6399,1.9236,0.2837,A
492,0.50179,1.2,2,0.26762,0.29271,0.70251,492,2.13261,-0.27,-0.13381,0.36798,5,2U1D,1.0,True,0.255,70,False,left,0.08363,1.6807,1.9552,0.2745,0.139,0.8975,0.7585,A
493,0.50179,1.2,1,0.42652,0.23417,0.81123,493,2.34169,-0.27,-0.13381,0.36798,5,2U1D,1.0,False,0.2,70,False,left,-0.2509,0.343,0.8847,0.5416,1.7347,2.1599,0.4252,A
494,0.50179,0.1,2,0.33453,0.2509,0.66906,494,2.39188,0.27,0.13381,0.6356,5,2D1U,1.0,False,0.293,54,True,left,0.08363,1.5737,2.1902,0.6166,0.2737,0.8902,0.6165,A
495,0.50179,0.1,1,0.39307,0.2509,0.73596,495,2.53405,0.306,0.15054,0.65233,5,2D1U,1.0,True,0.361,55,True,left,-0.2509,0.3759,1.0586,0.6828,1.9002,2.1839,0.2836,A
496,0.50179,1.2,2,0.30944,0.29271,0.89486,496,2.34169,-0.306,-0.15054,0.34289,5,2U1D,1.0,True,0.372,70,False,left,0.08363,1.9136,2.1636,0.25,0.1799,0.9389,0.759,A
497,0.50179,1.2,1,0.28435,0.42652,0.75269,497,2.30824,-0.306,-0.15054,0.34289,5,2U1D,1.0,False,0.144,70,False,left,-0.2509,0.2029,0.7195,0.5165,1.5104,1.9362,0.4258,A
498,0.50179,0.1,1,0.33453,0.35125,0.89486,498,2.73476,0.306,0.15054,0.65233,5,2D1U,1.0,True,0.233,55,True,left,0.08363,0.3161,0.9991,0.683,1.8326,2.449,0.6164,A
499,0.50179,0.1,1,0.42652,0.4098,0.42652,499,2.40023,0.27,0.13381,0.6356,5,2D1U,1.0,True,0.112,56,True,left,-0.2509,0.4056,1.072,0.6664,1.605,1.8885,0.2835,A
500,0.50179,1.2,1,0.21744,0.23417,0.64397,500,1.92353,-0.342,-0.16726,0.32616,5,2U1D,2.0,True,0.256,70,False,right,0.08363,0.1321,0.6322,0.5,1.1483,1.9067,0.7584,A
501,0.50179,1.2,2,0.42652,0.37634,0.64397,501,2.58422,0.27,0.13381,0.6356,5,2D1U,2.0,True,0.157,56,True,right,-0.2509,1.6155,2.1571,0.5416,0.4658,0.8904,0.4247,A
502,0.50179,0.1,2,0.2509,0.4098,0.43489,502,2.21626,0.234,0.11708,0.61888,5,2D1U,2.0,True,0.114,56,False,right,0.08363,1.257,1.8576,0.6006,0.191,0.8079,0.6169,A
503,0.50179,0.1,2,0.34289,0.35125,0.66069,503,2.18278,-0.342,-0.16726,0.32616,5,2U1D,1.0,True,0.113,70,False,left,-0.2509,1.4097,1.7185,0.3088,0.4513,0.7346,0.2834,A
504,0.50179,1.2,2,0.36798,0.40143,0.56033,504,2.45041,0.234,0.11708,0.61888,5,2D1U,2.0,True,0.233,56,False,right,0.08363,1.6407,2.1658,0.5251,0.2407,0.9991,0.7584,A
505,0.50179,1.2,1,0.35962,0.24253,0.6356,505,2.08243,-0.306,-0.15054,0.34289,5,2U1D,1.0,False,0.283,71,True,left,-0.2509,0.2731,0.7898,0.5166,1.4653,1.89,0.4247,A
506,0.50179,0.1,1,0.25926,0.25926,0.66906,506,2.29152,0.198,0.10036,0.60215,5,2D1U,1.0,True,0.251,56,False,left,0.08363,0.2449,0.8782,0.6333,1.4865,2.1031,0.6166,A
507,0.50179,0.1,1,0.3178,0.27599,0.6356,507,2.05734,-0.342,-0.16726,0.32616,5,2U1D,2.0,True,0.155,72,True,right,-0.2509,0.3019,0.6605,0.3586,1.4015,1.6856,0.284,A
508,0.50179,1.2,2,0.35962,0.36798,0.86141,508,2.69295,0.198,0.10036,0.60215,5,2D1U,2.0,True,0.114,56,False,right,0.08363,1.9313,2.439,0.5077,0.2315,0.9892,0.7576,A
509,0.50179,1.2,1,0.24253,0.33453,0.71087,509,2.36678,0.162,0.08363,0.57706,5,2D1U,2.0,False,0.502,56,False,right,-0.2509,0.1557,0.906,0.7503,1.6558,2.0812,0.4254,A
510,0.50179,0.1,2,0.35125,0.27599,0.58542,510,2.04061,-0.342,-0.16726,0.32616,5,2U1D,1.0,True,0.243,72,True,left,0.08363,1.5087,1.8167,0.308,0.2917,0.9091,0.6173,A
511,0.50179,0.1,2,0.20072,0.3178,0.51016,511,1.87336,-0.306,-0.15054,0.34289,5,2U1D,1.0,True,0.107,73,True,left,-0.2509,1.115,1.4402,0.3252,0.3065,0.5898,0.2833,A
512,0.50179,1.2,1,0.25926,0.20072,0.69415,512,1.99881,-0.306,-0.15054,0.34289,5,2U1D,1.0,False,0.288,73,True,left,0.08363,0.1785,0.6951,0.5166,1.262,999.0,997.738,A
513,0.50179,1.2,2,0.41816,0.25926,0.87814,513,2.38351,-0.342,-0.16726,0.32616,5,2U1D,1.0,True,0.24,74,True,left,-0.2509,1.8367,2.07,0.2333,0.4535,0.8789,0.4253,A
514,0.50179,0.1,1,0.2509,0.36798,0.50179,514,2.22461,0.198,0.10036,0.60215,5,2D1U,1.0,True,0.111,57,True,left,0.08363,0.2298,0.8627,0.6329,1.3051,1.9219,0.6168,A
515,0.50179,0.1,1,0.26762,0.23417,0.4098,515,1.73954,-0.342,-0.16726,0.32616,5,2U1D,1.0,False,0.196,74,True,left,-0.2509,0.2457,0.6051,0.3594,1.1214,1.4045,0.2831,A
516,0.50179,1.2,1,0.20908,0.30108,0.59379,516,2.20789,0.198,0.10036,0.60215,5,2D1U,1.0,True,0.537,57,True,left,0.08363,0.1273,0.9038,0.7765,1.37,2.1275,0.7575,A
517,0.50179,1.2,1,0.36798,0.35125,0.89486,517,2.42532,-0.378,-0.19235,0.30944,5,2U1D,2.0,True,0.262,74,False,right,-0.2509,0.2802,0.7637,0.4834,1.6972,2.1214,0.4243,A
518,0.50179,0.1,1,0.36798,0.35125,0.49343,518,2.02389,-0.378,-0.19235,0.30944,5,2U1D,2.0,True,0.48,74,False,right,0.08363,0.352,0.6939,0.3419,1.1271,1.7435,0.6164,A
519,0.50179,0.1,1,0.42652,0.3178,0.74432,519,2.31659,-0.342,-0.16726,0.32616,5,2U1D,2.0,True,0.318,75,True,right,-0.2509,0.4055,0.764,0.3585,1.6138,1.8972,0.2835,A
520,0.50179,1.2,2,0.43489,0.28435,0.76941,520,2.5675,0.162,0.08363,0.57706,5,2D1U,1.0,False,0.294,58,True,left,0.08363,1.9136,2.3968,0.4833,0.3046,1.0634,0.7587,A
521,0.50179,1.2,1,0.23417,0.39307,0.46834,521,1.92353,-0.342,-0.16726,0.32616,5,2U1D,1.0,False,0.135,75,True,left,-0.2509,0.1507,0.6508,0.5001,1.1586,1.5842,0.4256,A
522,0.50179,0.1,1,0.23417,0.43489,0.85305,522,2.62605,0.198,0.10036,0.60215,5,2D1U,1.0,True,0.212,59,True,left,0.08363,0.2129,0.8461,0.6332,1.6378,2.2545,0.6167,A
523,0.50179,0.1,1,0.27599,0.24253,0.54361,523,1.87336,-0.378,-0.19235,0.30944,5,2U1D,2.0,True,0.201,76,True,right,-0.2509,0.2585,0.5999,0.3414,1.2503,1.5336,0.2833,A
524,0.50179,1.2,2,0.2509,0.38471,0.73596,524,2.1828,-0.378,-0.19235,0.30944,5,2U1D,1.0,True,0.261,76,True,left,0.08363,1.6989,1.9159,0.217,0.124,0.8825,0.7585,A
525,0.50179,1.2,1,0.22581,0.29271,0.59379,525,2.21625,0.198,0.10036,0.60215,5,2D1U,1.0,True,0.268,59,True,left,-0.2509,0.1404,0.9155,0.7751,1.5487,1.9737,0.425,A
526,0.50179,0.1,1,0.25926,0.25926,0.73596,526,2.08243,-0.342,-0.16726,0.32616,5,2U1D,1.0,False,0.334,77,True,left,0.08363,0.2392,0.5983,0.3591,1.2741,1.8901,0.616,A
527,0.50179,0.1,1,0.3178,0.39307,0.52688,527,2.04898,-0.378,-0.19235,0.30944,5,2U1D,1.0,False,0.246,78,True,left,-0.2509,0.3013,0.6427,0.3414,1.2757,1.5593,0.2835,A
528,0.50179,1.2,1,0.44325,0.40143,0.57706,528,2.21624,-0.414,-0.20908,0.29271,5,2U1D,2.0,True,0.246,78,False,right,0.08363,0.36,0.8267,0.4667,1.2767,2.0351,0.7584,A
529,0.50179,1.2,1,0.44325,0.28435,0.45998,529,2.26643,0.162,0.08363,0.57706,5,2D1U,2.0,False,0.576,60,True,right,-0.2509,0.354,1.1039,0.7499,1.6042,2.029,0.4248,A
530,0.50179,0.1,2,0.20908,0.27599,0.6356,530,2.22461,0.198,0.10036,0.60215,5,2D1U,2.0,True,0.251,61,True,right,0.08363,1.4196,2.0028,0.5832,0.1527,0.7696,0.6169,A
531,0.50179,0.1,2,0.41816,0.25926,0.50179,531,2.28315,0.198,0.10036,0.60215,5,2D1U,2.0,True,0.288,61,True,right,-0.2509,1.3276,1.9106,0.583,0.5281,0.8112,0.2831,A
532,0.50179,1.2,2,0.43489,0.36798,0.40143,532,1.9988,-0.414,-0.20908,0.29271,5,2U1D,1.0,True,0.267,78,False,left,0.08363,1.5476,1.7477,0.2,0.3054,1.0644,0.759,A
533,0.50179,1.2,1,0.21744,0.2509,0.85305,533,2.40024,0.162,0.08363,0.57706,5,2D1U,2.0,False,0.733,62,True,right,-0.2509,0.1316,0.8812,0.7496,1.773,2.198,0.4249,A
534,0.50179,0.1,1,0.23417,0.42652,0.6356,534,2.10752,-0.378,-0.19235,0.30944,5,2U1D,2.0,True,0.185,79,True,right,0.08363,0.217,0.5582,0.3412,1.1332,1.7498,0.6166,A
535,0.50179,0.1,1,0.27599,0.35962,0.55197,535,2.29152,0.198,0.10036,0.60215,5,2D1U,1.0,True,0.184,63,True,left,-0.2509,0.2612,0.8946,0.6334,1.553,1.8362,0.2832,A
536,0.50179,1.2,1,0.36798,0.39307,0.45161,536,2.3166,0.198,0.10036,0.60215,5,2D1U,1.0,True,0.108,63,True,left,0.08363,0.281,1.0561,0.7751,1.3811,2.1395,0.7585,A
537,0.50179,1.2,2,0.24253,0.4098,0.52688,537,1.99044,-0.378,-0.19235,0.30944,5,2U1D,1.0,True,0.224,79,True,left,-0.2509,1.3179,1.5346,0.2167,0.2846,0.7091,0.4245,A
538,0.50179,0.1,2,0.30108,0.35962,0.52688,538,2.26643,0.162,0.08363,0.57706,5,2D1U,2.0,True,0.115,64,True,right,0.08363,1.396,1.9545,0.5585,0.2375,0.8545,0.6171,A
539,0.50179,0.1,2,0.34289,0.21744,0.42652,539,1.8148,-0.342,-0.16726,0.32616,5,2U1D,1.0,True,0.346,79,False,left,-0.2509,1.1798,1.4874,0.3077,0.4545,0.738,0.2836,A
540,0.50179,1.2,2,0.22581,0.20908,0.45998,540,1.72282,-0.342,-0.16726,0.32616,5,2U1D,1.0,True,0.462,79,False,left,0.08363,1.3956,1.6285,0.2329,0.0954,0.8542,0.7589,A
541,0.50179,1.2,1,0.39307,0.30108,0.58542,541,2.35842,0.162,0.08363,0.57706,5,2D1U,1.0,True,0.301,64,True,left,-0.2509,0.3053,1.0553,0.7501,1.6807,2.1056,0.425,A
542,0.50179,0.1,1,0.30944,0.27599,0.6356,542,2.06571,-0.306,-0.15054,0.34289,5,2U1D,2.0,True,0.39,79,False,right,0.08363,0.2882,0.6633,0.3751,1.2382,1.8543,0.6161,A
543,0.50179,0.1,1,0.35962,0.27599,0.81959,543,2.51732,0.126,0.06691,0.56033,5,2D1U,1.0,True,0.319,64,False,left,-0.2509,0.3386,0.9302,0.5915,1.8553,2.1386,0.2834,A
544,0.50179,1.2,2,0.22581,0.4098,0.61051,544,2.0908,-0.306,-0.15054,0.34289,5,2U1D,1.0,True,0.234,79,False,left,0.08363,1.5487,1.7987,0.25,0.0986,0.8568,0.7582,A
545,0.50179,1.2,1,0.24253,0.23417,0.43489,545,1.97371,0.126,0.06691,0.56033,5,2D1U,1.0,True,0.595,64,False,left,-0.2509,0.1553,0.8886,0.7333,1.3636,1.7885,0.4249,A
546,0.50179,0.1,1,0.42652,0.25926,0.81959,546,2.37514,-0.27,-0.13381,0.36798,5,2U1D,2.0,True,0.364,79,False,right,0.08363,0.4096,0.8091,0.3995,1.5678,2.1845,0.6167,A
547,0.50179,0.1,1,0.23417,0.3178,0.75269,547,2.17443,-0.27,-0.13381,0.36798,5,2U1D,2.0,True,0.229,79,False,right,-0.2509,0.2187,0.6191,0.4004,1.4769,1.7602,0.2833,A
548,0.50179,1.2,2,0.38471,0.20908,0.7276,548,2.36679,0.09,0.04182,0.54361,5,2D1U,2.0,True,0.215,64,False,right,0.08363,1.8233,2.2733,0.45,0.2566,1.0149,0.7583,A
549,0.50179,1.2,1,0.23417,0.20072,0.66069,549,1.98208,-0.234,-0.11708,0.38471,5,2U1D,1.0,False,0.384,79,False,left,-0.2509,0.1512,0.7101,0.559,1.4095,1.8351,0.4256,A
550,0.50179,0.1,2,0.2509,0.23417,0.51852,550,2.04899,0.09,0.04182,0.54361,5,2D1U,1.0,False,0.244,64,False,left,0.08363,1.3438,1.8686,0.5248,0.1943,0.8106,0.6163,A
551,0.50179,0.1,1,0.38471,0.28435,0.81959,551,2.35842,-0.27,-0.13381,0.36798,5,2U1D,1.0,False,1.249,80,True,left,-0.2509,0.3651,0.7645,0.3995,1.69,1.9736,0.2837,A
552,0.50179,1.2,2,0.23417,0.23417,0.83632,552,2.14934,-0.306,-0.15054,0.34289,5,2U1D,1.0,True,0.288,80,False,left,0.08363,1.7799,2.0299,0.25,0.1045,0.8627,0.7582,A
553,0.50179,1.2,1,0.36798,0.41816,0.51852,553,2.36678,0.126,0.06691,0.56033,5,2D1U,1.0,True,0.178,65,True,left,-0.2509,0.2815,1.0147,0.7333,1.5731,1.9982,0.425,A
554,0.50179,0.1,2,0.29271,0.3178,0.48507,554,1.94026,-0.306,-0.15054,0.34289,5,2U1D,1.0,True,0.118,80,False,left,0.08363,1.3483,1.6737,0.3254,0.232,0.8487,0.6167,A
555,0.50179,0.1,2,0.35125,0.20072,0.46834,555,2.08243,0.126,0.06691,0.56033,5,2D1U,2.0,True,0.522,65,True,right,-0.2509,1.2259,1.7677,0.5418,0.4593,0.7427,0.2834,A
556,0.50179,1.2,1,0.27599,0.35962,0.71087,556,2.39188,0.09,0.04182,0.54361,5,2D1U,2.0,False,0.283,66,True,right,0.08363,0.1892,0.9058,0.7166,1.489,2.2474,0.7584,A
557,0.50179,1.2,2,0.32616,0.36798,0.51852,557,2.08243,-0.27,-0.13381,0.36798,5,2U1D,1.0,True,0.195,81,True,left,-0.2509,1.3925,1.6677,0.2752,0.3677,0.7927,0.425,A
558,0.50179,0.1,1,0.30944,0.30944,0.66906,558,2.15771,-0.27,-0.13381,0.36798,5,2U1D,2.0,True,0.114,81,True,right,0.08363,0.2946,0.6947,0.4002,1.303,1.9197,0.6166,A
559,0.50179,0.1,2,0.35125,0.30944,0.59379,559,2.3166,0.126,0.06691,0.56033,5,2D1U,2.0,True,0.45,67,True,right,-0.2509,1.3464,1.8875,0.5411,0.4548,0.7383,0.2835,A
560,0.50179,1.2,2,0.35125,0.23417,0.71924,560,2.19116,-0.234,-0.11708,0.38471,5,2U1D,1.0,True,0.408,81,False,left,0.08363,1.7826,2.0736,0.291,0.2233,0.982,0.7587,A
561,0.50179,1.2,1,0.42652,0.21744,0.66906,561,2.37514,0.126,0.06691,0.56033,5,2D1U,1.0,True,0.323,67,True,left,-0.2509,0.3402,1.0736,0.7334,1.7819,2.2069,0.4249,A
562,0.50179,0.1,1,0.42652,0.32616,0.61051,562,2.40859,0.09,0.04182,0.54361,5,2D1U,1.0,True,0.218,68,True,left,0.08363,0.409,0.9837,0.5747,1.5338,2.1504,0.6166,A
563,0.50179,0.1,1,0.37634,0.23417,0.44325,563,2.09916,0.09,0.04182,0.54361,5,2D1U,1.0,True,0.109,68,True,left,-0.2509,0.3597,0.9343,0.5746,1.4847,1.768,0.2833,A
564,0.50179,1.2,2,0.41816,0.20908,0.51016,564,2.16607,0.054,0.02509,0.52688,5,2D1U,2.0,True,0.404,68,False,right,0.08363,1.6385,2.0715,0.433,0.2876,1.047,0.7594,A
565,0.50179,1.2,1,0.32616,0.24253,0.54361,565,1.9988,-0.234,-0.11708,0.38471,5,2U1D,1.0,False,0.305,81,False,left,-0.2509,0.2378,0.7961,0.5583,1.3793,1.8044,0.4251,A
566,0.50179,0.1,1,0.35125,0.40143,0.61888,566,2.24133,-0.27,-0.13381,0.36798,5,2U1D,2.0,True,0.112,82,True,right,0.08363,0.3352,0.7356,0.4004,1.2936,1.9103,0.6167,A
567,0.50179,0.1,2,0.44325,0.25926,0.76941,567,2.50059,0.054,0.02509,0.52688,5,2D1U,1.0,False,0.775,68,False,left,-0.2509,1.618,2.1257,0.5077,0.5516,0.8347,0.283,A
568,0.50179,1.2,2,0.36798,0.37634,0.78614,568,2.57586,0.09,0.04182,0.54361,5,2D1U,2.0,True,0.292,69,True,right,0.08363,1.8645,2.3146,0.45,0.2397,0.9979,0.7583,A
569,0.50179,1.2,1,0.26762,0.26762,0.80287,569,2.20788,-0.27,-0.13381,0.36798,5,2U1D,1.0,False,0.369,82,True,left,-0.2509,0.1824,0.7237,0.5414,1.5658,1.9908,0.425,A
570,0.50179,0.1,1,0.28435,0.38471,0.84468,570,2.35842,-0.306,-0.15054,0.34289,5,2U1D,1.0,False,0.308,82,False,left,0.08363,0.2655,0.6405,0.375,1.4238,2.0404,0.6166,A
571,0.50179,0.1,2,0.38471,0.35962,0.45998,571,2.24971,0.09,0.04182,0.54361,5,2D1U,2.0,True,0.166,69,True,right,-0.2509,1.2479,1.7731,0.5252,0.4901,0.7725,0.2824,A
572,0.50179,1.2,1,0.35125,0.35962,0.86977,572,2.40859,-0.342,-0.16726,0.32616,5,2U1D,2.0,True,0.226,82,False,right,0.08363,0.2638,0.7638,0.4999,1.5047,2.2636,0.7589,A
573,0.50179,1.2,2,0.41816,0.35125,0.8865,573,2.68458,0.054,0.02509,0.52688,5,2D1U,1.0,False,0.277,70,True,left,-0.2509,1.8489,2.2826,0.4336,0.4574,0.8822,0.4248,A
574,0.50179,0.1,2,0.40143,0.30108,0.54361,574,2.07407,-0.342,-0.16726,0.32616,5,2U1D,1.0,True,0.283,82,False,left,0.08363,1.5143,1.8227,0.3084,0.3394,0.9562,0.6168,A
575,0.50179,0.1,1,0.32616,0.22581,0.82796,575,2.42533,0.09,0.04182,0.54361,5,2D1U,1.0,True,0.132,71,True,left,-0.2509,0.3068,0.8817,0.5749,1.815,2.0984,0.2834,A
576,0.50179,1.2,2,0.27599,0.41816,0.80287,576,2.54242,0.09,0.04182,0.54361,5,2D1U,1.0,False,0.276,71,True,left,0.08363,1.7945,2.2447,0.4502,0.1529,0.9111,0.7582,A
577,0.50179,1.2,2,0.39307,0.39307,0.6356,577,2.26642,-0.306,-0.15054,0.34289,5,2U1D,1.0,True,0.185,83,True,left,-0.2509,1.5757,1.8263,0.2506,0.4348,0.8597,0.425,A
578,0.50179,0.1,1,0.39307,0.29271,0.71924,578,2.2497,-0.306,-0.15054,0.34289,5,2U1D,2.0,True,0.237,83,True,right,0.08363,0.3785,0.7537,0.3753,1.4118,2.0286,0.6168,A
579,0.50179,0.1,2,0.23417,0.36798,0.53524,579,2.19951,0.126,0.06691,0.56033,5,2D1U,2.0,True,0.336,71,False,right,-0.2509,1.1701,1.712,0.5419,0.3367,0.6201,0.2834,A
580,0.50179,1.2,1,0.23417,0.22581,0.49343,580,2.01553,0.126,0.06691,0.56033,5,2D1U,2.0,False,0.259,71,False,right,0.08363,0.1478,0.8817,0.7339,1.2477,2.0067,0.7589,A
581,0.50179,1.2,1,0.20072,0.37634,0.86977,581,2.52568,0.162,0.08363,0.57706,5,2D1U,1.0,True,0.497,71,False,left,-0.2509,0.115,0.865,0.7499,1.7733,2.1982,0.4249,A
582,0.50179,0.1,2,0.21744,0.36798,0.89486,582,2.55913,0.162,0.08363,0.57706,5,2D1U,2.0,True,0.304,71,False,right,0.08363,1.6855,2.2432,0.5577,0.1607,0.777,0.6163,A
583,0.50179,0.1,2,0.23417,0.2509,0.78614,583,2.14098,-0.27,-0.13381,0.36798,5,2U1D,1.0,True,0.39,83,False,left,-0.2509,1.4278,1.7781,0.3502,0.3438,0.6278,0.284,A
584,0.50179,1.2,1,0.34289,0.36798,0.81959,584,2.59258,0.126,0.06691,0.56033,5,2D1U,1.0,True,0.333,72,True,left,0.08363,0.2578,0.9919,0.7341,1.6834,2.4414,0.758,A
585,0.50179,1.2,2,0.20072,0.35125,0.71087,585,2.32496,0.126,0.06691,0.56033,5,2D1U,1.0,False,0.218,72,True,left,-0.2509,1.4594,1.9255,0.4661,0.2428,0.6677,0.4248,A
586,0.50179,0.1,1,0.35962,0.26762,0.51016,586,2.00717,-0.27,-0.13381,0.36798,5,2U1D,2.0,True,0.121,83,False,right,0.08363,0.3394,0.7395,0.4001,1.1888,1.8061,0.6172,A
587,0.50179,0.1,1,0.42652,0.29271,0.7276,587,2.52568,0.162,0.08363,0.57706,5,2D1U,1.0,True,0.225,73,True,left,-0.2509,0.4052,1.0141,0.609,1.8465,2.1302,0.2837,A
588,0.50179,1.2,1,0.20072,0.35125,0.46834,588,1.90681,-0.234,-0.11708,0.38471,5,2U1D,1.0,False,0.247,83,False,left,0.08363,0.1173,0.6751,0.5577,1.0175,1.7756,0.7581,A
589,0.50179,1.2,1,0.20072,0.2509,0.74432,589,2.27479,0.162,0.08363,0.57706,5,2D1U,1.0,True,0.297,73,True,left,-0.2509,0.1149,0.865,0.7501,1.6483,2.0734,0.4251,A
590,0.50179,0.1,1,0.34289,0.4098,0.62724,590,2.44205,0.126,0.06691,0.56033,5,2D1U,2.0,False,0.212,74,True,right,0.08363,0.3207,0.9136,0.5929,1.4798,2.0964,0.6166,A
591,0.50179,0.1,2,0.25926,0.28435,0.51852,591,1.9319,-0.27,-0.13381,0.36798,5,2U1D,1.0,True,0.257,84,True,left,-0.2509,1.1809,1.531,0.35,0.364,0.6476,0.2836,A
592,0.50179,1.2,1,0.43489,0.33453,0.78614,592,2.42533,-0.27,-0.13381,0.36798,5,2U1D,2.0,True,0.292,84,True,right,0.08363,0.3461,0.8886,0.5425,1.5468,2.3053,0.7584,A
593,0.50179,1.2,1,0.29271,0.40143,0.89486,593,2.4755,-0.234,-0.11708,0.38471,5,2U1D,1.0,False,0.265,85,True,left,-0.2509,0.2065,0.7638,0.5573,1.6977,2.1225,0.4247,A
594,0.50179,0.1,1,0.33453,0.36798,0.4098,594,1.98208,-0.27,-0.13381,0.36798,5,2U1D,2.0,True,0.217,86,True,right,0.08363,0.3197,0.7197,0.4,1.0698,1.6866,0.6167,A
595,0.50179,0.1,1,0.39307,0.20908,0.69415,595,2.37515,0.162,0.08363,0.57706,5,2D1U,1.0,True,0.328,75,True,left,-0.2509,0.374,0.9826,0.6086,1.7826,2.0654,0.2828,A
596,0.50179,1.2,1,0.40143,0.38471,0.49343,596,2.14934,-0.27,-0.13381,0.36798,5,2U1D,1.0,False,0.113,86,True,left,0.08363,0.314,0.856,0.5419,1.2225,1.9809,0.7583,A
597,0.50179,1.2,2,0.32616,0.4098,0.89486,597,2.70967,0.162,0.08363,0.57706,5,2D1U,2.0,True,0.21,75,True,right,-0.2509,1.765,2.2491,0.4841,0.3657,0.7906,0.4248,A
598,0.50179,0.1,2,0.35125,0.29271,0.58542,598,2.07406,-0.306,-0.15054,0.34289,5,2U1D,1.0,True,0.285,86,False,left,0.08363,1.5062,1.8316,0.3253,0.289,0.9064,0.6174,A
599,0.50179,0.1,1,0.4098,0.30108,0.55197,599,2.10753,-0.306,-0.15054,0.34289,5,2U1D,1.0,False,0.205,86,False,left,-0.2509,0.3885,0.7633,0.3748,1.4218,1.7051,0.2833,A
600,0.50179,1.2,1,0.25926,0.25926,0.87814,600,2.22461,-0.342,-0.16726,0.32616,5,2U1D,2.0,True,0.419,86,False,right,0.08363,0.1758,0.6755,0.4998,1.4255,2.1833,0.7578,A
601,0.50179,1.2,1,0.34289,0.27599,0.61051,601,2.29151,0.126,0.06691,0.56033,5,2D1U,1.0,True,0.346,76,True,left,-0.2509,0.2535,0.9875,0.734,1.6367,2.062,0.4254,A
602,0.50179,0.1,2,0.29271,0.44325,0.41816,602,2.21624,0.126,0.06691,0.56033,5,2D1U,1.0,False,0.134,76,True,left,0.08363,1.2793,1.8209,0.5416,0.2289,0.8459,0.617,A
603,0.50179,0.1,1,0.34289,0.41816,0.69415,603,2.28315,-0.342,-0.16726,0.32616,5,2U1D,2.0,True,0.112,86,False,right,-0.2509,0.3246,0.6829,0.3583,1.4827,1.7661,0.2835,A
604,0.50179,1.2,1,0.22581,0.24253,0.42652,604,1.73954,-0.306,-0.15054,0.34289,5,2U1D,2.0,True,0.312,87,True,right,0.08363,0.1392,0.6556,0.5165,0.9557,1.7143,0.7586,A
605,0.50179,1.2,2,0.41816,0.34289,0.83632,605,2.44205,-0.306,-0.15054,0.34289,5,2U1D,1.0,True,0.276,87,True,left,-0.2509,1.801,2.0518,0.2508,0.4601,0.8851,0.425,A
606,0.50179,0.1,1,0.22581,0.35962,0.50179,606,1.95699,-0.27,-0.13381,0.36798,5,2U1D,1.0,False,0.113,87,False,left,0.08363,0.2091,0.6094,0.4003,1.0509,1.6677,0.6168,A
607,0.50179,0.1,1,0.25926,0.40143,0.66069,607,2.40023,0.162,0.08363,0.57706,5,2D1U,1.0,True,0.24,77,True,left,-0.2509,0.2384,0.8466,0.6082,1.6133,1.8966,0.2833,A
608,0.50179,1.2,2,0.27599,0.32616,0.67742,608,2.35842,0.162,0.08363,0.57706,5,2D1U,2.0,True,0.365,77,True,right,0.08363,1.6656,2.149,0.4834,0.1487,0.9072,0.7586,A
