,standardDur,audNoise,order,preDur,postDur,isiDur,trial_num,totalDur,delta_dur_percents,deltaDurS,testDurS,intensities,current_stair,responses,is_correct,response_rts,stair_num_reversal,stair_is_reversal,response_keys,conflictDur,recordedOnsetVisualTest,recordedOffsetVisualTest,recordedDurVisualTest,recordedOnsetVisualStandard,recordedOffsetVisualStandard,recordedDurVisualStandard,modalityCue,VisualPSE
0,0.50017,1.2,1,0.40847,0.44182,0.90864,0,2.45083,-0.6159999999999999,-0.30844,0.19173,5,lapse_rate,2.0,True,1.437,0,False,right,0.25008,0.2656,0.7396,0.474,1.3821,2.4155,1.0334,A,0.28
1,0.50017,1.2,1,0.42514,0.28343,0.57519,1,1.97566,-0.616,-0.30844,0.19173,5,2D1U,2.0,True,0.509,0,False,right,0.0,0.2804,0.756,0.4756,1.1894,1.973,0.7836,A,0.28
2,0.50017,0.1,1,0.42514,0.45015,0.85029,2,2.41748,-0.6159999999999999,-0.30844,0.19173,5,lapse_rate,2.0,True,0.317,0,False,right,-0.16672,0.2948,0.7618,0.467,1.5615,2.17,0.6085,A,0.275
3,0.50017,1.2,2,0.55019,0.85029,1.44215,3,3.53453,-0.616,-0.30844,0.19173,5,1D2U,1.0,True,0.3,0,False,left,0.25008,2.6126,3.088,0.4754,0.2795,1.3128,1.0333,A,0.28
4,0.50017,1.2,1,0.33345,0.35012,0.4835,4,1.94233,-0.456,-0.22508,0.27509,5,2D1U,2.0,True,0.133,0,False,right,0.0,0.1907,0.7491,0.5583,1.0909,1.8741,0.7832,A,0.28
5,0.50017,0.1,1,0.37513,0.38346,0.89197,5,2.50085,-0.296,-0.15005,0.35012,5,2D1U,2.0,True,1.493,0,False,right,-0.16672,0.2389,0.8639,0.6249,1.7059,2.3135,0.6076,A,0.275
6,0.50017,0.1,1,0.64188,0.40847,0.85029,6,2.59254,-0.6159999999999999,-0.30844,0.19173,5,lapse_rate,2.0,True,1.757,0,False,right,0.25008,0.5091,0.9754,0.4663,1.5671,2.5921,1.025,A,0.275
7,0.50017,0.1,1,0.40014,0.35012,0.62521,7,2.06737,-0.616,-0.30844,0.19173,5,1D2U,2.0,True,1.192,0,False,right,0.0,0.2687,0.7354,0.4667,1.2271,2.0014,0.7743,A,0.275
8,0.50017,0.1,2,0.27509,0.35845,0.46682,8,1.87562,-0.456,-0.22508,0.27509,5,1D2U,1.0,True,0.451,0,False,left,-0.16672,1.1637,1.7137,0.55,0.2213,0.8305,0.6092,A,0.275
9,0.50017,0.1,2,0.52518,0.86696,0.86696,9,2.951,-0.6159999999999999,-0.30844,0.19173,5,lapse_rate,1.0,True,0.658,0,False,left,0.25008,2.0299,2.4964,0.4665,0.2711,1.2965,1.0254,A,0.275
10,0.50017,1.2,2,0.76693,0.55852,1.50051,10,3.75961,-0.136,-0.06669,0.43348,5,2D1U,2.0,False,1.408,0,False,right,0.0,2.7651,3.4821,0.717,0.6238,1.4071,0.7833,A,0.28
11,0.50017,1.2,1,0.27509,0.27509,0.46682,11,1.79226,-0.456,-0.22508,0.27509,5,1D2U,2.0,True,3.851,0,False,right,-0.16672,0.1301,0.6894,0.5594,1.0972,1.7142,0.6171,A,0.28
12,0.50017,0.1,2,0.89197,0.56686,1.26709,12,4.17641,0.9,0.45015,0.95032,5,lapse_rate,2.0,True,37.19,0,False,right,0.25008,2.7896,4.0146,1.225,0.6313,1.6563,1.0251,A,0.275
13,0.50017,1.2,2,0.30844,0.42514,0.47516,13,2.14239,-0.136,-0.06669,0.43348,5,2D1U,1.0,True,1.182,0,False,left,0.0,1.2835,2.0009,0.7174,0.1667,0.9505,0.7838,A,0.28
14,0.50017,0.1,2,0.35012,0.34178,0.64188,14,2.18407,-0.296,-0.15005,0.35012,5,1D2U,2.0,False,1.9,0,False,right,-0.16672,1.4146,2.0392,0.6246,0.2977,0.906,0.6083,A,0.275
15,0.50017,0.1,1,0.57519,0.64188,1.12538,15,3.35113,0.024,0.00834,0.50851,5,2D1U,2.0,False,0.7,0,False,right,0.25008,0.444,1.227,0.7831,2.094,3.1192,1.0253,A,0.275
16,0.50017,1.2,2,0.56686,0.45849,0.85862,16,2.57587,-0.6159999999999999,-0.30844,0.19173,5,lapse_rate,1.0,True,0.399,0,False,left,0.0,1.9229,2.3979,0.475,0.4234,1.2072,0.7839,A,0.28
17,0.50017,0.1,2,0.30844,0.33345,0.52518,17,1.97568,-0.376,-0.19173,0.30844,5,1D2U,1.0,True,0.425,1,True,left,-0.16672,1.2601,1.8436,0.5835,0.26,0.8685,0.6084,A,0.275
18,0.50017,1.2,2,0.7836,0.47516,0.86696,18,3.21776,0.184,0.0917,0.59187,5,2D1U,1.0,False,0.241,0,False,left,0.25008,2.2729,3.1487,0.8757,0.5153,1.5481,1.0328,A,0.28
19,0.50017,0.1,1,0.77526,0.47516,1.60054,19,3.54286,-0.6159999999999999,-0.30844,0.19173,5,lapse_rate,2.0,True,0.342,0,False,right,0.0,0.6394,1.1061,0.4667,2.5727,3.3481,0.7754,A,0.275
20,0.50017,1.2,2,0.37513,0.31677,0.40014,20,1.90065,-0.376,-0.19173,0.30844,5,1D2U,1.0,True,0.125,1,True,left,-0.16672,1.1917,1.7838,0.5921,0.3172,0.933,0.6158,A,0.28
21,0.50017,1.2,1,0.8753,0.65022,1.60888,21,4.3098,0.344,0.17506,0.67523,5,2D1U,1.0,True,0.476,0,False,left,0.25008,0.732,1.69,0.958,3.0315,4.0645,1.033,A,0.28
22,0.50017,1.2,1,0.6919,0.50017,1.33378,22,3.97634,0.9,0.45015,0.95032,5,lapse_rate,1.0,True,0.433,0,False,left,0.0,0.5511,1.7847,1.2336,2.9759,3.7602,0.7844,A,0.28
23,0.50017,0.1,2,0.37513,0.34178,0.80027,23,2.3508,-0.336,-0.16672,0.33345,5,1D2U,1.0,True,0.434,2,True,left,-0.16672,1.6002,2.2086,0.6084,0.3253,0.9337,0.6084,A,0.275
24,0.50017,0.1,2,0.65856,0.80861,1.66723,24,4.3098,0.344,0.17506,0.67523,5,2D1U,2.0,True,0.112,0,False,right,0.25008,2.9539,3.9035,0.9496,0.3959,1.4207,1.0248,A,0.275
25,0.50017,1.2,1,0.4835,0.53351,1.19207,25,3.65957,0.9,0.45015,0.95032,5,lapse_rate,1.0,True,0.416,0,False,left,0.0,0.3409,1.5741,1.2333,2.6241,3.4075,0.7834,A,0.28
26,0.50017,1.2,1,0.23341,0.33345,0.77526,26,2.03402,-0.6159999999999999,-0.30844,0.19173,5,lapse_rate,2.0,True,0.183,0,False,right,-0.16672,0.09,0.5646,0.4746,1.2818,1.898,0.6162,A,0.28
27,0.50017,0.1,2,0.83362,0.44182,1.50884,27,3.918,0.264,0.13338,0.63355,5,2D1U,2.0,True,0.408,1,True,right,0.25008,2.9745,3.8828,0.9082,0.5739,1.5996,1.0257,A,0.275
28,0.50017,1.2,2,0.38346,0.37513,0.65022,28,2.24243,-0.336,-0.16672,0.33345,5,1D2U,1.0,True,0.742,2,True,left,0.0,1.5359,2.1529,0.617,0.2442,1.0276,0.7833,A,0.28
29,0.50017,1.2,2,0.35012,0.41681,0.55019,29,2.45084,0.264,0.13338,0.63355,5,2D1U,2.0,True,0.399,1,True,right,-0.16672,1.3151,2.2318,0.9167,0.2896,0.9063,0.6167,A,0.28
30,0.50017,1.2,2,0.80027,0.77526,0.85862,30,3.28444,-0.296,-0.15005,0.35012,5,1D2U,1.0,True,0.492,2,False,left,0.25008,2.2803,2.9135,0.6332,0.5303,1.5635,1.0332,A,0.28
31,0.50017,0.1,2,0.41681,0.60854,1.00034,31,3.47618,0.9,0.45015,0.95032,5,lapse_rate,2.0,True,0.375,0,False,right,0.0,1.9212,3.1459,1.2247,0.2795,1.0548,0.7754,A,0.275
32,0.50017,0.1,1,0.42514,0.25008,0.76693,32,2.29244,-0.296,-0.15005,0.35012,5,1D2U,1.0,False,0.392,2,False,left,-0.16672,0.2905,0.9151,0.6246,1.6321,2.2407,0.6086,A,0.275
33,0.50017,1.2,1,0.85029,0.9003,1.22541,33,4.42649,0.9,0.45015,0.95032,5,lapse_rate,1.0,True,0.441,0,False,left,0.25008,0.7091,1.9428,1.2336,2.9012,3.9342,1.033,A,0.28
34,0.50017,0.1,2,0.3918,0.43348,0.67523,34,2.59255,0.184,0.0917,0.59187,5,2D1U,2.0,True,0.475,1,False,right,0.0,1.5725,2.439,0.8665,0.2557,1.0312,0.7755,A,0.275
35,0.50017,0.1,1,0.27509,0.44182,0.66689,35,2.21742,-0.336,-0.16672,0.33345,5,1D2U,2.0,True,0.376,3,True,right,-0.16672,0.1398,0.748,0.6082,1.3648,1.9729,0.6081,A,0.275
36,0.50017,1.2,2,0.40847,0.65022,0.86696,36,3.01769,0.184,0.0917,0.59187,5,2D1U,2.0,True,0.458,1,False,right,0.25008,1.8983,2.7733,0.875,0.1399,1.1726,1.0327,A,0.28
37,0.50017,0.1,1,0.53351,0.55852,1.34212,37,3.12605,-0.6159999999999999,-0.30844,0.19173,5,lapse_rate,2.0,True,0.409,0,False,right,0.0,0.4008,0.8669,0.4661,2.0762,2.8508,0.7747,A,0.275
38,0.50017,1.2,2,0.21674,0.35845,0.6919,38,2.31745,0.104,0.05002,0.55019,5,2D1U,2.0,True,0.384,1,False,right,-0.16672,1.3232,2.1564,0.8333,0.1558,0.7731,0.6173,A,0.28
39,0.50017,1.2,1,0.55019,0.65022,1.50884,39,3.54287,-0.336,-0.16672,0.33345,5,1D2U,2.0,True,0.316,3,True,right,0.25008,0.4044,1.0211,0.6167,2.2627,3.2962,1.0336,A,0.28
40,0.50017,1.2,2,0.52518,0.70857,1.00867,40,3.69291,0.9,0.45015,0.95032,5,lapse_rate,1.0,False,0.426,0,False,left,0.0,2.0347,3.268,1.2334,0.3847,1.1676,0.7829,A,0.28
41,0.50017,0.1,1,0.32511,0.26676,0.66689,41,1.95066,-0.6159999999999999,-0.30844,0.19173,5,lapse_rate,2.0,True,0.484,0,False,right,-0.16672,0.1949,0.6618,0.4669,1.279,1.8871,0.6081,A,0.275
42,0.50017,0.1,2,0.83362,0.52518,1.07536,42,3.28445,-0.296,-0.15005,0.35012,5,1D2U,1.0,True,0.433,4,True,left,0.25008,2.5386,3.1635,0.6249,0.5718,1.5967,1.0248,A,0.275
43,0.50017,0.1,2,0.42514,0.3918,0.51684,43,2.38414,0.104,0.05002,0.55019,5,2D1U,2.0,True,0.483,1,False,right,0.0,1.4491,2.2743,0.8253,0.2912,1.0658,0.7746,A,0.275
44,0.50017,0.1,1,0.34178,0.33345,0.71691,44,2.40082,0.024,0.00834,0.50851,5,2D1U,2.0,False,0.425,1,False,right,-0.16672,0.2045,0.9885,0.7841,1.655,2.2633,0.6084,A,0.275
45,0.50017,1.2,2,0.66689,0.72525,1.50884,45,3.59288,-0.6159999999999999,-0.30844,0.19173,5,lapse_rate,1.0,True,0.358,0,False,left,0.25008,2.7976,3.2724,0.4748,0.3973,1.431,1.0338,A,0.28
46,0.50017,1.2,1,0.55852,0.89197,0.91698,46,3.21776,-0.296,-0.15005,0.35012,5,1D2U,1.0,False,0.467,4,True,left,0.0,0.4166,1.0503,0.6337,1.8254,2.6088,0.7834,A,0.28
47,0.50017,1.2,1,0.31677,0.26676,0.67523,47,1.95066,-0.6159999999999999,-0.30844,0.19173,5,lapse_rate,2.0,True,0.426,0,False,right,-0.16672,0.178,0.6531,0.4751,1.2696,1.8856,0.616,A,0.28
48,0.50017,1.2,2,0.53351,0.76693,1.64222,48,3.97634,0.064,0.03334,0.53351,5,2D1U,2.0,True,0.341,2,True,right,0.25008,2.8027,3.62,0.8172,0.2695,1.3027,1.0332,A,0.28
49,0.50017,1.2,1,0.35845,0.34178,0.75025,49,2.2841,-0.336,-0.16672,0.33345,5,1D2U,2.0,True,0.267,5,True,right,0.0,0.2144,0.8312,0.6168,1.4398,2.2233,0.7835,A,0.28
50,0.50017,1.2,2,0.3918,0.44182,0.52518,50,2.80929,0.9,0.45015,0.95032,5,lapse_rate,2.0,True,0.342,0,False,right,-0.16672,1.3314,2.5648,1.2334,0.3313,0.9485,0.6172,A,0.28
51,0.50017,0.1,1,0.45015,0.86696,0.96699,51,3.31778,0.064,0.03334,0.53351,5,2D1U,1.0,True,0.399,2,True,left,0.25008,0.3169,1.1248,0.8079,1.8336,2.8585,1.0249,A,0.275
52,0.50017,0.1,1,0.84195,0.55019,1.70057,52,3.92633,-0.336,-0.16672,0.33345,5,1D2U,2.0,True,0.408,5,True,right,0.0,0.7095,1.318,0.6086,2.8851,3.6597,0.7746,A,0.275
53,0.50017,0.1,1,0.21674,0.43348,0.81694,53,2.31745,-0.296,-0.15005,0.35012,5,1D2U,2.0,True,0.384,6,True,right,-0.16672,0.0841,0.7098,0.6257,1.4764,2.0847,0.6083,A,0.275
54,0.50017,1.2,2,0.4835,0.80861,1.35046,54,3.65125,0.024,0.00834,0.50851,5,2D1U,1.0,False,0.308,3,True,left,0.25008,2.4573,3.2491,0.7918,0.216,1.2493,1.0333,A,0.28
55,0.50017,1.2,1,0.73358,0.51684,1.61721,55,4.31812,0.9,0.45015,0.95032,5,lapse_rate,1.0,True,0.268,0,False,left,0.0,0.5953,1.8292,1.2339,3.3032,4.0871,0.7839,A,0.28
56,0.50017,1.2,2,0.42514,0.35845,0.70024,56,2.51751,0.064,0.03334,0.53351,5,2D1U,2.0,True,0.408,4,True,right,-0.16672,1.5394,2.3561,0.8166,0.364,0.9813,0.6173,A,0.28
57,0.50017,0.1,1,0.70857,0.42514,1.45883,57,3.28444,-0.6159999999999999,-0.30844,0.19173,5,lapse_rate,2.0,True,0.35,0,False,right,0.25008,0.5776,1.0441,0.4665,2.2441,3.2685,1.0244,A,0.275
58,0.50017,1.2,2,0.40014,0.86696,1.36713,58,3.48452,-0.296,-0.15005,0.35012,5,1D2U,1.0,True,0.258,6,True,left,0.0,2.2694,2.9027,0.6334,0.2606,1.0444,0.7838,A,0.28
59,0.50017,0.1,2,0.25842,0.22508,0.70857,59,2.22575,0.064,0.03334,0.53351,5,2D1U,2.0,True,0.408,4,True,right,-0.16672,1.394,2.2025,0.8085,0.2101,0.8192,0.6091,A,0.275
60,0.50017,0.1,2,0.8753,0.72525,1.62555,60,3.918,-0.6159999999999999,-0.30844,0.19173,5,lapse_rate,1.0,True,0.65,0,False,left,0.25008,3.1346,3.6008,0.4662,0.6181,1.643,1.0248,A,0.275
61,0.50017,0.1,2,0.6919,0.50017,0.80861,61,2.87598,-0.256,-0.12504,0.37513,5,1D2U,1.0,True,0.259,6,False,left,0.0,2.0083,2.6583,0.6501,0.5583,1.3338,0.7755,A,0.275
62,0.50017,0.1,2,0.3001,0.41681,0.71691,62,2.88431,0.9,0.45015,0.95032,5,lapse_rate,2.0,True,0.392,0,False,right,-0.16672,1.4431,2.6676,1.2246,0.251,0.8594,0.6083,A,0.275
63,0.50017,0.1,2,0.42514,0.8753,1.55052,63,3.72626,-0.256,-0.12504,0.37513,5,1D2U,1.0,True,0.112,6,False,left,0.25008,2.6068,3.2573,0.6505,0.1651,1.1896,1.0245,A,0.275
64,0.50017,1.2,2,0.40847,0.34178,0.86696,64,2.62589,0.024,0.00834,0.50851,5,2D1U,2.0,True,0.283,5,True,right,0.0,1.7719,2.5636,0.7916,0.2636,1.0468,0.7832,A,0.28
65,0.50017,1.2,1,0.37513,0.31677,0.77526,65,2.15906,-0.6159999999999999,-0.30844,0.19173,5,lapse_rate,2.0,True,0.35,0,False,right,-0.16672,0.231,0.7055,0.4744,1.4226,2.0397,0.6171,A,0.28
66,0.50017,1.2,1,0.8753,0.88363,1.07536,66,3.84297,0.024,0.00834,0.50851,5,2D1U,2.0,False,0.275,5,True,right,0.25008,0.73,1.5218,0.7918,2.3303,3.3634,1.0331,A,0.28
67,0.50017,1.2,2,0.6002,0.43348,0.89197,67,2.81762,-0.216,-0.10837,0.3918,5,1D2U,1.0,True,0.284,6,False,left,0.0,1.9903,2.6656,0.6754,0.4576,1.2405,0.7828,A,0.28
68,0.50017,0.1,1,0.31677,0.40014,0.9003,68,2.30911,-0.6159999999999999,-0.30844,0.19173,5,lapse_rate,2.0,True,0.225,0,False,right,-0.16672,0.1854,0.6523,0.4669,1.502,2.1105,0.6085,A,0.275
69,0.50017,0.1,2,0.63355,0.7836,0.85029,69,3.30112,0.064,0.03334,0.53351,5,2D1U,2.0,True,0.366,6,True,right,0.25008,2.1167,2.9256,0.8089,0.3755,1.4001,1.0246,A,0.275
70,0.50017,0.1,1,0.40014,0.73358,1.24209,70,3.26778,-0.216,-0.10837,0.3918,5,1D2U,2.0,True,0.375,6,False,right,0.0,0.2654,0.932,0.6666,2.0408,2.8161,0.7753,A,0.275
71,0.50017,0.1,1,0.27509,0.30844,0.62521,71,2.24242,0.064,0.03334,0.53351,5,2D1U,1.0,True,0.359,6,True,left,-0.16672,0.1388,0.947,0.8082,1.5224,2.1306,0.6083,A,0.275
72,0.50017,1.2,2,0.44182,0.55019,1.21708,72,3.65958,0.9,0.45015,0.95032,5,lapse_rate,2.0,True,0.258,0,False,right,0.25008,2.2857,3.5192,1.2335,0.1776,1.2107,1.0332,A,0.28
73,0.50017,1.2,1,0.44182,0.42514,0.82528,73,2.60088,-0.176,-0.0917,0.40847,5,1D2U,2.0,True,0.367,6,False,right,0.0,0.298,0.9894,0.6914,1.6727,2.4564,0.7837,A,0.28
74,0.50017,1.2,1,0.29177,0.40014,0.62521,74,2.00902,-0.6159999999999999,-0.30844,0.19173,5,lapse_rate,1.0,False,0.45,0,False,left,-0.16672,0.1453,0.6205,0.4752,1.187,1.804,0.617,A,0.28
75,0.50017,1.2,2,0.84195,0.46682,0.89197,75,3.10938,-0.176,-0.0917,0.40847,5,1D2U,1.0,True,0.292,6,False,left,0.25008,2.3543,3.0455,0.6912,0.5707,1.6039,1.0332,A,0.28
76,0.50017,1.2,2,0.49183,0.83362,1.00867,76,3.3428,0.024,0.00834,0.50851,5,2D1U,2.0,True,0.293,7,True,right,0.0,2.0018,2.7934,0.7915,0.3516,1.1347,0.7831,A,0.28
77,0.50017,0.1,1,0.27509,0.38346,0.49183,77,2.15906,0.024,0.00834,0.50851,5,2D1U,2.0,False,0.292,7,True,right,-0.16672,0.1437,0.9272,0.7835,1.3691,1.9783,0.6093,A,0.275
78,0.50017,1.2,2,0.72525,0.74192,0.97533,78,3.89299,0.9,0.45015,0.95032,5,lapse_rate,2.0,True,0.425,0,False,right,0.25008,2.3234,3.5569,1.2335,0.4568,1.4908,1.034,A,0.28
79,0.50017,0.1,2,0.45015,0.30844,0.72525,79,2.41749,-0.136,-0.06669,0.43348,5,1D2U,2.0,False,0.425,6,False,right,0.0,1.6859,2.3946,0.7088,0.3193,1.0942,0.7749,A,0.275
80,0.50017,0.1,1,0.3001,0.45015,0.80861,80,2.59254,0.064,0.03334,0.53351,5,2D1U,2.0,False,0.358,8,True,right,-0.16672,0.1635,0.9721,0.8086,1.7307,2.3386,0.6079,A,0.275
81,0.50017,1.2,2,0.84195,0.68356,1.06703,81,3.50118,-0.176,-0.0917,0.40847,5,1D2U,1.0,True,0.334,7,True,left,0.25008,2.5351,3.2257,0.6906,0.5764,1.6105,1.0341,A,0.28
82,0.50017,1.2,1,0.41681,0.55852,1.70891,82,3.37614,-0.6159999999999999,-0.30844,0.19173,5,lapse_rate,2.0,True,0.375,0,False,right,0.0,0.2732,0.7485,0.4753,2.3152,3.0986,0.7834,A,0.28
83,0.50017,0.1,1,0.25842,0.37513,0.77526,83,2.10071,-0.6159999999999999,-0.30844,0.19173,5,lapse_rate,2.0,True,0.617,0,False,right,-0.16672,0.122,0.5884,0.4664,1.3136,1.9217,0.6081,A,0.275
84,0.50017,1.2,2,0.9003,0.82528,1.35046,84,4.1264,0.104,0.05002,0.55019,5,2D1U,2.0,True,0.317,8,False,right,0.25008,2.8717,3.706,0.8343,0.6307,1.6641,1.0334,A,0.28
85,0.50017,1.2,2,0.52518,0.83362,1.14205,85,3.40949,-0.176,-0.0917,0.40847,5,1D2U,1.0,True,0.318,7,True,left,0.0,2.1637,2.8554,0.6917,0.3808,1.1638,0.7831,A,0.28
86,0.50017,0.1,2,0.31677,0.21674,0.79193,86,2.3758,0.104,0.05002,0.55019,5,2D1U,2.0,True,0.284,8,False,right,-0.16672,1.5288,2.3537,0.8249,0.2624,0.8699,0.6076,A,0.275
87,0.50017,0.1,1,0.75859,0.89197,1.62555,87,4.20976,-0.136,-0.06669,0.43348,5,1D2U,1.0,False,0.192,8,True,left,0.25008,0.6267,1.3348,0.7081,2.7017,3.7271,1.0254,A,0.275
88,0.50017,0.1,2,0.35845,0.45015,0.41681,88,2.6759,0.9,0.45015,0.95032,5,lapse_rate,2.0,True,0.275,0,False,right,0.0,1.2809,2.5055,1.2245,0.2223,0.9971,0.7748,A,0.275
89,0.50017,0.1,2,0.30844,0.33345,0.76693,89,2.4425,0.064,0.03334,0.53351,5,2D1U,2.0,True,0.242,9,True,right,-0.16672,1.5017,2.3101,0.8084,0.2604,0.868,0.6076,A,0.275
90,0.50017,1.2,2,0.62521,0.8753,1.02535,90,3.4345,-0.176,-0.0917,0.40847,5,1D2U,1.0,True,0.309,9,True,left,0.25008,2.2727,2.9638,0.6911,0.3563,1.3895,1.0332,A,0.28
91,0.50017,1.2,1,0.58353,0.45015,1.20041,91,2.92599,-0.6159999999999999,-0.30844,0.19173,5,lapse_rate,2.0,True,0.384,0,False,right,0.0,0.4443,0.9189,0.4746,1.9776,2.761,0.7834,A,0.28
92,0.50017,1.2,1,0.24175,0.3918,0.86696,92,2.40915,-0.176,-0.0917,0.40847,5,1D2U,1.0,False,0.234,9,True,left,-0.16672,0.0978,0.7893,0.6915,1.5976,2.2142,0.6166,A,0.28
93,0.50017,1.2,2,0.50017,0.6002,1.02535,93,3.57621,0.9,0.45015,0.95032,5,lapse_rate,2.0,True,0.325,0,False,right,0.25008,2.1484,3.4065,1.2582,0.2314,1.2648,1.0334,A,0.28
94,0.50017,1.2,2,0.30844,0.42514,0.45849,94,2.22575,0.064,0.03334,0.53351,5,2D1U,2.0,True,0.158,9,True,right,0.0,1.2655,2.0818,0.8163,0.1655,0.9484,0.7829,A,0.28
95,0.50017,0.1,1,0.32511,0.44182,0.4835,95,2.1424,-0.216,-0.10837,0.3918,5,1D2U,2.0,True,0.267,9,False,right,-0.16672,0.1943,0.8603,0.666,1.2943,1.9019,0.6076,A,0.275
96,0.50017,1.2,1,0.60854,0.89197,1.26709,96,3.4595,-0.6159999999999999,-0.30844,0.19173,5,lapse_rate,2.0,True,0.35,0,False,right,0.25008,0.4674,0.9427,0.4753,1.9428,2.9762,1.0334,A,0.28
97,0.50017,0.1,1,0.33345,0.44182,0.55852,97,2.34247,0.024,0.00834,0.50851,5,2D1U,1.0,True,0.367,9,False,left,0.0,0.197,0.9801,0.7831,1.4054,2.1804,0.775,A,0.275
98,0.50017,0.1,1,0.24175,0.35845,0.51684,98,1.80894,-0.6159999999999999,-0.30844,0.19173,5,lapse_rate,2.0,True,0.4,0,False,right,-0.16672,0.1071,0.5743,0.4672,1.0403,1.6492,0.6089,A,0.275
99,0.50017,0.1,2,0.64188,0.45849,1.6839,99,3.67624,-0.216,-0.10837,0.3918,5,1D2U,1.0,True,0.234,9,False,left,0.25008,2.9563,3.623,0.6668,0.3819,1.4072,1.0252,A,0.275
100,0.50017,1.2,2,0.38346,0.28343,0.74192,100,2.41749,0.024,0.00834,0.50851,5,2D1U,2.0,True,0.111,9,False,right,0.0,1.6282,2.4198,0.7916,0.2448,1.0275,0.7827,A,0.28
101,0.50017,1.2,1,0.29177,0.24175,0.50851,101,2.03403,-0.016,-0.00834,0.49183,5,2D1U,2.0,True,0.333,9,False,right,-0.16672,0.1474,0.9223,0.7749,1.3728,1.9901,0.6172,A,0.28
102,0.50017,1.2,2,0.55019,0.63355,0.92531,102,2.80095,-0.6159999999999999,-0.30844,0.19173,5,lapse_rate,1.0,True,0.114,0,False,left,0.25008,2.0987,2.5741,0.4754,0.2827,1.315,1.0323,A,0.28
103,0.50017,1.2,1,0.43348,0.40014,0.86696,103,2.60922,-0.176,-0.0917,0.40847,5,1D2U,2.0,True,0.568,10,True,right,0.0,0.2904,0.9821,0.6917,1.7066,2.4907,0.7841,A,0.28
104,0.50017,0.1,1,0.33345,0.29177,0.57519,104,2.10905,-0.176,-0.0917,0.40847,5,1D2U,2.0,True,0.434,10,True,right,-0.16672,0.1965,0.8793,0.6828,1.405,2.0132,0.6083,A,0.275
105,0.50017,1.2,1,0.45849,0.56686,0.81694,105,2.53419,-0.6159999999999999,-0.30844,0.19173,5,lapse_rate,2.0,True,0.401,0,False,right,0.25008,0.3187,0.793,0.4743,1.3428,2.3765,1.0337,A,0.28
106,0.50017,0.1,1,0.51684,0.45015,1.33378,106,3.30945,0.024,0.00834,0.50851,5,2D1U,1.0,True,0.358,10,True,left,0.0,0.381,1.1643,0.7833,2.3643,3.1391,0.7747,A,0.275
107,0.50017,0.1,2,0.32511,0.21674,0.58353,107,2.05903,-0.136,-0.06669,0.43348,5,1D2U,1.0,True,0.408,10,False,left,-0.16672,1.3261,2.0314,0.7053,0.2732,0.8751,0.6019,A,0.275
108,0.50017,0.1,2,0.50017,0.82528,1.42548,108,4.20142,0.9,0.45015,0.95032,5,lapse_rate,2.0,True,0.225,0,False,right,0.25008,2.5565,3.7816,1.2251,0.2399,1.2649,1.025,A,0.275
109,0.50017,1.2,1,0.50851,0.68356,1.72558,109,3.92633,0.024,0.00834,0.50851,5,2D1U,2.0,False,0.258,10,True,right,0.0,0.3629,1.1543,0.7914,2.7379,3.5209,0.7831,A,0.28
110,0.50017,0.1,1,0.29177,0.27509,0.68356,110,1.94232,-0.6159999999999999,-0.30844,0.19173,5,lapse_rate,2.0,True,0.442,0,False,right,-0.16672,0.1571,0.6238,0.4667,1.2572,1.8654,0.6082,A,0.275
111,0.50017,1.2,2,0.51684,0.65856,1.19207,111,3.40115,0.064,0.03334,0.53351,5,2D1U,2.0,True,0.458,10,False,right,0.25008,2.3287,3.1456,0.8169,0.2458,1.279,1.0332,A,0.28
112,0.50017,1.2,2,0.34178,0.35845,0.53351,112,2.16739,-0.136,-0.06669,0.43348,5,1D2U,2.0,False,0.5,10,False,right,0.0,1.3739,2.0906,0.7167,0.1995,0.9825,0.783,A,0.28
113,0.50017,1.2,2,0.38346,0.37513,0.75025,113,2.20074,-0.6159999999999999,-0.30844,0.19173,5,lapse_rate,1.0,True,0.483,0,False,left,-0.16672,1.5515,2.0263,0.4748,0.3263,0.9428,0.6165,A,0.28
114,0.50017,0.1,2,0.63355,0.55852,0.98367,114,3.20942,0.064,0.03334,0.53351,5,2D1U,1.0,False,0.341,10,False,left,0.25008,2.2509,3.0591,0.8082,0.3751,1.4007,1.0256,A,0.275
115,0.50017,0.1,1,0.29177,0.27509,0.75859,115,2.23409,-0.176,-0.0917,0.40847,5,1D2U,2.0,True,0.458,11,True,right,0.0,0.1536,0.8367,0.6832,1.4624,2.2372,0.7748,A,0.275
116,0.50017,1.2,1,0.21674,0.27509,0.72525,116,2.66757,0.9,0.45015,0.95032,5,lapse_rate,2.0,False,0.418,0,False,right,-0.16672,0.0721,1.3055,1.2334,1.9722,2.5887,0.6165,A,0.28
117,0.50017,0.1,2,0.75859,0.44182,1.06703,117,3.17608,-0.176,-0.0917,0.40847,5,1D2U,1.0,True,0.366,11,True,left,0.25008,2.4556,3.1388,0.6832,0.4972,1.522,1.0248,A,0.275
118,0.50017,1.2,1,0.85029,0.4835,1.26709,118,3.65124,0.104,0.05002,0.55019,5,2D1U,2.0,False,0.318,10,False,right,0.0,0.706,1.5392,0.8332,2.6642,3.4481,0.7839,A,0.28
119,0.50017,1.2,1,0.24175,0.38346,0.66689,119,2.22575,-0.136,-0.06669,0.43348,5,1D2U,2.0,True,0.291,12,True,right,-0.16672,0.0959,0.8126,0.7167,1.4205,2.0376,0.6172,A,0.28
120,0.50017,0.1,2,0.4835,0.80027,1.65056,120,4.38482,0.9,0.45015,0.95032,5,lapse_rate,2.0,True,0.334,0,False,right,0.25008,2.763,3.9886,1.2256,0.2222,1.2471,1.0249,A,0.275
121,0.50017,1.2,1,0.36679,0.40847,0.75025,121,2.60087,0.144,0.07503,0.57519,5,2D1U,2.0,False,0.367,10,False,right,0.0,0.2243,1.0825,0.8582,1.6912,2.4745,0.7833,A,0.28
122,0.50017,0.1,2,0.37513,0.22508,0.40014,122,2.45084,0.9,0.45015,0.95032,5,lapse_rate,2.0,True,0.334,0,False,right,-0.16672,1.1952,2.4196,1.2243,0.3199,0.9278,0.6079,A,0.275
123,0.50017,0.1,2,0.8753,0.77526,1.41715,123,4.15975,0.184,0.0917,0.59187,5,2D1U,1.0,False,0.242,10,False,left,0.25008,2.9244,3.7907,0.8662,0.6158,1.641,1.0251,A,0.275
124,0.50017,0.1,2,0.29177,0.42514,0.51684,124,2.1674,-0.136,-0.06669,0.43348,5,1D2U,1.0,True,0.366,12,True,left,0.0,1.3146,2.0235,0.7089,0.1569,0.9316,0.7747,A,0.275
125,0.50017,0.1,1,0.24175,0.35845,0.7836,125,2.33412,-0.096,-0.05002,0.45015,5,1D2U,2.0,True,0.259,12,False,right,-0.16672,0.1093,0.8339,0.7246,1.5679,2.1761,0.6082,A,0.275
126,0.50017,0.1,2,0.85029,0.76693,1.1754,126,4.24311,0.9,0.45015,0.95032,5,lapse_rate,2.0,True,0.226,0,False,right,0.25008,2.6576,3.8825,1.225,0.5911,1.6159,1.0248,A,0.275
127,0.50017,1.2,1,0.80027,0.45849,1.05035,127,3.41782,0.224,0.10837,0.60854,5,2D1U,1.0,True,0.317,10,False,left,0.0,0.6562,1.548,0.8917,2.4562,3.2395,0.7833,A,0.28
128,0.50017,1.2,2,0.29177,0.25842,0.50851,128,2.00902,-0.096,-0.05002,0.45015,5,1D2U,2.0,False,0.142,12,False,right,-0.16672,1.2158,1.9492,0.7335,0.2325,0.8488,0.6163,A,0.28
129,0.50017,1.2,1,0.81694,0.6919,1.55886,129,3.7596,-0.6159999999999999,-0.30844,0.19173,5,lapse_rate,2.0,True,0.333,0,False,right,0.25008,0.6788,1.1538,0.475,2.4451,3.479,1.0339,A,0.28
130,0.50017,1.2,2,0.40847,0.38346,0.83362,130,2.73426,0.224,0.10837,0.60854,5,2D1U,2.0,True,0.249,10,False,right,0.0,1.743,2.6347,0.8918,0.2673,1.0514,0.7841,A,0.28
131,0.50017,0.1,1,0.28343,0.25008,0.77526,131,2.24242,-0.136,-0.06669,0.43348,5,1D2U,2.0,True,0.424,13,True,right,-0.16672,0.1517,0.8602,0.7085,1.5857,2.194,0.6083,A,0.275
132,0.50017,0.1,2,0.70857,0.70857,1.32545,132,3.83463,0.184,0.0917,0.59187,5,2D1U,2.0,True,0.217,11,True,right,0.25008,2.6676,3.5349,0.8672,0.4511,1.4761,1.0249,A,0.275
133,0.50017,1.2,1,0.37513,0.42514,0.6919,133,2.18407,-0.6159999999999999,-0.30844,0.19173,5,lapse_rate,2.0,True,0.391,0,False,right,0.0,0.2339,0.7092,0.4753,1.2584,2.0425,0.7841,A,0.28
134,0.50017,0.1,2,0.2084,0.40014,0.59187,134,2.13406,-0.136,-0.06669,0.43348,5,1D2U,1.0,True,0.625,13,True,left,-0.16672,1.2232,1.9313,0.7082,0.1564,0.7641,0.6078,A,0.275
135,0.50017,1.2,2,0.72525,0.55852,1.30878,135,3.68459,0.184,0.0917,0.59187,5,2D1U,2.0,True,0.358,11,True,right,0.25008,2.6555,3.5308,0.8753,0.4554,1.4888,1.0333,A,0.28
136,0.50017,0.1,1,0.3918,0.35012,0.70857,136,2.14239,-0.6159999999999999,-0.30844,0.19173,5,lapse_rate,2.0,True,0.425,0,False,right,0.0,0.2544,0.7212,0.4668,1.2961,2.0712,0.7751,A,0.275
137,0.50017,0.1,1,0.22508,0.36679,0.64188,137,2.68424,0.9,0.45015,0.95032,5,lapse_rate,1.0,True,0.341,0,False,left,-0.16672,0.0944,1.32,1.2256,1.9116,2.5201,0.6085,A,0.275
138,0.50017,1.2,1,0.45015,0.44182,1.23375,138,3.07604,-0.096,-0.05002,0.45015,5,1D2U,2.0,True,0.333,14,True,right,0.25008,0.3074,1.0409,0.7335,2.0074,3.0404,1.033,A,0.28
139,0.50017,1.2,2,0.88363,0.45849,1.12538,139,3.54286,0.144,0.07503,0.57519,5,2D1U,2.0,True,0.691,11,False,right,0.0,2.5117,3.3698,0.858,0.7446,1.528,0.7834,A,0.28
140,0.50017,0.1,2,0.45015,0.3918,0.60854,140,2.40081,-0.096,-0.05002,0.45015,5,1D2U,1.0,True,0.35,14,True,left,-0.16672,1.4862,2.2105,0.7243,0.4029,1.011,0.6082,A,0.275
141,0.50017,1.2,2,0.85862,0.6919,1.44215,141,4.44316,0.9,0.45015,0.95032,5,lapse_rate,1.0,False,0.299,0,False,left,0.25008,2.924,4.1574,1.2334,0.5909,1.6247,1.0338,A,0.28
142,0.50017,0.1,1,0.40847,0.43348,0.7836,142,2.70091,0.144,0.07503,0.57519,5,2D1U,1.0,True,0.292,11,False,left,0.0,0.274,1.124,0.85,1.7739,2.5491,0.7752,A,0.275
143,0.50017,1.2,2,0.37513,0.35012,0.60854,143,2.02569,-0.6159999999999999,-0.30844,0.19173,5,lapse_rate,1.0,True,0.483,0,False,left,-0.16672,1.4009,1.8758,0.4749,0.3175,0.9349,0.6174,A,0.28
144,0.50017,0.1,1,0.86696,0.59187,1.58387,144,4.09306,0.104,0.05002,0.55019,5,2D1U,1.0,True,0.3,11,False,left,0.25008,0.7291,1.5542,0.8251,2.8791,3.9043,1.0252,A,0.275
145,0.50017,1.2,1,0.40847,0.81694,0.93365,145,3.13439,-0.056,-0.02501,0.47516,5,1D2U,2.0,True,0.358,14,False,right,0.0,0.2698,1.0283,0.7585,1.8205,2.6039,0.7835,A,0.28
146,0.50017,1.2,2,0.34178,0.35012,0.50851,146,2.17574,-0.056,-0.02501,0.47516,5,1D2U,2.0,False,0.783,14,False,right,-0.16672,1.2651,2.0236,0.7585,0.2823,0.8986,0.6163,A,0.28
147,0.50017,1.2,1,0.72525,0.41681,1.40881,147,3.24277,-0.6159999999999999,-0.30844,0.19173,5,lapse_rate,2.0,True,0.367,0,False,right,0.25008,0.5856,1.0602,0.4747,2.2011,3.2352,1.0341,A,0.28
148,0.50017,1.2,1,0.35845,0.33345,0.59187,148,2.33413,0.104,0.05002,0.55019,5,2D1U,2.0,False,0.383,11,False,right,0.0,0.2152,1.0482,0.833,1.4986,2.282,0.7834,A,0.28
149,0.50017,1.2,2,0.35012,0.36679,0.89197,149,2.30078,-0.6159999999999999,-0.30844,0.19173,5,lapse_rate,1.0,True,0.441,0,False,left,-0.16672,1.6552,2.1309,0.4756,0.2893,0.9055,0.6162,A,0.28
150,0.50017,0.1,1,0.65022,0.58353,1.35046,150,3.53453,-0.096,-0.05002,0.45015,5,1D2U,2.0,True,0.35,15,True,right,0.25008,0.5141,1.2389,0.7248,2.3305,3.3551,1.0246,A,0.275
151,0.50017,0.1,1,0.34178,0.3918,0.45849,151,2.26743,0.144,0.07503,0.57519,5,2D1U,1.0,True,0.292,12,True,left,0.0,0.2057,1.0549,0.8492,1.3806,2.1553,0.7747,A,0.275
152,0.50017,0.1,1,0.28343,0.42514,0.81694,152,2.976,0.9,0.45015,0.95032,5,lapse_rate,1.0,True,0.45,0,False,left,-0.16672,0.148,1.3726,1.2247,2.1394,2.7472,0.6078,A,0.275
153,0.50017,0.1,2,0.63355,0.55019,1.13372,153,3.26778,-0.096,-0.05002,0.45015,5,1D2U,2.0,False,0.366,15,True,right,0.25008,2.3966,3.1215,0.7249,0.3715,1.3969,1.0254,A,0.275
154,0.50017,1.2,1,0.37513,0.3918,0.52518,154,2.36747,0.144,0.07503,0.57519,5,2D1U,1.0,True,0.383,12,True,left,0.0,0.2344,1.0921,0.8577,1.476,2.2589,0.7829,A,0.28
155,0.50017,1.2,1,0.2084,0.26676,0.57519,155,2.10071,0.104,0.05002,0.55019,5,2D1U,2.0,False,0.359,13,True,right,-0.16672,0.065,0.8981,0.8331,1.4151,2.0318,0.6167,A,0.28
156,0.50017,1.2,2,0.7836,0.89197,1.32545,156,3.93467,-0.136,-0.06669,0.43348,5,1D2U,2.0,False,0.416,15,False,right,0.25008,2.7309,3.447,0.7161,0.5141,1.5477,1.0336,A,0.28
157,0.50017,0.1,2,0.3001,0.31677,0.49183,157,2.55919,0.9,0.45015,0.95032,5,lapse_rate,2.0,True,0.151,0,False,right,0.0,1.3037,2.5288,1.2251,0.1701,0.9444,0.7743,A,0.275
158,0.50017,0.1,2,0.2084,0.43348,0.74192,158,2.45916,0.144,0.07503,0.57519,5,2D1U,1.0,False,0.292,14,True,left,-0.16672,1.3755,2.2256,0.8501,0.1587,0.7673,0.6086,A,0.275
159,0.50017,0.1,2,0.59187,0.56686,1.40881,159,3.47618,-0.176,-0.0917,0.40847,5,1D2U,1.0,True,0.317,15,False,left,0.25008,2.6283,3.3118,0.6835,0.3289,1.3538,1.0249,A,0.275
160,0.50017,1.2,1,0.36679,0.36679,0.73358,160,2.91765,0.9,0.45015,0.95032,5,lapse_rate,2.0,False,0.408,0,False,right,0.0,0.2206,1.4541,1.2336,2.0458,2.8291,0.7833,A,0.28
161,0.50017,0.1,2,0.30844,0.35845,0.45015,161,2.20908,0.184,0.0917,0.59187,5,2D1U,2.0,True,0.392,14,False,right,-0.16672,1.1839,2.0508,0.8668,0.259,0.8667,0.6077,A,0.275
162,0.50017,1.2,1,0.6002,0.68356,1.32545,162,3.51785,-0.176,-0.0917,0.40847,5,1D2U,2.0,True,0.325,15,False,right,0.25008,0.4552,1.1464,0.6913,2.2055,3.2385,1.0331,A,0.28
163,0.50017,0.1,1,0.30844,0.41681,0.76693,163,2.18408,-0.6159999999999999,-0.30844,0.19173,5,lapse_rate,2.0,True,0.383,0,False,right,0.0,0.1729,0.6395,0.4666,1.273,2.0479,0.7749,A,0.275
164,0.50017,1.2,2,0.25008,0.29177,0.49183,164,1.96733,-0.136,-0.06669,0.43348,5,1D2U,2.0,False,0.375,16,True,right,-0.16672,1.1564,1.8731,0.7167,0.1896,0.8058,0.6161,A,0.28
165,0.50017,1.2,2,0.79193,0.55019,1.43382,165,3.86798,0.184,0.0917,0.59187,5,2D1U,2.0,True,0.316,14,False,right,0.25008,2.849,3.7239,0.8749,0.5239,1.5575,1.0336,A,0.28
166,0.50017,0.1,2,0.44182,0.35012,0.42514,166,1.90898,-0.6159999999999999,-0.30844,0.19173,5,lapse_rate,1.0,True,0.517,0,False,left,0.0,1.3719,1.8382,0.4663,0.3054,1.0798,0.7743,A,0.275
167,0.50017,0.1,2,0.37513,0.3001,0.52518,167,1.89231,-0.6159999999999999,-0.30844,0.19173,5,lapse_rate,1.0,True,0.392,0,False,left,-0.16672,1.3219,1.7879,0.466,0.3225,0.9299,0.6074,A,0.275
168,0.50017,0.1,1,0.65856,0.70857,1.2921,168,3.73459,0.144,0.07503,0.57519,5,2D1U,1.0,True,0.317,15,True,left,0.25008,0.5267,1.3761,0.8494,2.41,3.4344,1.0243,A,0.275
169,0.50017,0.1,2,0.44182,0.40847,1.73392,169,3.49285,-0.176,-0.0917,0.40847,5,1D2U,1.0,True,0.375,17,True,left,0.0,2.682,3.3653,0.6833,0.3075,1.0815,0.774,A,0.275
170,0.50017,1.2,2,0.40014,0.25008,0.43348,170,2.53419,0.9,0.45015,0.95032,5,lapse_rate,2.0,True,0.35,0,False,right,-0.16672,1.2465,2.4793,1.2328,0.3383,0.9545,0.6162,A,0.28
171,0.50017,0.1,2,0.72525,0.40847,1.79227,171,4.00135,0.144,0.07503,0.57519,5,2D1U,1.0,False,0.113,15,True,left,0.25008,3.1531,4.0033,0.8503,0.47,1.495,1.025,A,0.275
172,0.50017,1.2,2,0.67523,0.43348,1.22541,172,3.24276,-0.176,-0.0917,0.40847,5,1D2U,2.0,False,0.232,17,True,right,0.0,2.3995,3.0912,0.6916,0.533,1.3155,0.7825,A,0.28
173,0.50017,1.2,1,0.35012,0.42514,0.83362,173,2.50085,-0.216,-0.10837,0.3918,5,1D2U,2.0,True,0.291,17,False,right,-0.16672,0.2098,0.8841,0.6743,1.6597,2.2763,0.6166,A,0.28
174,0.50017,1.2,2,0.79193,0.63355,1.1754,174,3.29278,-0.6159999999999999,-0.30844,0.19173,5,lapse_rate,1.0,True,0.113,0,False,left,0.25008,2.5944,3.0698,0.4754,0.5278,1.5611,1.0333,A,0.28
175,0.50017,1.2,2,0.59187,0.40847,1.35879,175,3.45117,0.184,0.0917,0.59187,5,2D1U,2.0,True,0.259,16,True,right,0.0,2.4469,3.3222,0.8753,0.4469,1.2304,0.7835,A,0.28
176,0.50017,0.1,1,0.31677,0.36679,0.51684,176,2.29244,0.184,0.0917,0.59187,5,2D1U,1.0,True,0.275,16,True,left,-0.16672,0.1808,1.0471,0.8664,1.5137,2.1215,0.6077,A,0.275
177,0.50017,1.2,1,0.70024,0.73358,1.25876,177,4.14307,0.9,0.45015,0.95032,5,lapse_rate,1.0,True,0.114,0,False,left,0.25008,0.5599,1.7937,1.2338,2.7853,3.8187,1.0334,A,0.28
178,0.50017,0.1,2,0.3918,0.3001,0.44182,178,2.02569,-0.216,-0.10837,0.3918,5,1D2U,1.0,True,0.367,17,False,left,0.0,1.3433,2.0098,0.6665,0.2604,1.0354,0.775,A,0.275
179,0.50017,0.1,1,0.24175,0.40847,0.59187,179,2.15073,-0.176,-0.0917,0.40847,5,1D2U,2.0,True,0.358,18,True,right,-0.16672,0.1101,0.794,0.6839,1.3356,1.9442,0.6086,A,0.275
180,0.50017,1.2,1,0.64188,0.67523,1.01701,180,3.40948,0.144,0.07503,0.57519,5,2D1U,2.0,False,0.358,17,True,right,0.25008,0.4969,1.3559,0.859,2.106,3.1388,1.0328,A,0.28
181,0.50017,1.2,1,0.4835,0.66689,1.52552,181,4.1264,0.9,0.45015,0.95032,5,lapse_rate,1.0,True,0.326,0,False,left,0.0,0.3384,1.5716,1.2332,2.9551,3.7379,0.7828,A,0.28
182,0.50017,1.2,1,0.23341,0.31677,0.85029,182,2.49251,0.184,0.0917,0.59187,5,2D1U,2.0,False,0.325,18,True,right,-0.16672,0.0903,0.9654,0.8751,1.7569,2.3735,0.6165,A,0.28
183,0.50017,0.1,1,0.45015,0.64188,1.40881,183,3.95133,0.9,0.45015,0.95032,5,lapse_rate,1.0,True,0.35,0,False,left,0.25008,0.3145,1.5394,1.2249,2.6893,3.7144,1.0251,A,0.275
184,0.50017,1.2,1,0.49183,0.54185,1.74226,184,3.68458,-0.176,-0.0917,0.40847,5,1D2U,2.0,True,0.309,18,True,right,0.0,0.3512,1.0432,0.692,2.643,3.4256,0.7826,A,0.28
185,0.50017,0.1,2,0.26676,0.3918,0.66689,185,2.43416,0.224,0.10837,0.60854,5,2D1U,2.0,True,0.113,18,False,right,-0.16672,1.3561,2.2399,0.8838,0.2149,0.8226,0.6078,A,0.275
186,0.50017,0.1,1,0.76693,0.75859,1.09204,186,3.55121,-0.136,-0.06669,0.43348,5,1D2U,2.0,True,0.2,18,False,right,0.25008,0.6321,1.3412,0.7091,2.1739,3.1985,1.0247,A,0.275
187,0.50017,0.1,1,0.42514,0.41681,0.51684,187,2.05069,-0.6159999999999999,-0.30844,0.19173,5,lapse_rate,2.0,True,0.441,0,False,right,0.0,0.287,0.7535,0.4666,1.137,1.9121,0.7751,A,0.275
188,0.50017,0.1,1,0.43348,0.43348,0.53351,188,2.33412,-0.136,-0.06669,0.43348,5,1D2U,1.0,False,0.476,18,False,left,-0.16672,0.2977,1.0059,0.7082,1.4889,2.0978,0.609,A,0.275
189,0.50017,0.1,1,0.71691,0.59187,1.43382,189,4.19309,0.9,0.45015,0.95032,5,lapse_rate,1.0,True,0.442,0,False,left,0.25008,0.5786,1.8035,1.2249,2.9788,4.0035,1.0247,A,0.275
190,0.50017,1.2,1,0.40847,0.70857,1.01701,190,3.24276,0.224,0.10837,0.60854,5,2D1U,2.0,False,0.301,18,False,right,0.0,0.2651,1.1567,0.8916,2.0321,2.8146,0.7825,A,0.28
191,0.50017,1.2,1,0.30844,0.40014,0.45849,191,2.61756,0.9,0.45015,0.95032,5,lapse_rate,1.0,True,0.417,0,False,left,-0.16672,0.1679,1.4014,1.2335,1.8013,2.4181,0.6168,A,0.28
192,0.50017,1.2,1,0.56686,0.75025,1.69224,192,4.14307,0.264,0.13338,0.63355,5,2D1U,2.0,False,0.342,18,False,right,0.25008,0.428,1.3445,0.9165,2.7692,3.803,1.0338,A,0.28
193,0.50017,1.2,2,0.53351,0.58353,1.60888,193,3.63456,-0.176,-0.0917,0.40847,5,1D2U,2.0,False,0.433,19,True,right,0.0,2.644,3.3356,0.6916,0.3944,1.1777,0.7833,A,0.28
194,0.50017,0.1,2,0.29177,0.24175,0.65856,194,2.34247,0.304,0.15005,0.65022,5,2D1U,2.0,True,0.416,18,False,right,-0.16672,1.3763,2.3012,0.925,0.243,0.8508,0.6078,A,0.275
195,0.50017,0.1,1,0.85029,0.85029,1.05035,195,3.6429,-0.216,-0.10837,0.3918,5,1D2U,2.0,True,0.15,19,False,right,0.25008,0.7199,1.3864,0.6665,2.1781,3.2035,1.0254,A,0.275
196,0.50017,0.1,2,0.60854,0.40847,1.70057,196,4.16807,0.9,0.45015,0.95032,5,lapse_rate,2.0,True,0.492,0,False,right,0.0,2.8153,4.0403,1.225,0.4743,1.2488,0.7746,A,0.275
197,0.50017,0.1,2,0.35012,0.42514,0.59187,197,2.81762,0.9,0.45015,0.95032,5,lapse_rate,2.0,True,0.401,0,False,right,-0.16672,1.3677,2.5927,1.225,0.3008,0.9092,0.6084,A,0.275
198,0.50017,0.1,1,0.41681,0.52518,1.15872,198,2.99268,-0.216,-0.10837,0.3918,5,1D2U,2.0,True,0.291,19,False,right,0.25008,0.2829,0.9495,0.6666,1.8493,2.8744,1.0251,A,0.275
199,0.50017,1.2,2,0.76693,0.50851,0.86696,199,3.29279,0.304,0.15005,0.65022,5,2D1U,1.0,False,0.366,18,False,left,0.0,2.1348,3.0681,0.9333,0.6266,1.4089,0.7823,A,0.28
200,0.50017,1.2,1,0.20007,0.29177,0.52518,200,2.19242,0.344,0.17506,0.67523,5,2D1U,1.0,True,0.358,18,False,left,-0.16672,0.0553,1.0137,0.9584,1.4802,2.0967,0.6166,A,0.28
201,0.50017,1.2,2,0.43348,0.58353,1.2921,201,3.21775,-0.176,-0.0917,0.40847,5,1D2U,2.0,False,0.366,20,True,right,0.25008,2.3492,3.0411,0.6918,0.1654,1.1995,1.034,A,0.28
202,0.50017,0.1,2,0.47516,0.46682,1.55886,202,3.95133,0.9,0.45015,0.95032,5,lapse_rate,2.0,True,0.383,0,False,right,0.0,2.5389,3.7646,1.2257,0.3398,1.1145,0.7747,A,0.275
203,0.50017,0.1,2,0.25008,0.40847,0.60854,203,2.44249,0.344,0.17506,0.67523,5,2D1U,2.0,True,0.367,18,False,right,-0.16672,1.2847,2.235,0.9503,0.2014,0.8091,0.6077,A,0.275
204,0.50017,0.1,2,0.51684,0.83362,1.20041,204,4.00136,0.9,0.45015,0.95032,5,lapse_rate,2.0,True,0.283,0,False,right,0.25008,2.352,3.5768,1.2248,0.2606,1.2857,1.0251,A,0.275
205,0.50017,0.1,2,0.45849,0.45015,0.82528,205,2.62589,-0.216,-0.10837,0.3918,5,1D2U,1.0,True,0.459,21,True,left,0.0,1.7879,2.4553,0.6674,0.3221,1.0962,0.7742,A,0.275
206,0.50017,0.1,1,0.35845,0.24175,0.61688,206,2.10905,-0.216,-0.10837,0.3918,5,1D2U,1.0,False,0.367,21,True,left,-0.16672,0.2232,0.8905,0.6673,1.4571,2.0652,0.6081,A,0.275
207,0.50017,1.2,2,0.70024,0.6919,1.23375,207,3.77628,0.304,0.15005,0.65022,5,2D1U,2.0,True,0.334,19,True,right,0.25008,2.56,3.4935,0.9335,0.4352,1.4685,1.0333,A,0.28
208,0.50017,1.2,1,0.31677,0.34178,0.41681,208,2.52585,0.9,0.45015,0.95032,5,lapse_rate,2.0,False,0.367,0,False,right,0.0,0.1734,1.4069,1.2335,1.6818,2.4651,0.7833,A,0.28
209,0.50017,1.2,2,0.40014,0.36679,0.52518,209,2.4425,0.304,0.15005,0.65022,5,2D1U,2.0,True,0.113,19,True,right,-0.16672,1.3409,2.2739,0.933,0.3405,0.9572,0.6167,A,0.28
210,0.50017,1.2,1,0.85029,0.6002,0.91698,210,3.24277,-0.256,-0.12504,0.37513,5,1D2U,2.0,True,0.424,21,False,right,0.25008,0.7072,1.3653,0.658,2.0151,3.0488,1.0337,A,0.28
211,0.50017,0.1,1,0.40847,0.56686,1.60054,211,3.26777,-0.6159999999999999,-0.30844,0.19173,5,lapse_rate,2.0,True,0.4,0,False,right,0.0,0.2723,0.7391,0.4667,2.2054,2.9798,0.7744,A,0.275
212,0.50017,1.2,2,0.31677,0.3918,0.46682,212,1.86729,-0.6159999999999999,-0.30844,0.19173,5,lapse_rate,1.0,True,0.559,0,False,left,-0.16672,1.1986,1.6743,0.4757,0.2575,0.8739,0.6163,A,0.28
213,0.50017,0.1,2,0.53351,0.77526,1.2921,213,3.73459,0.264,0.13338,0.63355,5,2D1U,1.0,False,0.242,19,False,left,0.25008,2.4554,3.3641,0.9087,0.272,1.2971,1.0251,A,0.275
214,0.50017,0.1,1,0.46682,0.65022,1.20041,214,3.19275,-0.256,-0.12504,0.37513,5,1D2U,2.0,True,0.383,21,False,right,0.0,0.3344,0.9847,0.6503,2.051,2.8261,0.7752,A,0.275
215,0.50017,0.1,1,0.25008,0.40014,0.70857,215,2.80928,0.9,0.45015,0.95032,5,lapse_rate,1.0,True,0.508,0,False,left,-0.16672,0.1179,1.3433,1.2255,2.0015,2.6101,0.6087,A,0.275
216,0.50017,0.1,1,0.53351,0.76693,0.91698,216,3.36781,0.304,0.15005,0.65022,5,2D1U,2.0,False,0.575,20,True,right,0.25008,0.4015,1.3263,0.9247,1.985,3.0099,1.0249,A,0.275
217,0.50017,1.2,2,0.38346,0.36679,0.85029,217,2.49251,-0.216,-0.10837,0.3918,5,1D2U,1.0,True,0.383,22,True,left,0.0,1.7305,2.4053,0.6748,0.239,1.0221,0.783,A,0.28
218,0.50017,1.2,1,0.43348,0.35845,0.59187,218,2.0757,-0.6159999999999999,-0.30844,0.19173,5,lapse_rate,2.0,True,0.242,0,False,right,-0.16672,0.2907,0.7658,0.4751,1.2987,1.9149,0.6162,A,0.28
219,0.50017,1.2,2,0.63355,0.57519,0.89197,219,2.99268,-0.216,-0.10837,0.3918,5,1D2U,2.0,False,0.409,22,True,right,0.25008,2.1531,2.8277,0.6746,0.3698,1.403,1.0332,A,0.28
220,0.50017,1.2,2,0.33345,0.3001,0.85862,220,2.66757,0.344,0.17506,0.67523,5,2D1U,2.0,True,0.113,20,False,right,0.0,1.6889,2.6471,0.9582,0.1893,0.9724,0.7831,A,0.28
221,0.50017,0.1,1,0.25842,0.31677,0.59187,221,1.85896,-0.6159999999999999,-0.30844,0.19173,5,lapse_rate,2.0,True,0.391,0,False,right,-0.16672,0.1203,0.5864,0.4661,1.1288,1.7375,0.6087,A,0.275
222,0.50017,0.1,2,0.45015,0.75859,1.75893,222,4.14307,0.344,0.17506,0.67523,5,2D1U,2.0,True,0.302,20,False,right,0.25008,2.8422,3.7923,0.9501,0.1923,1.2173,1.025,A,0.275
223,0.50017,0.1,1,0.28343,0.34178,0.59187,223,2.09238,-0.256,-0.12504,0.37513,5,1D2U,1.0,False,0.441,23,True,left,0.0,0.1518,0.8009,0.6491,1.2589,2.0347,0.7757,A,0.275
224,0.50017,0.1,1,0.28343,0.3918,0.62521,224,2.15073,-0.296,-0.15005,0.35012,5,1D2U,2.0,True,0.383,23,False,right,-0.16672,0.1533,0.778,0.6247,1.3532,1.9615,0.6083,A,0.275
225,0.50017,0.1,1,0.73358,0.7836,1.14205,225,3.35113,-0.6159999999999999,-0.30844,0.19173,5,lapse_rate,2.0,True,0.258,0,False,right,0.25008,0.5979,1.0645,0.4666,1.9478,2.9728,1.025,A,0.275
226,0.50017,1.2,1,0.3918,0.44182,0.59187,226,2.57588,0.304,0.15005,0.65022,5,2D1U,2.0,False,0.491,21,True,right,0.0,0.2504,1.1841,0.9337,1.634,2.4168,0.7828,A,0.28
227,0.50017,1.2,2,0.40014,0.44182,0.76693,227,2.45918,-0.296,-0.15005,0.35012,5,1D2U,2.0,False,0.475,23,False,right,-0.16672,1.5854,2.2188,0.6334,0.3437,0.9604,0.6167,A,0.28
228,0.50017,1.2,1,0.8753,0.6919,1.75893,228,4.50153,0.344,0.17506,0.67523,5,2D1U,1.0,True,0.441,22,True,left,0.25008,0.7289,1.6874,0.9585,3.1789,4.2126,1.0336,A,0.28
229,0.50017,0.1,1,0.27509,0.33345,0.83362,229,2.89265,0.9,0.45015,0.95032,5,lapse_rate,1.0,True,0.375,0,False,left,0.0,0.1384,1.364,1.2256,2.063,2.838,0.7751,A,0.275
230,0.50017,0.1,1,0.22508,0.33345,0.41681,230,2.15074,0.344,0.17506,0.67523,5,2D1U,1.0,True,0.334,22,True,left,-0.16672,0.0871,1.0376,0.9505,1.4043,2.0129,0.6086,A,0.275
231,0.50017,1.2,2,0.58353,0.71691,0.89197,231,3.6429,0.9,0.45015,0.95032,5,lapse_rate,2.0,True,0.483,0,False,right,0.25008,2.1021,3.3355,1.2334,0.3183,1.3524,1.0341,A,0.28
232,0.50017,0.1,1,0.53351,0.64188,1.15872,232,3.16773,-0.336,-0.16672,0.33345,5,1D2U,2.0,True,0.425,23,False,right,0.0,0.3989,1.0065,0.6075,2.0323,2.8068,0.7745,A,0.275
233,0.50017,0.1,2,0.26676,0.34178,0.53351,233,1.97567,-0.336,-0.16672,0.33345,5,1D2U,1.0,True,0.359,23,False,left,-0.16672,1.2226,1.8307,0.6081,0.2145,0.8232,0.6087,A,0.275
234,0.50017,1.2,1,0.53351,0.65856,1.14205,234,3.78461,0.9,0.45015,0.95032,5,lapse_rate,1.0,True,0.217,0,False,left,0.25008,0.3903,1.6232,1.2329,2.4985,3.5309,1.0325,A,0.28
235,0.50017,1.2,2,0.41681,0.53351,1.43382,235,3.53453,0.304,0.15005,0.65022,5,2D1U,2.0,True,0.391,23,True,right,0.0,2.3477,3.2817,0.934,0.2734,1.056,0.7826,A,0.28
236,0.50017,1.2,2,0.32511,0.37513,0.75859,236,2.30912,-0.296,-0.15005,0.35012,5,1D2U,1.0,True,0.458,24,True,left,-0.16672,1.4981,2.1315,0.6333,0.2647,0.8814,0.6167,A,0.28
237,0.50017,1.2,1,0.75859,0.53351,0.8753,237,3.31779,0.304,0.15005,0.65022,5,2D1U,1.0,True,0.475,23,True,left,0.25008,0.6121,1.5454,0.9333,2.1537,3.1868,1.0331,A,0.28
238,0.50017,1.2,2,0.4835,0.75859,1.43382,238,4.1264,0.9,0.45015,0.95032,5,lapse_rate,2.0,True,0.358,0,False,right,0.0,2.4158,3.6489,1.2332,0.3408,1.1238,0.783,A,0.28
239,0.50017,0.1,2,0.34178,0.34178,0.43348,239,2.25076,0.264,0.13338,0.63355,5,2D1U,2.0,True,0.35,23,False,right,-0.16672,1.1958,2.1039,0.9082,0.2872,0.8955,0.6083,A,0.275
240,0.50017,1.2,1,0.6002,0.51684,1.70057,240,4.2681,0.9,0.45015,0.95032,5,lapse_rate,1.0,True,0.391,0,False,left,0.25008,0.4538,1.6873,1.2335,3.1209,4.1542,1.0333,A,0.28
241,0.50017,0.1,1,0.75859,0.52518,1.36713,241,3.50119,-0.296,-0.15005,0.35012,5,1D2U,2.0,True,0.4,24,True,right,0.0,0.6234,1.2483,0.6249,2.4816,3.2563,0.7747,A,0.275
242,0.50017,0.1,1,0.24175,0.44182,0.63355,242,2.19242,-0.256,-0.12504,0.37513,5,1D2U,2.0,True,0.425,24,False,right,-0.16672,0.1066,0.7561,0.6496,1.34,1.9478,0.6078,A,0.275
243,0.50017,1.2,2,0.57519,0.72525,0.82528,243,3.25944,0.264,0.13338,0.63355,5,2D1U,1.0,False,0.359,23,False,left,0.25008,2.0254,2.9417,0.9163,0.3089,1.3417,1.0327,A,0.28
244,0.50017,0.1,2,0.45849,0.45015,1.66723,244,4.02636,0.9,0.45015,0.95032,5,lapse_rate,2.0,True,1.024,0,False,right,0.0,2.6304,3.8561,1.2257,0.3229,1.0976,0.7747,A,0.275
245,0.50017,0.1,1,0.45015,0.42514,0.42514,245,1.99233,-0.6159999999999999,-0.30844,0.19173,5,lapse_rate,2.0,True,0.435,0,False,right,-0.16672,0.3148,0.7808,0.4661,1.1564,1.7649,0.6085,A,0.275
246,0.50017,1.2,1,0.55019,0.72525,1.30878,246,3.73461,0.304,0.15005,0.65022,5,2D1U,2.0,False,0.35,24,True,right,0.25008,0.4069,1.3398,0.933,2.3818,3.4154,1.0336,A,0.28
247,0.50017,1.2,2,0.36679,0.40014,0.89197,247,2.5342,-0.256,-0.12504,0.37513,5,1D2U,1.0,True,0.409,24,False,left,0.0,1.755,2.4131,0.658,0.2212,1.0047,0.7835,A,0.28
248,0.50017,0.1,2,0.38346,0.26676,0.42514,248,1.96733,-0.216,-0.10837,0.3918,5,1D2U,1.0,True,0.417,24,False,left,-0.16672,1.2302,1.8972,0.667,0.3307,0.9392,0.6085,A,0.275
249,0.50017,0.1,1,0.7836,0.74192,0.83362,249,3.80963,0.9,0.45015,0.95032,5,lapse_rate,1.0,True,0.357,0,False,left,0.25008,0.6493,1.8741,1.2248,2.4492,3.4742,1.025,A,0.275
250,0.50017,0.1,2,0.50851,0.40847,1.33378,250,3.42616,0.344,0.17506,0.67523,5,2D1U,2.0,True,0.351,24,False,right,0.0,2.3507,3.3005,0.9498,0.3757,1.151,0.7753,A,0.275
251,0.50017,0.1,2,0.31677,0.22508,0.41681,251,2.13406,0.344,0.17506,0.67523,5,2D1U,2.0,True,0.375,24,False,right,-0.16672,1.1562,2.1064,0.9502,0.2642,0.8728,0.6086,A,0.275
252,0.50017,1.2,1,0.59187,0.75859,1.53385,252,3.77628,-0.216,-0.10837,0.3918,5,1D2U,1.0,False,0.474,24,False,left,0.25008,0.4488,1.1236,0.6748,2.3907,3.4235,1.0328,A,0.28
253,0.50017,1.2,2,0.73358,0.47516,1.4755,253,3.83463,0.304,0.15005,0.65022,5,2D1U,2.0,True,0.112,25,True,right,0.0,2.7095,3.6432,0.9337,0.5928,1.3759,0.7831,A,0.28
254,0.50017,1.2,1,0.27509,0.40014,0.80861,254,2.35914,-0.256,-0.12504,0.37513,5,1D2U,2.0,True,0.408,25,True,right,-0.16672,0.1289,0.7867,0.6578,1.5371,2.1537,0.6166,A,0.28
255,0.50017,0.1,1,0.50017,0.77526,1.60054,255,4.02636,0.304,0.15005,0.65022,5,2D1U,2.0,False,0.317,25,True,right,0.25008,0.3674,1.2925,0.9251,2.6339,3.6584,1.0245,A,0.275
256,0.50017,0.1,2,0.57519,0.52518,0.81694,256,3.09271,0.344,0.17506,0.67523,5,2D1U,2.0,True,0.267,26,True,right,0.0,1.8979,2.8475,0.9496,0.4392,1.2144,0.7752,A,0.275
257,0.50017,0.1,2,0.21674,0.42514,0.75859,257,2.57587,0.344,0.17506,0.67523,5,2D1U,2.0,True,0.4,26,True,right,-0.16672,1.4014,2.3513,0.9499,0.168,0.7758,0.6078,A,0.275
258,0.50017,1.2,2,0.50851,0.47516,1.40881,258,3.26778,-0.256,-0.12504,0.37513,5,1D2U,1.0,True,0.359,25,True,left,0.25008,2.5425,3.2017,0.6592,0.2427,1.2763,1.0336,A,0.28
259,0.50017,1.2,1,0.30844,0.35012,0.68356,259,2.23409,-0.216,-0.10837,0.3918,5,1D2U,2.0,True,0.475,26,True,right,0.0,0.1648,0.8387,0.6739,1.381,2.1643,0.7833,A,0.28
260,0.50017,1.2,2,0.31677,0.25008,0.83362,260,2.29244,-0.216,-0.10837,0.3918,5,1D2U,1.0,True,0.458,26,True,left,-0.16672,1.5627,2.2376,0.6749,0.2544,0.8708,0.6165,A,0.28
261,0.50017,0.1,1,0.75025,0.44182,1.70057,261,4.04303,0.304,0.15005,0.65022,5,2D1U,1.0,True,0.326,27,True,left,0.25008,0.6198,1.5446,0.9248,2.9864,4.0114,1.025,A,0.275
262,0.50017,0.1,1,0.71691,0.43348,1.7756,262,4.07638,0.304,0.15005,0.65022,5,2D1U,1.0,True,0.292,27,True,left,0.0,0.5811,1.5057,0.9246,3.1469,3.9226,0.7758,A,0.275
263,0.50017,0.1,1,0.23341,0.23341,0.43348,263,2.03402,0.264,0.13338,0.63355,5,2D1U,1.0,True,0.427,27,False,left,-0.16672,0.0984,1.007,0.9086,1.3899,1.9977,0.6077,A,0.275
264,0.50017,1.2,2,0.40014,0.45015,1.49217,264,3.47618,0.264,0.13338,0.63355,5,2D1U,2.0,True,0.112,27,False,right,0.25008,2.5123,3.4288,0.9164,0.1293,1.1628,1.0335,A,0.28
265,0.50017,1.2,2,0.45849,0.9003,0.95866,265,3.22609,-0.176,-0.0917,0.40847,5,1D2U,1.0,True,0.359,26,False,left,0.0,1.919,2.6111,0.6921,0.3193,1.1026,0.7833,A,0.28
266,0.50017,1.2,2,0.36679,0.27509,0.52518,266,2.27577,0.224,0.10837,0.60854,5,2D1U,2.0,True,0.468,27,False,right,-0.16672,1.3114,2.2028,0.8914,0.3109,0.9278,0.6169,A,0.28
267,0.50017,0.1,2,0.55019,0.71691,1.28377,267,3.45951,-0.176,-0.0917,0.40847,5,1D2U,1.0,True,0.592,26,False,left,0.25008,2.4632,3.1464,0.6832,0.289,1.3134,1.0245,A,0.275
268,0.50017,0.1,1,0.31677,0.45015,0.47516,268,2.35079,0.224,0.10837,0.60854,5,2D1U,1.0,True,0.291,27,False,left,0.0,0.1794,1.063,0.8835,1.4048,2.1796,0.7748,A,0.275
269,0.50017,0.1,2,0.33345,0.21674,0.77526,269,2.41749,0.184,0.0917,0.59187,5,2D1U,2.0,True,0.642,27,False,right,-0.16672,1.5306,2.3969,0.8663,0.2804,0.8886,0.6081,A,0.275
270,0.50017,1.2,1,0.6002,0.88363,1.75893,270,4.17641,-0.136,-0.06669,0.43348,5,1D2U,2.0,True,0.433,26,False,right,0.25008,0.4555,1.172,0.7165,2.6634,3.697,1.0335,A,0.28
271,0.50017,1.2,2,0.8753,0.42514,1.03368,271,3.42616,0.184,0.0917,0.59187,5,2D1U,1.0,False,0.875,27,False,left,0.0,2.4051,3.2801,0.875,0.73,1.5129,0.7828,A,0.28
272,0.50017,1.2,2,0.35845,0.31677,0.89197,272,2.6759,0.224,0.10837,0.60854,5,2D1U,2.0,True,0.416,28,True,right,-0.16672,1.6698,2.5602,0.8903,0.3025,0.9192,0.6167,A,0.28
273,0.50017,0.1,1,0.67523,0.86696,1.49217,273,3.96801,-0.136,-0.06669,0.43348,5,1D2U,2.0,True,0.408,26,False,right,0.25008,0.5426,1.2509,0.7082,2.4847,3.5106,1.0259,A,0.275
274,0.50017,0.1,1,0.31677,0.42514,0.73358,274,2.42581,-0.096,-0.05002,0.45015,5,1D2U,2.0,True,0.45,26,False,right,0.0,0.1859,0.9112,0.7254,1.5113,2.2863,0.775,A,0.275
275,0.50017,0.1,2,0.37513,0.21674,0.46682,275,2.00901,-0.096,-0.05002,0.45015,5,1D2U,1.0,True,0.442,26,False,left,-0.16672,1.2683,1.9929,0.7246,0.3264,0.9341,0.6077,A,0.275
276,0.50017,1.2,1,0.64188,0.70857,1.31711,276,3.77627,0.224,0.10837,0.60854,5,2D1U,1.0,True,0.417,28,True,left,0.25008,0.5004,1.3917,0.8913,2.4418,3.4748,1.0329,A,0.28
277,0.50017,1.2,1,0.83362,0.50851,1.3838,277,3.70126,-0.056,-0.02501,0.47516,5,1D2U,2.0,True,0.491,26,False,right,0.0,0.6919,1.4501,0.7582,2.6919,3.4756,0.7837,A,0.28
278,0.50017,1.2,2,0.33345,0.44182,0.60854,278,2.47585,0.184,0.0917,0.59187,5,2D1U,2.0,True,0.351,29,True,right,-0.16672,1.3587,2.2339,0.8752,0.2755,0.8925,0.617,A,0.28
279,0.50017,0.1,2,0.89197,0.75025,1.28377,279,3.90132,-0.056,-0.02501,0.47516,5,1D2U,1.0,True,0.426,26,False,left,0.25008,2.8099,3.5591,0.7492,0.6347,1.6595,1.0248,A,0.275
280,0.50017,0.1,2,0.62521,0.53351,1.58387,280,3.73459,-0.016,-0.00834,0.49183,5,1D2U,2.0,False,0.416,26,False,right,0.0,2.7149,3.4816,0.7666,0.489,1.2645,0.7754,A,0.275
281,0.50017,0.1,2,0.20007,0.34178,0.59187,281,2.22576,0.184,0.0917,0.59187,5,2D1U,2.0,True,0.508,29,True,right,-0.16672,1.2182,2.0848,0.8666,0.1508,0.7593,0.6085,A,0.275
282,0.50017,1.2,1,0.72525,0.44182,1.76726,282,3.90966,-0.056,-0.02501,0.47516,5,1D2U,2.0,True,0.417,27,True,right,0.25008,0.5867,1.3452,0.7585,2.8448,3.8782,1.0334,A,0.28
283,0.50017,1.2,1,0.65856,0.50017,1.52552,283,3.65958,-0.056,-0.02501,0.47516,5,1D2U,1.0,False,0.35,27,True,left,0.0,0.5142,1.2724,0.7583,2.6557,3.4391,0.7834,A,0.28
284,0.50017,1.2,2,0.22508,0.23341,0.89197,284,2.42582,0.144,0.07503,0.57519,5,2D1U,2.0,True,0.367,29,False,right,-0.16672,1.5297,2.388,0.8582,0.1625,0.7793,0.6168,A,0.28
285,0.50017,0.1,1,0.65022,0.53351,1.10037,285,3.23442,-0.096,-0.05002,0.45015,5,1D2U,2.0,True,0.491,27,False,right,0.25008,0.5177,1.2427,0.725,2.0843,3.1096,1.0253,A,0.275
286,0.50017,0.1,1,0.34178,0.3001,0.71691,286,2.43415,0.144,0.07503,0.57519,5,2D1U,2.0,False,0.484,29,False,right,0.0,0.2079,1.0578,0.8499,1.6415,2.4166,0.7751,A,0.275
287,0.50017,0.1,2,0.44182,0.20007,0.65022,287,2.24243,-0.096,-0.05002,0.45015,5,1D2U,1.0,True,0.483,27,False,left,-0.16672,1.5202,2.2453,0.7251,0.3954,1.0036,0.6082,A,0.275
288,0.50017,1.2,2,0.89197,0.56686,1.46716,288,4.01803,0.184,0.0917,0.59187,5,2D1U,1.0,False,0.384,30,True,left,0.25008,2.9815,3.857,0.8755,0.6236,1.6563,1.0327,A,0.28
289,0.50017,1.2,2,0.47516,0.85862,1.55886,289,4.00135,0.224,0.10837,0.60854,5,2D1U,2.0,True,0.301,30,False,right,0.0,2.5284,3.4202,0.8918,0.3286,1.1122,0.7836,A,0.28
290,0.50017,1.2,1,0.25008,0.35845,0.74192,290,2.45916,0.224,0.10837,0.60854,5,2D1U,1.0,True,0.45,30,False,left,-0.16672,0.1096,1.0011,0.8915,1.6848,2.3011,0.6163,A,0.28
291,0.50017,0.1,1,0.70857,0.89197,0.88363,291,3.57621,0.184,0.0917,0.59187,5,2D1U,1.0,True,0.325,31,True,left,0.25008,0.5773,1.4442,0.8669,2.0692,3.094,1.0248,A,0.275
292,0.50017,0.1,1,0.66689,0.49183,1.7756,292,3.90965,-0.056,-0.02501,0.47516,5,1D2U,2.0,True,0.334,28,True,right,0.0,0.5354,1.2854,0.7499,2.9271,3.7014,0.7742,A,0.275
293,0.50017,0.1,2,0.31677,0.31677,0.59187,293,2.31745,0.184,0.0917,0.59187,5,2D1U,2.0,True,0.4,31,True,right,-0.16672,1.3354,2.202,0.8666,0.269,0.877,0.608,A,0.275
294,0.50017,1.2,2,0.64188,0.42514,1.2921,294,3.33445,-0.056,-0.02501,0.47516,5,1D2U,2.0,False,0.392,28,True,right,0.25008,2.559,3.3166,0.7576,0.3757,1.4089,1.0332,A,0.28
295,0.50017,1.2,2,0.85862,0.45849,1.75893,295,4.02636,-0.096,-0.05002,0.45015,5,1D2U,2.0,False,0.493,29,True,right,0.0,3.1136,3.847,0.7334,0.7138,1.4964,0.7826,A,0.28
296,0.50017,1.2,1,0.36679,0.27509,0.74192,296,2.45916,0.144,0.07503,0.57519,5,2D1U,1.0,True,0.475,31,False,left,-0.16672,0.2245,1.0836,0.8591,1.7669,2.3838,0.6169,A,0.28
297,0.50017,0.1,1,0.49183,0.40014,1.13372,297,3.10105,0.144,0.07503,0.57519,5,2D1U,1.0,True,0.35,31,False,left,0.25008,0.3592,1.2093,0.8501,2.0843,3.1092,1.0249,A,0.275
298,0.50017,0.1,2,0.35012,0.37513,0.83362,298,2.49252,-0.136,-0.06669,0.43348,5,1D2U,2.0,False,0.374,29,False,right,0.0,1.6926,2.4003,0.7077,0.2172,0.9924,0.7752,A,0.275
299,0.50017,0.1,1,0.31677,0.36679,0.7836,299,2.3758,-0.176,-0.0917,0.40847,5,1D2U,1.0,False,0.45,29,False,left,-0.16672,0.1813,0.8643,0.683,1.5979,2.2061,0.6081,A,0.275
300,0.50017,1.2,1,0.41681,0.80861,0.84195,300,3.11773,0.104,0.05002,0.55019,5,2D1U,2.0,False,1.017,31,False,right,0.25008,0.272,1.1057,0.8336,1.6806,2.7135,1.0329,A,0.28
301,0.50017,1.2,1,0.45849,0.70024,1.45883,301,3.50953,-0.216,-0.10837,0.3918,5,1D2U,1.0,False,0.4,29,False,left,0.0,0.3123,0.9874,0.6751,2.3041,3.0876,0.7835,A,0.28
302,0.50017,1.2,2,0.27509,0.3918,0.86696,302,2.60921,0.144,0.07503,0.57519,5,2D1U,2.0,True,0.433,32,True,right,-0.16672,1.5608,2.4194,0.8585,0.2198,0.8366,0.6168,A,0.28
303,0.50017,0.1,1,0.85029,0.62521,1.60054,303,3.95134,-0.256,-0.12504,0.37513,5,1D2U,2.0,True,0.385,29,False,right,0.25008,0.7134,1.3627,0.6493,2.7043,3.7292,1.0249,A,0.275
304,0.50017,0.1,2,0.29177,0.38346,0.4835,304,2.03403,-0.256,-0.12504,0.37513,5,1D2U,1.0,True,0.359,29,False,left,0.0,1.2868,1.9367,0.6499,0.1613,0.9367,0.7754,A,0.275
305,0.50017,0.1,1,0.3918,0.25842,0.72525,305,2.45083,0.144,0.07503,0.57519,5,2D1U,1.0,True,0.383,32,True,left,-0.16672,0.2605,1.1116,0.8511,1.7863,2.3946,0.6083,A,0.275
306,0.50017,1.2,1,0.41681,0.86696,1.18373,306,3.51786,0.104,0.05002,0.55019,5,2D1U,2.0,False,0.349,33,True,right,0.25008,0.2777,1.1111,0.8335,2.0281,3.0604,1.0324,A,0.28
307,0.50017,1.2,1,0.52518,0.80027,1.01701,307,3.23443,-0.216,-0.10837,0.3918,5,1D2U,2.0,True,0.333,30,True,right,0.0,0.3872,1.0616,0.6744,1.9364,2.7198,0.7835,A,0.28
308,0.50017,1.2,2,0.43348,0.25842,0.85862,308,2.44249,-0.216,-0.10837,0.3918,5,1D2U,1.0,True,0.425,30,True,left,-0.16672,1.7101,2.3852,0.6751,0.3768,0.9934,0.6166,A,0.28
309,0.50017,0.1,1,0.6919,0.66689,1.34212,309,3.77627,0.144,0.07503,0.57519,5,2D1U,1.0,True,0.258,34,True,left,0.25008,0.5601,1.4096,0.8495,2.4928,3.5179,1.025,A,0.275
310,0.50017,0.1,1,0.45849,0.85862,0.82528,310,3.05103,-0.176,-0.0917,0.40847,5,1D2U,2.0,True,0.467,30,False,right,0.0,0.3267,1.0102,0.6835,1.702,2.4768,0.7748,A,0.275
311,0.50017,0.1,1,0.45015,0.28343,0.70024,311,2.34246,-0.176,-0.0917,0.40847,5,1D2U,1.0,False,0.559,30,False,left,-0.16672,0.3142,0.9984,0.6842,1.6484,2.2568,0.6084,A,0.275
312,0.50017,1.2,1,0.62521,0.54185,1.21708,312,3.27611,-0.216,-0.10837,0.3918,5,1D2U,2.0,True,0.432,31,True,right,0.25008,0.4794,1.1542,0.6749,2.1047,3.1377,1.033,A,0.28
313,0.50017,1.2,2,0.79193,0.55852,1.71725,313,4.14306,0.144,0.07503,0.57519,5,2D1U,2.0,True,0.384,34,True,right,0.0,3.0093,3.8676,0.8583,0.6512,1.4345,0.7832,A,0.28
314,0.50017,1.2,2,0.34178,0.36679,0.54185,314,2.30078,0.104,0.05002,0.55019,5,2D1U,1.0,False,0.333,35,True,left,-0.16672,1.2978,2.1314,0.8337,0.281,0.8977,0.6167,A,0.28
315,0.50017,0.1,1,0.40847,0.77526,0.92531,315,3.00101,-0.216,-0.10837,0.3918,5,1D2U,2.0,True,0.367,31,True,right,0.25008,0.2774,0.9442,0.6668,1.6109,2.6363,1.0254,A,0.275
316,0.50017,0.1,1,0.35012,0.35845,0.52518,316,2.30911,0.144,0.07503,0.57519,5,2D1U,2.0,False,0.366,36,True,right,0.0,0.2146,1.0646,0.8501,1.4557,2.2316,0.7759,A,0.275
317,0.50017,0.1,2,0.22508,0.35012,0.84195,317,2.32579,-0.176,-0.0917,0.40847,5,1D2U,2.0,False,0.683,32,True,right,-0.16672,1.4931,2.1769,0.6839,0.1762,0.7842,0.608,A,0.275
318,0.50017,1.2,2,0.56686,0.46682,1.03368,318,3.1594,0.184,0.0917,0.59187,5,2D1U,2.0,True,0.741,36,False,right,0.25008,2.2232,3.0986,0.8754,0.2986,1.3315,1.0328,A,0.28
319,0.50017,1.2,1,0.44182,0.9003,1.61721,319,4.05137,0.184,0.0917,0.59187,5,2D1U,1.0,True,0.692,36,False,left,0.0,0.2973,1.1725,0.8752,2.6475,3.4308,0.7833,A,0.28
320,0.50017,1.2,2,0.3918,0.23341,0.76693,320,2.4675,0.144,0.07503,0.57519,5,2D1U,2.0,True,0.458,37,True,right,-0.16672,1.5706,2.4287,0.8582,0.329,0.9462,0.6172,A,0.28
321,0.50017,0.1,2,0.59187,0.51684,1.57553,321,3.57621,-0.216,-0.10837,0.3918,5,1D2U,1.0,True,0.341,33,True,left,0.25008,2.7984,3.465,0.6666,0.3315,1.3564,1.0248,A,0.275
322,0.50017,0.1,1,0.42514,0.70857,1.78394,322,3.80962,-0.216,-0.10837,0.3918,5,1D2U,2.0,True,0.375,33,True,right,0.0,0.2894,0.9566,0.6672,2.6057,3.3807,0.7749,A,0.275
323,0.50017,0.1,1,0.38346,0.42514,0.40847,323,2.12571,-0.176,-0.0917,0.40847,5,1D2U,1.0,False,0.383,34,True,left,-0.16672,0.2503,0.9329,0.6827,1.292,1.9004,0.6084,A,0.275
324,0.50017,1.2,1,0.76693,0.40014,1.5672,324,3.80963,0.144,0.07503,0.57519,5,2D1U,1.0,True,0.375,37,True,left,0.25008,0.6226,1.481,0.8584,2.7809,3.8143,1.0334,A,0.28
325,0.50017,1.2,1,0.73358,0.43348,1.48383,325,3.70125,0.104,0.05002,0.55019,5,2D1U,1.0,True,0.359,37,False,left,0.0,0.5953,1.428,0.8327,2.7697,3.5531,0.7834,A,0.28
326,0.50017,1.2,1,0.35012,0.43348,0.72525,326,2.40082,-0.216,-0.10837,0.3918,5,1D2U,1.0,False,0.359,35,True,left,-0.16672,0.2099,0.8847,0.6748,1.5518,2.1682,0.6164,A,0.28
327,0.50017,0.1,1,0.84195,0.89197,1.70891,327,4.31813,-0.256,-0.12504,0.37513,5,1D2U,2.0,True,0.433,35,False,right,0.25008,0.7074,1.3572,0.6498,2.8069,3.832,1.0251,A,0.275
328,0.50017,0.1,2,0.50851,0.42514,1.32545,328,3.30946,0.104,0.05002,0.55019,5,2D1U,2.0,True,0.491,37,False,right,0.0,2.3382,3.1633,0.825,0.3712,1.1464,0.7751,A,0.275
329,0.50017,0.1,2,0.26676,0.3918,0.77526,329,2.30912,-0.256,-0.12504,0.37513,5,1D2U,1.0,True,0.408,35,False,left,-0.16672,1.4684,2.1182,0.6497,0.2182,0.8258,0.6075,A,0.275
330,0.50017,1.2,2,0.89197,0.64188,1.25876,330,3.82629,0.064,0.03334,0.53351,5,2D1U,2.0,True,0.292,37,False,right,0.25008,2.7758,3.5926,0.8167,0.6259,1.6592,1.0333,A,0.28
331,0.50017,1.2,1,0.65022,0.55019,1.61721,331,3.8513,0.064,0.03334,0.53351,5,2D1U,2.0,False,0.408,37,False,right,0.0,0.5094,1.326,0.8166,2.8003,3.5845,0.7842,A,0.28
332,0.50017,1.2,2,0.33345,0.34178,0.75859,332,2.32579,-0.216,-0.10837,0.3918,5,1D2U,2.0,False,0.367,36,True,right,-0.16672,1.5098,2.1844,0.6746,0.2764,0.8935,0.6171,A,0.28
333,0.50017,0.1,2,0.50851,0.81694,0.80861,333,3.18442,0.104,0.05002,0.55019,5,2D1U,1.0,False,0.268,38,True,left,0.25008,1.9522,2.7781,0.8259,0.2526,1.2779,1.0254,A,0.275
334,0.50017,0.1,2,0.36679,0.35012,0.40847,334,2.20074,0.144,0.07503,0.57519,5,2D1U,2.0,True,0.359,38,False,right,0.0,1.281,2.1308,0.8498,0.2308,1.0058,0.775,A,0.275
335,0.50017,0.1,2,0.34178,0.34178,0.63355,335,2.19241,-0.256,-0.12504,0.37513,5,1D2U,1.0,True,0.342,37,True,left,-0.16672,1.3966,2.0467,0.6501,0.2887,0.8967,0.608,A,0.275
336,0.50017,1.2,2,0.57519,0.40847,1.66723,336,3.72625,0.144,0.07503,0.57519,5,2D1U,1.0,False,0.433,38,False,left,0.25008,2.8632,3.7212,0.858,0.305,1.3379,1.0329,A,0.28
337,0.50017,1.2,1,0.80027,0.42514,1.16706,337,3.26777,-0.256,-0.12504,0.37513,5,1D2U,2.0,True,0.483,37,True,right,0.0,0.6611,1.3193,0.6582,2.3444,3.127,0.7826,A,0.28
338,0.50017,1.2,1,0.34178,0.41681,0.49183,338,2.34246,0.184,0.0917,0.59187,5,2D1U,2.0,False,0.466,38,False,right,-0.16672,0.198,1.0724,0.8744,1.5061,2.123,0.6168,A,0.28
339,0.50017,0.1,1,0.55019,0.47516,1.12538,339,3.25944,0.224,0.10837,0.60854,5,2D1U,1.0,True,0.425,38,False,left,0.25008,0.4184,1.3019,0.8835,2.1685,3.1937,1.0252,A,0.275
340,0.50017,0.1,1,0.27509,0.43348,0.45849,340,2.05903,-0.216,-0.10837,0.3918,5,1D2U,2.0,True,0.358,38,True,right,0.0,0.1374,0.803,0.6656,1.1286,1.9036,0.775,A,0.275
341,0.50017,0.1,2,0.20007,0.29177,0.64188,341,2.02569,-0.216,-0.10837,0.3918,5,1D2U,1.0,True,0.408,38,True,left,-0.16672,1.265,1.9316,0.6666,0.1483,0.756,0.6077,A,0.275
342,0.50017,1.2,1,0.70024,0.75025,1.3838,342,3.74293,-0.176,-0.0917,0.40847,5,1D2U,2.0,True,0.375,38,False,right,0.25008,0.5577,1.2494,0.6917,2.3658,3.399,1.0333,A,0.28
343,0.50017,1.2,1,0.40014,0.44182,0.56686,343,2.51753,0.224,0.10837,0.60854,5,2D1U,1.0,True,0.384,38,False,left,0.0,0.2566,1.149,0.8924,1.5742,2.3574,0.7832,A,0.28
344,0.50017,1.2,1,0.44182,0.25008,0.52518,344,2.30912,0.184,0.0917,0.59187,5,2D1U,2.0,False,0.392,39,True,right,-0.16672,0.3036,1.1784,0.8748,1.6451,2.2618,0.6167,A,0.28
345,0.50017,0.1,2,0.43348,0.68356,1.4755,345,3.50118,-0.176,-0.0917,0.40847,5,1D2U,1.0,True,0.317,38,False,left,0.25008,2.545,3.2278,0.6828,0.1784,1.2027,1.0243,A,0.275
346,0.50017,0.1,1,0.34178,0.36679,0.84195,346,2.48417,-0.136,-0.06669,0.43348,5,1D2U,2.0,True,0.45,38,False,right,0.0,0.2042,0.9125,0.7083,1.6203,2.396,0.7757,A,0.275
347,0.50017,0.1,2,0.25008,0.21674,0.72525,347,2.30078,0.224,0.10837,0.60854,5,2D1U,2.0,True,0.384,40,True,right,-0.16672,1.4012,2.2844,0.8832,0.2005,0.809,0.6085,A,0.275
348,0.50017,1.2,1,0.63355,0.75859,0.92531,348,3.2511,-0.136,-0.06669,0.43348,5,1D2U,1.0,False,0.375,38,False,left,0.25008,0.4897,1.2068,0.717,1.8647,2.898,1.0334,A,0.28
349,0.50017,1.2,2,0.41681,0.41681,0.40014,349,2.34247,0.224,0.10837,0.60854,5,2D1U,2.0,True,0.417,40,True,right,0.0,1.3172,2.2096,0.8924,0.2758,1.0596,0.7837,A,0.28
350,0.50017,1.2,2,0.3001,0.25842,0.70857,350,2.35913,0.184,0.0917,0.59187,5,2D1U,2.0,True,0.408,41,True,right,-0.16672,1.4236,2.2985,0.8749,0.241,0.8569,0.6159,A,0.28
351,0.50017,0.1,2,0.54185,0.49183,1.76726,351,3.70958,-0.176,-0.0917,0.40847,5,1D2U,2.0,False,0.458,39,True,right,0.25008,2.9432,3.6263,0.6831,0.2837,1.3095,1.0257,A,0.275
352,0.50017,0.1,1,0.40014,0.40847,0.76693,352,2.66758,0.184,0.0917,0.59187,5,2D1U,2.0,False,0.341,41,True,right,0.0,0.2632,1.1306,0.8674,1.764,2.5385,0.7745,A,0.275
353,0.50017,0.1,2,0.31677,0.22508,0.63355,353,2.28411,0.224,0.10837,0.60854,5,2D1U,1.0,False,0.408,42,True,left,-0.16672,1.3742,2.2576,0.8834,0.2662,0.8739,0.6077,A,0.275
354,0.50017,1.2,1,0.8753,0.63355,1.15872,354,3.55954,-0.216,-0.10837,0.3918,5,1D2U,2.0,True,0.449,39,False,right,0.25008,0.7287,1.4042,0.6755,2.2954,3.3289,1.0334,A,0.28
355,0.50017,1.2,2,0.44182,0.43348,0.77526,355,2.54253,-0.216,-0.10837,0.3918,5,1D2U,2.0,False,0.417,39,False,right,0.0,1.7119,2.3874,0.6755,0.2954,1.0791,0.7837,A,0.28
356,0.50017,1.2,1,0.25842,0.26676,0.50017,356,1.90065,-0.256,-0.12504,0.37513,5,1D2U,1.0,False,0.359,39,False,left,-0.16672,0.1132,0.7711,0.658,1.2133,1.8301,0.6168,A,0.28
357,0.50017,0.1,2,0.44182,0.65856,1.2921,357,3.5262,0.264,0.13338,0.63355,5,2D1U,2.0,True,0.267,42,False,right,0.25008,2.3686,3.2764,0.9077,0.1851,1.2101,1.025,A,0.275
358,0.50017,0.1,2,0.31677,0.40847,0.47516,358,2.33412,0.264,0.13338,0.63355,5,2D1U,2.0,True,0.342,42,False,right,0.0,1.3,2.2086,0.9086,0.1837,0.9585,0.7748,A,0.275
359,0.50017,0.1,1,0.23341,0.41681,0.49183,359,1.99234,-0.296,-0.15005,0.35012,5,1D2U,1.0,False,0.367,39,False,left,-0.16672,0.1039,0.7281,0.6242,1.1707,1.7785,0.6078,A,0.275
360,0.50017,1.2,1,0.53351,0.59187,1.05035,360,3.00935,-0.336,-0.16672,0.33345,5,1D2U,2.0,True,0.374,39,False,right,0.25008,0.3881,1.0046,0.6166,1.7879,2.8209,1.033,A,0.28
361,0.50017,1.2,2,0.36679,0.28343,0.40847,361,2.1674,0.224,0.10837,0.60854,5,2D1U,1.0,False,0.225,43,True,left,0.0,1.2758,2.168,0.8922,0.2269,1.009,0.7821,A,0.28
362,0.50017,1.2,2,0.41681,0.36679,0.4835,362,2.40082,0.264,0.13338,0.63355,5,2D1U,2.0,True,0.374,44,True,right,-0.16672,1.314,2.2309,0.917,0.3561,0.972,0.6159,A,0.28
363,0.50017,0.1,1,0.52518,0.62521,1.23375,363,3.21776,-0.336,-0.16672,0.33345,5,1D2U,2.0,True,0.392,39,False,right,0.25008,0.3925,1.0007,0.6082,1.9761,3.0007,1.0246,A,0.275
364,0.50017,0.1,1,0.43348,0.80027,0.91698,364,3.28445,0.264,0.13338,0.63355,5,2D1U,1.0,True,0.374,44,True,left,0.0,0.2987,1.2069,0.9082,1.9901,2.7652,0.7751,A,0.275
365,0.50017,0.1,2,0.38346,0.25842,0.44182,365,1.93399,-0.296,-0.15005,0.35012,5,1D2U,1.0,True,0.434,40,True,left,-0.16672,1.2462,1.8708,0.6246,0.3287,0.938,0.6094,A,0.275
366,0.50017,1.2,1,0.47516,0.65856,1.28377,366,3.5262,0.224,0.10837,0.60854,5,2D1U,2.0,False,0.367,45,True,right,0.25008,0.3362,1.228,0.8918,2.2443,3.2775,1.0331,A,0.28
367,0.50017,1.2,1,0.40014,0.42514,0.52518,367,2.20075,-0.296,-0.15005,0.35012,5,1D2U,1.0,False,0.384,40,True,left,0.0,0.2559,0.8892,0.6333,1.2725,2.0559,0.7834,A,0.28
368,0.50017,1.2,2,0.30844,0.33345,0.4835,368,1.95901,-0.336,-0.16672,0.33345,5,1D2U,1.0,True,0.459,41,True,left,-0.16672,1.2083,1.8251,0.6167,0.2502,0.8668,0.6166,A,0.28
369,0.50017,0.1,1,0.55019,0.72525,1.19207,369,3.30113,-0.336,-0.16672,0.33345,5,1D2U,2.0,True,0.358,41,True,right,0.25008,0.4137,1.0218,0.6081,1.9555,2.9805,1.025,A,0.275
370,0.50017,0.1,2,0.33345,0.33345,0.40847,370,2.20909,0.264,0.13338,0.63355,5,2D1U,2.0,True,0.391,46,True,right,0.0,1.2469,2.1552,0.9083,0.197,0.9717,0.7747,A,0.275
371,0.50017,0.1,1,0.44182,0.38346,0.84195,371,2.80095,0.264,0.13338,0.63355,5,2D1U,1.0,True,0.409,46,True,left,-0.16672,0.3093,1.2175,0.9082,2.0092,2.6179,0.6087,A,0.275
372,0.50017,1.2,2,0.74192,0.73358,1.15039,372,3.7346,0.224,0.10837,0.60854,5,2D1U,2.0,True,0.351,47,True,right,0.25008,2.5204,3.4117,0.8913,0.4786,1.512,1.0334,A,0.28
373,0.50017,1.2,1,0.41681,0.7836,1.35879,373,3.40949,-0.296,-0.15005,0.35012,5,1D2U,2.0,True,0.442,42,True,right,0.0,0.2766,0.9098,0.6331,2.1268,2.9101,0.7833,A,0.28
374,0.50017,1.2,1,0.43348,0.37513,0.50017,374,2.15907,-0.296,-0.15005,0.35012,5,1D2U,1.0,False,0.425,42,True,left,-0.16672,0.2946,0.9282,0.6336,1.3701,1.9867,0.6166,A,0.28
375,0.50017,0.1,2,0.70024,0.67523,1.24209,375,3.45118,-0.336,-0.16672,0.33345,5,1D2U,1.0,True,0.442,43,True,left,0.25008,2.5723,3.1808,0.6085,0.4388,1.4639,1.0252,A,0.275
376,0.50017,0.1,1,0.50017,0.64188,1.72558,376,3.97634,0.224,0.10837,0.60854,5,2D1U,1.0,True,0.467,47,True,left,0.0,0.3625,1.2458,0.8833,2.8374,3.6125,0.7751,A,0.275
377,0.50017,0.1,1,0.34178,0.3001,0.52518,377,2.00068,-0.336,-0.16672,0.33345,5,1D2U,2.0,True,0.367,43,True,right,-0.16672,0.2114,0.8196,0.6082,1.2946,1.9027,0.6081,A,0.275
378,0.50017,1.2,1,0.53351,0.55852,1.00867,378,3.19274,0.184,0.0917,0.59187,5,2D1U,1.0,True,0.3,47,False,left,0.25008,0.3941,1.2696,0.8755,2.0107,3.0439,1.0332,A,0.28
379,0.50017,1.2,2,0.45849,0.44182,1.07536,379,2.82596,-0.296,-0.15005,0.35012,5,1D2U,1.0,True,0.35,44,True,left,0.0,2.0345,2.6681,0.6336,0.3179,1.1011,0.7832,A,0.28
380,0.50017,1.2,1,0.3001,0.2084,0.45849,380,2.05903,0.184,0.0917,0.59187,5,2D1U,2.0,False,0.45,47,False,right,-0.16672,0.1564,1.0314,0.875,1.4307,2.0475,0.6168,A,0.28
381,0.50017,0.1,1,0.46682,0.41681,1.71725,381,3.45117,-0.296,-0.15005,0.35012,5,1D2U,2.0,True,0.324,44,True,right,0.25008,0.3304,0.955,0.6247,2.4135,3.4385,1.025,A,0.275
382,0.50017,0.1,2,0.42514,0.82528,0.9003,382,3.02602,-0.256,-0.12504,0.37513,5,1D2U,1.0,True,0.416,44,False,left,0.0,1.8363,2.4868,0.6505,0.2947,1.0701,0.7755,A,0.275
383,0.50017,0.1,2,0.23341,0.28343,0.76693,383,2.15907,-0.256,-0.12504,0.37513,5,1D2U,2.0,False,0.433,44,False,right,-0.16672,1.4235,2.074,0.6505,0.1819,0.7899,0.608,A,0.275
384,0.50017,1.2,2,0.83362,0.50851,0.9003,384,3.35114,0.224,0.10837,0.60854,5,2D1U,1.0,False,0.383,48,True,left,0.25008,2.3584,3.25,0.8916,0.5667,1.5994,1.0328,A,0.28
385,0.50017,1.2,1,0.41681,0.40014,1.03368,385,2.98435,0.264,0.13338,0.63355,5,2D1U,2.0,False,0.467,48,False,right,0.0,0.2748,1.1916,0.9168,2.084,2.8672,0.7832,A,0.28
386,0.50017,1.2,2,0.23341,0.34178,0.8753,386,2.30078,-0.296,-0.15005,0.35012,5,1D2U,1.0,True,0.416,45,True,left,-0.16672,1.5235,2.1571,0.6336,0.1737,0.79,0.6164,A,0.28
387,0.50017,0.1,2,0.74192,0.8753,1.35879,387,4.1264,0.304,0.15005,0.65022,5,2D1U,1.0,False,0.317,48,False,left,0.25008,2.7314,3.6567,0.9253,0.4815,1.5064,1.0249,A,0.275
388,0.50017,0.1,1,0.38346,0.35012,0.43348,388,2.34246,0.344,0.17506,0.67523,5,2D1U,1.0,True,0.45,48,False,left,0.0,0.247,1.1967,0.9496,1.4966,2.2717,0.7751,A,0.275
389,0.50017,0.1,1,0.3001,0.32511,0.53351,389,2.33412,0.344,0.17506,0.67523,5,2D1U,1.0,True,0.426,48,False,left,-0.16672,0.1621,1.1121,0.95,1.5956,2.2038,0.6082,A,0.275
390,0.50017,1.2,2,0.89197,0.6002,1.41715,390,4.05971,0.304,0.15005,0.65022,5,2D1U,2.0,True,0.426,49,True,right,0.25008,2.9287,3.8624,0.9337,0.6207,1.6542,1.0335,A,0.28
391,0.50017,1.2,1,0.50851,0.75025,1.24209,391,3.35114,-0.296,-0.15005,0.35012,5,1D2U,2.0,True,0.367,45,True,right,0.0,0.3665,0.9997,0.6332,2.0991,2.883,0.7839,A,0.28
392,0.50017,1.2,2,0.21674,0.23341,0.86696,392,2.4675,0.304,0.15005,0.65022,5,2D1U,2.0,True,0.258,49,True,right,-0.16672,1.5014,2.435,0.9336,0.1598,0.7761,0.6163,A,0.28
393,0.50017,0.1,1,0.6002,0.80861,1.65889,393,3.943,-0.256,-0.12504,0.37513,5,1D2U,2.0,True,0.41,46,True,right,0.25008,0.4684,1.1184,0.6501,2.5183,3.5433,1.025,A,0.275
394,0.50017,0.1,2,0.61688,0.44182,1.20041,394,3.13441,-0.256,-0.12504,0.37513,5,1D2U,1.0,True,0.334,46,True,left,0.0,2.3274,2.9772,0.6498,0.4852,1.2607,0.7755,A,0.275
395,0.50017,0.1,2,0.41681,0.33345,0.55852,395,2.20075,-0.216,-0.10837,0.3918,5,1D2U,1.0,True,0.434,46,False,left,-0.16672,1.3995,2.0662,0.6667,0.3662,0.9743,0.6081,A,0.275
396,0.50017,1.2,2,0.50851,0.56686,0.95866,396,3.16775,0.264,0.13338,0.63355,5,2D1U,2.0,True,0.384,49,False,right,0.25008,2.0933,3.0102,0.9169,0.2431,1.2764,1.0333,A,0.28
397,0.50017,1.2,2,0.88363,0.53351,0.90864,397,3.21775,-0.216,-0.10837,0.3918,5,1D2U,1.0,True,0.317,46,False,left,0.0,2.2944,2.9693,0.675,0.7443,1.528,0.7837,A,0.28
398,0.50017,1.2,1,0.34178,0.35845,0.40847,398,2.01734,-0.176,-0.0917,0.40847,5,1D2U,1.0,False,0.367,46,False,left,-0.16672,0.1981,0.8898,0.6917,1.2391,1.8567,0.6175,A,0.28
399,0.50017,0.1,2,0.42514,0.49183,1.45049,399,3.50118,0.264,0.13338,0.63355,5,2D1U,2.0,True,0.333,49,False,right,0.25008,2.5092,3.4175,0.9083,0.1674,1.1921,1.0247,A,0.275
400,0.50017,0.1,1,0.85862,0.44182,1.40881,400,3.60122,-0.216,-0.10837,0.3918,5,1D2U,2.0,True,0.451,47,True,right,0.0,0.7226,1.3897,0.6671,2.6648,3.4397,0.7749,A,0.275
401,0.50017,0.1,2,0.3918,0.23341,0.51684,401,2.03402,-0.216,-0.10837,0.3918,5,1D2U,1.0,True,0.567,47,True,left,-0.16672,1.329,1.9959,0.6668,0.3379,0.9458,0.6078,A,0.275
402,0.50017,1.2,1,0.75859,0.79193,1.72558,402,4.18474,-0.176,-0.0917,0.40847,5,1D2U,2.0,True,0.341,48,True,right,0.25008,0.6179,1.3091,0.6911,2.7679,3.8013,1.0334,A,0.28
403,0.50017,1.2,2,0.40014,0.34178,0.79193,403,2.64256,0.224,0.10837,0.60854,5,2D1U,1.0,False,0.765,49,False,left,0.0,1.6884,2.5802,0.8918,0.2557,1.0384,0.7827,A,0.28
404,0.50017,1.2,1,0.25008,0.27509,0.70857,404,2.14238,-0.176,-0.0917,0.40847,5,1D2U,2.0,True,0.458,48,True,right,-0.16672,0.1083,0.7993,0.691,1.4492,2.0657,0.6165,A,0.28
405,0.50017,0.1,1,0.89197,0.59187,0.96699,405,3.58455,0.264,0.13338,0.63355,5,2D1U,1.0,True,0.425,50,True,left,0.25008,0.7552,1.6639,0.9087,2.3727,3.3967,1.024,A,0.275
406,0.50017,0.1,1,0.68356,0.51684,1.05869,406,3.39281,0.264,0.13338,0.63355,5,2D1U,1.0,True,0.407,50,True,left,0.0,0.5467,1.4552,0.9085,2.3806,3.155,0.7744,A,0.275
407,0.50017,0.1,2,0.30844,0.23341,0.8753,407,2.52586,0.224,0.10837,0.60854,5,2D1U,2.0,True,0.45,51,True,right,-0.16672,1.609,2.4924,0.8834,0.2588,0.8676,0.6088,A,0.275
408,0.50017,1.2,1,0.44182,0.45015,0.82528,408,2.82596,0.224,0.10837,0.60854,5,2D1U,2.0,False,0.592,51,True,right,0.25008,0.2964,1.188,0.8916,1.7464,2.7799,1.0335,A,0.28
409,0.50017,1.2,1,0.57519,0.54185,1.40881,409,3.4595,-0.136,-0.06669,0.43348,5,1D2U,1.0,False,0.334,48,False,left,0.0,0.4361,1.1522,0.716,2.4187,3.2019,0.7833,A,0.28
410,0.50017,1.2,2,0.32511,0.35012,0.55019,410,2.35914,0.264,0.13338,0.63355,5,2D1U,2.0,True,0.376,52,True,right,-0.16672,1.2903,2.207,0.9167,0.2658,0.8815,0.6157,A,0.28
411,0.50017,0.1,1,0.89197,0.86696,1.20041,411,4.09306,0.264,0.13338,0.63355,5,2D1U,2.0,False,0.342,52,True,right,0.25008,0.7562,1.6652,0.909,2.6069,3.6318,1.0249,A,0.275
412,0.50017,0.1,1,0.35012,0.33345,0.46682,412,2.05903,-0.176,-0.0917,0.40847,5,1D2U,2.0,True,0.383,49,True,right,0.0,0.218,0.9015,0.6835,1.2339,2.0094,0.7755,A,0.275
413,0.50017,0.1,2,0.31677,0.44182,0.83362,413,2.50085,-0.176,-0.0917,0.40847,5,1D2U,1.0,True,0.425,49,True,left,-0.16672,1.5746,2.2578,0.6833,0.2662,0.8746,0.6084,A,0.275
414,0.50017,1.2,1,0.49183,0.54185,1.7756,414,3.95967,0.304,0.15005,0.65022,5,2D1U,2.0,False,0.35,52,False,right,0.25008,0.3477,1.2805,0.9328,2.7892,3.8224,1.0332,A,0.28
415,0.50017,1.2,1,0.35845,0.32511,0.50017,415,2.11738,-0.136,-0.06669,0.43348,5,1D2U,2.0,True,0.433,50,True,right,0.0,0.217,0.934,0.717,1.2933,2.0765,0.7832,A,0.28
416,0.50017,1.2,1,0.21674,0.35012,0.57519,416,2.31745,0.344,0.17506,0.67523,5,2D1U,2.0,False,0.424,52,False,right,-0.16672,0.0719,1.0295,0.9576,1.5468,2.1627,0.6159,A,0.28
417,0.50017,0.1,2,0.67523,0.65856,1.20041,417,3.72627,0.384,0.19173,0.6919,5,2D1U,1.0,False,0.641,52,False,left,0.25008,2.5112,3.4781,0.9668,0.4192,1.4447,1.0255,A,0.275
418,0.50017,0.1,2,0.80027,0.54185,1.15872,418,3.43449,-0.136,-0.06669,0.43348,5,1D2U,1.0,True,0.425,50,True,left,0.0,2.4625,3.1709,0.7084,0.6629,1.4376,0.7747,A,0.275
419,0.50017,0.1,2,0.26676,0.20007,0.52518,419,1.94233,-0.096,-0.05002,0.45015,5,1D2U,2.0,False,0.408,50,False,right,-0.16672,1.2141,1.939,0.7249,0.2142,0.8228,0.6086,A,0.275
420,0.50017,1.2,2,0.74192,0.42514,1.2921,420,3.6679,0.424,0.2084,0.70857,5,2D1U,2.0,True,0.449,52,False,right,0.25008,2.6546,3.6466,0.992,0.4716,1.5049,1.0333,A,0.28
421,0.50017,1.2,1,0.32511,0.35012,0.63355,421,2.51752,0.424,0.2084,0.70857,5,2D1U,1.0,True,0.434,52,False,left,0.0,0.1859,1.1775,0.9916,1.6684,2.4518,0.7834,A,0.28
422,0.50017,1.2,2,0.2084,0.22508,0.81694,422,2.18407,-0.136,-0.06669,0.43348,5,1D2U,2.0,False,0.383,51,True,right,-0.16672,1.4433,2.1596,0.7164,0.1515,0.7676,0.6161,A,0.28
423,0.50017,0.1,2,0.49183,0.45015,0.93365,423,2.78427,-0.176,-0.0917,0.40847,5,1D2U,1.0,True,0.359,51,False,left,0.25008,2.0595,2.7428,0.6833,0.2345,1.259,1.0245,A,0.275
424,0.50017,0.1,2,0.35845,0.43348,0.67523,424,2.65923,0.384,0.19173,0.6919,5,2D1U,2.0,True,0.4,53,True,right,0.0,1.5449,2.5111,0.9662,0.2282,1.0031,0.7749,A,0.275
425,0.50017,0.1,1,0.44182,0.29177,0.45849,425,2.10072,-0.176,-0.0917,0.40847,5,1D2U,1.0,False,0.442,51,False,left,-0.16672,0.3044,0.9872,0.6829,1.396,2.0042,0.6082,A,0.275
426,0.50017,1.2,1,0.63355,0.65856,1.40047,426,3.58455,-0.216,-0.10837,0.3918,5,1D2U,1.0,False,0.308,51,False,left,0.25008,0.4883,1.1631,0.6748,2.2965,3.3298,1.0333,A,0.28
427,0.50017,1.2,2,0.52518,0.62521,1.78394,427,4.1264,0.384,0.19173,0.6919,5,2D1U,2.0,True,0.383,53,True,right,0.0,2.8062,3.7812,0.975,0.3807,1.164,0.7833,A,0.28
428,0.50017,1.2,2,0.41681,0.2084,0.7836,428,2.28411,-0.256,-0.12504,0.37513,5,1D2U,1.0,True,1.083,51,False,left,-0.16672,1.6124,2.2707,0.6583,0.354,0.9706,0.6167,A,0.28
429,0.50017,0.1,1,0.56686,0.72525,1.55052,429,3.71793,-0.256,-0.12504,0.37513,5,1D2U,2.0,True,0.367,51,False,right,0.25008,0.4306,1.0806,0.6501,2.3717,3.3978,1.0261,A,0.275
430,0.50017,0.1,1,0.54185,0.65022,1.70057,430,4.06804,0.344,0.17506,0.67523,5,2D1U,1.0,True,0.383,53,False,left,0.0,0.4075,1.3573,0.9497,2.9246,3.6992,0.7746,A,0.275
431,0.50017,0.1,1,0.36679,0.23341,0.44182,431,2.21742,0.344,0.17506,0.67523,5,2D1U,2.0,False,0.659,53,False,right,-0.16672,0.2304,1.1793,0.9489,1.5711,2.1794,0.6083,A,0.275
432,0.50017,1.2,2,0.75859,0.57519,0.81694,432,3.04269,-0.216,-0.10837,0.3918,5,1D2U,1.0,True,0.275,52,True,left,0.25008,2.2012,2.876,0.6748,0.4925,1.5262,1.0337,A,0.28
433,0.50017,1.2,1,0.50017,0.41681,0.8753,433,2.98435,0.384,0.19173,0.6919,5,2D1U,1.0,True,0.384,54,True,left,0.0,0.3595,1.3346,0.9752,2.0678,2.8511,0.7833,A,0.28
434,0.50017,1.2,1,0.20007,0.23341,0.66689,434,2.29244,0.384,0.19173,0.6919,5,2D1U,1.0,True,0.434,54,True,left,-0.16672,0.0591,1.0343,0.9752,1.6423,2.2592,0.6169,A,0.28
435,0.50017,0.1,2,0.70024,0.86696,1.62555,435,4.36815,0.344,0.17506,0.67523,5,2D1U,2.0,True,0.392,55,True,right,0.25008,2.9563,3.9055,0.9492,0.4388,1.4642,1.0254,A,0.275
436,0.50017,0.1,2,0.81694,0.45015,1.00867,436,3.16773,-0.216,-0.10837,0.3918,5,1D2U,1.0,True,0.432,52,True,left,0.0,2.3288,2.9958,0.667,0.6785,1.4542,0.7757,A,0.275
437,0.50017,0.1,2,0.22508,0.36679,0.77526,437,2.54253,0.344,0.17506,0.67523,5,2D1U,2.0,True,0.374,55,True,right,-0.16672,1.426,2.3762,0.9502,0.1765,0.7838,0.6073,A,0.275
438,0.50017,1.2,1,0.77526,0.49183,1.09204,438,3.26777,-0.176,-0.0917,0.40847,5,1D2U,1.0,False,0.425,52,False,left,0.25008,0.6316,1.3235,0.6919,2.1485,3.1817,1.0332,A,0.28
439,0.50017,1.2,2,0.42514,0.3001,0.45849,439,2.33412,0.304,0.15005,0.65022,5,2D1U,1.0,False,0.375,55,False,left,0.0,1.3855,2.3185,0.933,0.2852,1.0686,0.7834,A,0.28
440,0.50017,1.2,2,0.44182,0.35012,0.89197,440,2.57588,-0.216,-0.10837,0.3918,5,1D2U,1.0,True,0.409,53,True,left,-0.16672,1.7476,2.4226,0.675,0.3806,0.9972,0.6167,A,0.28
441,0.50017,0.1,1,0.85029,0.80861,1.02535,441,3.85965,0.344,0.17506,0.67523,5,2D1U,1.0,True,0.442,56,True,left,0.25008,0.7128,1.6633,0.9505,2.4301,3.4551,1.025,A,0.275
442,0.50017,0.1,1,0.8753,0.40847,0.98367,442,3.44284,0.344,0.17506,0.67523,5,2D1U,2.0,False,0.425,56,True,right,0.0,0.7385,1.6891,0.9507,2.5391,3.314,0.7749,A,0.275
443,0.50017,0.1,2,0.40014,0.28343,0.6002,443,2.17574,-0.216,-0.10837,0.3918,5,1D2U,1.0,True,0.426,53,True,left,-0.16672,1.4238,2.0905,0.6666,0.3488,0.9571,0.6083,A,0.275
444,0.50017,1.2,1,0.55852,0.51684,1.44215,444,3.70958,0.384,0.19173,0.6919,5,2D1U,1.0,True,0.55,56,False,left,0.25008,0.4187,1.3937,0.9749,2.5688,3.6021,1.0334,A,0.28
445,0.50017,1.2,1,0.50851,0.74192,1.62555,445,3.78462,-0.176,-0.0917,0.40847,5,1D2U,2.0,True,0.324,54,True,right,0.0,0.3639,1.0562,0.6922,2.5388,3.3222,0.7833,A,0.28
446,0.50017,1.2,2,0.3918,0.28343,0.49183,446,2.35913,0.384,0.19173,0.6919,5,2D1U,2.0,True,0.383,56,False,right,-0.16672,1.3025,2.277,0.9746,0.3359,0.9523,0.6164,A,0.28
447,0.50017,0.1,2,0.6919,0.71691,0.85029,447,3.16774,-0.176,-0.0917,0.40847,5,1D2U,1.0,True,0.468,54,True,left,0.25008,2.1771,2.8604,0.6833,0.4353,1.4604,1.025,A,0.275
448,0.50017,0.1,1,0.35845,0.27509,0.89197,448,2.70091,0.344,0.17506,0.67523,5,2D1U,1.0,True,0.433,57,True,left,0.0,0.2222,1.1731,0.9508,1.9312,2.7063,0.7751,A,0.275
449,0.50017,0.1,1,0.22508,0.33345,0.89197,449,2.38415,-0.136,-0.06669,0.43348,5,1D2U,2.0,True,0.359,54,False,right,-0.16672,0.0934,0.8021,0.7087,1.6438,2.2518,0.6081,A,0.275
450,0.50017,1.2,1,0.40847,0.65022,0.96699,450,2.95933,-0.136,-0.06669,0.43348,5,1D2U,2.0,True,0.433,54,False,right,0.25008,0.2697,0.9867,0.717,1.6862,2.7196,1.0334,A,0.28
451,0.50017,1.2,1,0.37513,0.30844,0.56686,451,2.42583,0.344,0.17506,0.67523,5,2D1U,2.0,False,0.433,57,True,right,0.0,0.2311,1.1897,0.9586,1.6147,2.3977,0.783,A,0.28
452,0.50017,1.2,2,0.3918,0.3001,0.47516,452,2.11738,-0.096,-0.05002,0.45015,5,1D2U,1.0,True,0.391,54,False,left,-0.16672,1.2799,2.0139,0.7339,0.3304,0.9469,0.6165,A,0.28
453,0.50017,0.1,1,0.50017,0.84195,1.51718,453,4.05137,0.384,0.19173,0.6919,5,2D1U,2.0,False,0.383,58,True,right,0.25008,0.3643,1.3309,0.9666,2.5894,3.614,1.0246,A,0.275
454,0.50017,0.1,2,0.3918,0.44182,0.58353,454,2.62589,0.424,0.2084,0.70857,5,2D1U,2.0,True,0.458,58,False,right,0.0,1.487,2.4703,0.9833,0.2619,1.037,0.7751,A,0.275
455,0.50017,0.1,2,0.25008,0.26676,0.84195,455,2.56753,0.424,0.2084,0.70857,5,2D1U,2.0,True,0.324,58,False,right,-0.16672,1.5186,2.5024,0.9838,0.2026,0.8112,0.6086,A,0.275
456,0.50017,1.2,1,0.40847,0.52518,1.11704,456,3.24276,0.384,0.19173,0.6919,5,2D1U,1.0,True,0.441,59,True,left,0.25008,0.2691,1.2432,0.9741,2.0934,3.1263,1.0329,A,0.28
457,0.50017,1.2,1,0.28343,0.29177,0.86696,457,2.39248,-0.096,-0.05002,0.45015,5,1D2U,2.0,True,0.409,54,False,right,0.0,0.1429,0.8762,0.7333,1.6011,2.3845,0.7833,A,0.28
458,0.50017,1.2,1,0.29177,0.28343,0.61688,458,2.16741,-0.056,-0.02501,0.47516,5,1D2U,1.0,False,0.433,54,False,left,-0.16672,0.1462,0.9048,0.7585,1.4631,2.0797,0.6166,A,0.28
459,0.50017,0.1,1,0.45849,0.63355,1.75893,459,4.04304,0.384,0.19173,0.6919,5,2D1U,1.0,True,0.392,59,True,left,0.25008,0.3212,1.2879,0.9667,2.7881,3.813,1.0249,A,0.275
460,0.50017,0.1,2,0.28343,0.43348,0.59187,460,2.2591,-0.096,-0.05002,0.45015,5,1D2U,2.0,False,0.4,55,True,right,0.0,1.386,2.1116,0.7256,0.1528,0.9281,0.7753,A,0.275
461,0.50017,0.1,1,0.33345,0.28343,0.66689,461,2.45917,0.344,0.17506,0.67523,5,2D1U,2.0,False,0.492,59,False,right,-0.16672,0.2029,1.1527,0.9498,1.7691,2.3775,0.6084,A,0.275
462,0.50017,1.2,2,0.60854,0.75025,1.2921,462,3.58454,-0.136,-0.06669,0.43348,5,1D2U,1.0,True,0.383,55,False,left,0.25008,2.5207,3.2373,0.7166,0.3377,1.3709,1.0332,A,0.28
463,0.50017,1.2,2,0.45015,0.75025,1.00034,463,3.39281,0.384,0.19173,0.6919,5,2D1U,2.0,True,0.391,60,True,right,0.0,1.9532,2.928,0.9748,0.3112,1.095,0.7837,A,0.28
464,0.50017,1.2,1,0.30844,0.40014,0.55019,464,2.19242,-0.136,-0.06669,0.43348,5,1D2U,1.0,False,0.391,55,False,left,-0.16672,0.1624,0.8792,0.7168,1.371,1.9875,0.6164,A,0.28
465,0.50017,0.1,1,0.6919,0.82528,1.54219,465,4.25144,0.384,0.19173,0.6919,5,2D1U,1.0,True,0.283,60,True,left,0.25008,0.5569,1.5236,0.9667,2.8063,3.8328,1.0266,A,0.275
466,0.50017,0.1,2,0.50851,0.42514,1.24209,466,3.35114,0.344,0.17506,0.67523,5,2D1U,2.0,True,0.401,61,True,right,0.0,2.2618,3.2118,0.95,0.3785,1.1537,0.7752,A,0.275
467,0.50017,0.1,2,0.42514,0.29177,0.47516,467,2.36747,0.344,0.17506,0.67523,5,2D1U,2.0,True,0.508,61,True,right,-0.16672,1.3247,2.2749,0.9502,0.3745,0.9831,0.6085,A,0.275
468,0.50017,1.2,2,0.52518,0.40847,1.3838,468,3.46784,0.304,0.15005,0.65022,5,2D1U,1.0,False,0.408,61,False,left,0.25008,2.5328,3.4661,0.9333,0.2572,1.291,1.0338,A,0.28
469,0.50017,1.2,1,0.54185,0.59187,0.95866,469,3.00102,-0.176,-0.0917,0.40847,5,1D2U,1.0,False,0.416,55,False,left,0.0,0.3962,1.0878,0.6915,1.9045,2.6879,0.7835,A,0.28
470,0.50017,1.2,1,0.28343,0.24175,0.40847,470,2.10905,0.344,0.17506,0.67523,5,2D1U,1.0,True,0.433,62,True,left,-0.16672,0.14,1.0984,0.9585,1.4482,2.0639,0.6157,A,0.28
471,0.50017,0.1,1,0.66689,0.49183,0.88363,471,2.93432,-0.216,-0.10837,0.3918,5,1D2U,2.0,True,0.308,55,False,right,0.25008,0.5366,1.2033,0.6667,1.8284,2.8531,1.0247,A,0.275
472,0.50017,0.1,2,0.81694,0.50017,1.41715,472,3.62623,-0.216,-0.10837,0.3918,5,1D2U,1.0,True,0.516,55,False,left,0.0,2.743,3.4097,0.6667,0.6839,1.4596,0.7757,A,0.275
473,0.50017,0.1,1,0.38346,0.42514,0.6919,473,2.6759,0.344,0.17506,0.67523,5,2D1U,1.0,True,0.441,62,True,left,-0.16672,0.2508,1.2016,0.9508,1.8435,2.4514,0.608,A,0.275
474,0.50017,1.2,1,0.77526,0.51684,1.14205,474,3.34279,-0.176,-0.0917,0.40847,5,1D2U,1.0,False,0.483,56,True,left,0.25008,0.6299,1.3212,0.6914,2.1963,3.2294,1.0331,A,0.28
475,0.50017,1.2,2,0.4835,0.6919,1.07536,475,3.40115,0.304,0.15005,0.65022,5,2D1U,2.0,True,0.384,63,True,right,0.0,2.0607,2.994,0.9334,0.3437,1.1273,0.7836,A,0.28
476,0.50017,1.2,1,0.45015,0.25008,0.51684,476,2.10904,-0.216,-0.10837,0.3918,5,1D2U,1.0,False,0.484,57,True,left,-0.16672,0.3113,0.9867,0.6754,1.445,2.0614,0.6164,A,0.28
477,0.50017,0.1,2,0.50017,0.67523,1.27543,477,3.32613,-0.256,-0.12504,0.37513,5,1D2U,1.0,True,1.459,57,False,left,0.25008,2.4053,3.0556,0.6503,0.2389,1.264,1.025,A,0.275
478,0.50017,0.1,1,0.36679,0.44182,0.84195,478,2.80095,0.304,0.15005,0.65022,5,2D1U,1.0,True,0.467,63,True,left,0.0,0.2289,1.1543,0.9253,1.8622,2.6371,0.7749,A,0.275
479,0.50017,0.1,1,0.30844,0.42514,0.72525,479,2.33413,-0.256,-0.12504,0.37513,5,1D2U,2.0,True,0.375,57,False,right,-0.16672,0.176,0.8257,0.6496,1.5014,2.1096,0.6081,A,0.275
480,0.50017,1.2,2,0.4835,0.76693,1.5672,480,3.95135,0.264,0.13338,0.63355,5,2D1U,2.0,True,0.784,63,False,right,0.25008,2.674,3.59,0.916,0.2152,1.2487,1.0334,A,0.28
481,0.50017,1.2,2,0.33345,0.40847,0.51684,481,2.39248,0.264,0.13338,0.63355,5,2D1U,1.0,False,0.4,63,False,left,0.0,1.3527,2.2693,0.9166,0.1948,0.9775,0.7827,A,0.28
482,0.50017,1.2,1,0.3918,0.28343,0.8753,482,2.4425,-0.216,-0.10837,0.3918,5,1D2U,2.0,True,0.434,58,True,right,-0.16672,0.2496,0.9244,0.6748,1.741,2.3576,0.6166,A,0.28
483,0.50017,0.1,1,0.61688,0.73358,1.70057,483,4.20142,0.304,0.15005,0.65022,5,2D1U,2.0,False,0.376,64,True,right,0.25008,0.4807,1.4056,0.9249,2.8475,3.8724,1.0249,A,0.275
484,0.50017,0.1,2,0.32511,0.38346,0.70024,484,2.30078,-0.216,-0.10837,0.3918,5,1D2U,1.0,True,0.558,58,True,left,0.0,1.5322,2.1992,0.6671,0.1907,0.9653,0.7746,A,0.275
485,0.50017,0.1,1,0.25008,0.26676,0.70024,485,2.12572,-0.176,-0.0917,0.40847,5,1D2U,2.0,True,0.433,58,False,right,-0.16672,0.1131,0.7964,0.6832,1.4459,2.0547,0.6088,A,0.275
486,0.50017,1.2,1,0.46682,0.55852,1.64222,486,3.5762,-0.176,-0.0917,0.40847,5,1D2U,1.0,False,0.433,58,False,left,0.25008,0.323,1.0149,0.6919,2.389,3.423,1.034,A,0.28
487,0.50017,1.2,2,0.34178,0.28343,0.83362,487,2.63423,0.344,0.17506,0.67523,5,2D1U,2.0,True,0.375,64,False,right,0.0,1.6739,2.6325,0.9586,0.199,0.9825,0.7835,A,0.28
488,0.50017,1.2,2,0.38346,0.31677,0.88363,488,2.75926,0.344,0.17506,0.67523,5,2D1U,2.0,True,0.217,64,False,right,-0.16672,1.6816,2.64,0.9584,0.3235,0.9401,0.6166,A,0.28
489,0.50017,0.1,1,0.46682,0.40847,1.11704,489,2.8843,-0.216,-0.10837,0.3918,5,1D2U,2.0,True,0.375,59,True,right,0.25008,0.332,0.999,0.667,1.8572,2.8817,1.0245,A,0.275
490,0.50017,0.1,1,0.65022,0.55019,0.98367,490,3.07605,-0.216,-0.10837,0.3918,5,1D2U,1.0,False,0.367,59,True,left,0.0,0.5124,1.179,0.6666,2.0291,2.8041,0.775,A,0.275
491,0.50017,0.1,2,0.33345,0.35845,0.84195,491,2.40915,-0.256,-0.12504,0.37513,5,1D2U,1.0,True,0.509,59,False,left,-0.16672,1.6008,2.2507,0.6499,0.2845,0.8928,0.6083,A,0.275
492,0.50017,1.2,2,0.75025,0.85862,1.60888,492,4.36814,0.304,0.15005,0.65022,5,2D1U,2.0,True,0.325,65,True,right,0.25008,2.9795,3.9126,0.933,0.4795,1.5133,1.0338,A,0.28
493,0.50017,1.2,1,0.57519,0.52518,1.0837,493,3.33446,0.304,0.15005,0.65022,5,2D1U,1.0,True,0.316,65,True,left,0.0,0.4338,1.368,0.9342,2.3095,3.0928,0.7833,A,0.28
494,0.50017,1.2,2,0.34178,0.40014,0.55019,494,2.42583,0.264,0.13338,0.63355,5,2D1U,2.0,True,0.384,65,False,right,-0.16672,1.3069,2.2233,0.9165,0.2817,0.8984,0.6167,A,0.28
495,0.50017,0.1,2,0.76693,0.70857,1.3838,495,3.7346,-0.256,-0.12504,0.37513,5,1D2U,1.0,True,0.35,59,False,left,0.25008,2.7816,3.4324,0.6508,0.507,1.5326,1.0256,A,0.275
496,0.50017,0.1,2,0.43348,0.31677,0.81694,496,2.45916,-0.216,-0.10837,0.3918,5,1D2U,2.0,False,0.467,60,True,right,0.0,1.7599,2.426,0.6661,0.3018,1.0762,0.7744,A,0.275
497,0.50017,0.1,1,0.36679,0.22508,0.45849,497,1.92566,-0.256,-0.12504,0.37513,5,1D2U,2.0,True,0.442,61,True,right,-0.16672,0.2306,0.8802,0.6497,1.2885,1.8969,0.6084,A,0.275
498,0.50017,1.2,1,0.40847,0.57519,1.07536,498,3.19274,0.264,0.13338,0.63355,5,2D1U,1.0,True,0.392,65,False,left,0.25008,0.2646,1.1807,0.9161,1.9887,3.0223,1.0336,A,0.28
499,0.50017,1.2,2,0.50017,0.51684,1.72558,499,3.61789,-0.256,-0.12504,0.37513,5,1D2U,1.0,True,0.467,61,True,left,0.0,2.7231,3.3809,0.6578,0.3566,1.1394,0.7827,A,0.28
500,0.50017,1.2,2,0.43348,0.34178,0.7836,500,2.66757,0.224,0.10837,0.60854,5,2D1U,2.0,True,0.433,65,False,right,-0.16672,1.6341,2.5256,0.8915,0.3752,0.9917,0.6166,A,0.28
501,0.50017,0.1,2,0.7836,0.51684,1.0837,501,3.49285,0.224,0.10837,0.60854,5,2D1U,1.0,False,0.699,65,False,left,0.25008,2.4943,3.3774,0.8832,0.5192,1.5443,1.0252,A,0.275
502,0.50017,0.1,1,0.40014,0.42514,0.61688,502,2.33413,-0.216,-0.10837,0.3918,5,1D2U,2.0,True,0.114,62,True,right,0.0,0.2635,0.9311,0.6677,1.414,2.1886,0.7746,A,0.275
503,0.50017,0.1,2,0.33345,0.44182,0.46682,503,2.37581,0.264,0.13338,0.63355,5,2D1U,2.0,True,0.417,66,True,right,-0.16672,1.2259,2.1342,0.9083,0.2845,0.8931,0.6086,A,0.275
504,0.50017,1.2,2,0.41681,0.80027,1.03368,504,3.14273,-0.216,-0.10837,0.3918,5,1D2U,1.0,True,0.366,62,True,left,0.25008,2.0726,2.748,0.6754,0.1478,1.1819,1.0341,A,0.28
505,0.50017,1.2,1,0.85029,0.45849,1.74226,505,4.18476,0.264,0.13338,0.63355,5,2D1U,2.0,False,0.258,66,True,right,0.0,0.706,1.6229,0.9169,3.2227,4.0072,0.7845,A,0.28
506,0.50017,1.2,1,0.30844,0.35845,0.77526,506,2.59254,0.304,0.15005,0.65022,5,2D1U,1.0,True,0.525,66,False,left,-0.16672,0.1617,1.0947,0.9331,1.8114,2.4282,0.6168,A,0.28
507,0.50017,0.1,2,0.4835,0.50017,0.98367,507,2.87598,-0.176,-0.0917,0.40847,5,1D2U,1.0,True,0.458,62,False,left,0.25008,2.0972,2.7806,0.6834,0.2222,1.2473,1.0251,A,0.275
508,0.50017,0.1,1,0.27509,0.31677,0.89197,508,2.63422,0.304,0.15005,0.65022,5,2D1U,1.0,True,0.459,66,False,left,0.0,0.1394,1.0645,0.9251,1.8232,2.5977,0.7744,A,0.275
509,0.50017,0.1,1,0.45015,0.35012,0.76693,509,2.70092,0.264,0.13338,0.63355,5,2D1U,1.0,True,0.525,67,True,left,-0.16672,0.3177,1.2263,0.9085,1.9422,2.5511,0.6088,A,0.275
510,0.50017,1.2,2,0.41681,0.42514,1.65056,510,3.40115,-0.176,-0.0917,0.40847,5,1D2U,1.0,True,0.392,62,False,left,0.25008,2.6869,3.3785,0.6916,0.1458,1.1785,1.0327,A,0.28
511,0.50017,1.2,2,0.28343,0.37513,0.73358,511,2.32579,-0.136,-0.06669,0.43348,5,1D2U,2.0,False,0.442,62,False,right,0.0,1.514,2.2308,0.7169,0.1384,0.9221,0.7837,A,0.28
512,0.50017,1.2,1,0.42514,0.29177,0.54185,512,2.39248,0.264,0.13338,0.63355,5,2D1U,1.0,True,0.392,67,True,left,-0.16672,0.2802,1.1969,0.9167,1.6798,2.2968,0.617,A,0.28
513,0.50017,0.1,2,0.71691,0.88363,1.7756,513,4.28478,-0.176,-0.0917,0.40847,5,1D2U,2.0,False,0.375,63,True,right,0.25008,3.1271,3.8105,0.6834,0.4604,1.4854,1.0249,A,0.275
514,0.50017,0.1,1,0.40014,0.31677,0.80861,514,2.41749,-0.216,-0.10837,0.3918,5,1D2U,2.0,True,0.458,63,False,right,0.0,0.2651,0.9314,0.6663,1.6062,2.3811,0.7749,A,0.275
515,0.50017,0.1,2,0.3918,0.22508,0.63355,515,2.35914,0.224,0.10837,0.60854,5,2D1U,2.0,True,0.416,67,False,right,-0.16672,1.4489,2.3318,0.8829,0.3403,0.9486,0.6083,A,0.275
516,0.50017,1.2,1,0.66689,0.66689,0.80861,516,3.03436,-0.216,-0.10837,0.3918,5,1D2U,2.0,True,0.358,63,False,right,0.25008,0.527,1.2011,0.6742,1.7433,2.7761,1.0328,A,0.28
517,0.50017,1.2,2,0.60854,0.52518,1.14205,517,3.38448,0.224,0.10837,0.60854,5,2D1U,2.0,True,0.35,67,False,right,0.0,2.2455,3.1373,0.8917,0.4629,1.2459,0.783,A,0.28
518,0.50017,1.2,2,0.36679,0.35012,0.40847,518,2.21742,0.184,0.0917,0.59187,5,2D1U,2.0,True,0.408,67,False,right,-0.16672,1.1926,2.0678,0.8753,0.3097,0.9263,0.6166,A,0.28
519,0.50017,0.1,2,0.50017,0.80027,0.90864,519,3.30112,0.184,0.0917,0.59187,5,2D1U,2.0,True,0.408,67,False,right,0.25008,2.0422,2.9097,0.8675,0.243,1.2678,1.0248,A,0.275
520,0.50017,0.1,1,0.42514,0.36679,0.84195,520,2.54252,-0.176,-0.0917,0.40847,5,1D2U,1.0,False,0.408,64,True,left,0.0,0.29,0.9731,0.6831,1.6813,2.4564,0.7751,A,0.275
521,0.50017,0.1,1,0.26676,0.42514,0.65856,521,2.42582,0.144,0.07503,0.57519,5,2D1U,2.0,False,0.342,67,False,right,-0.16672,0.13,0.9803,0.8502,1.5886,2.1968,0.6082,A,0.275
522,0.50017,1.2,1,0.89197,0.41681,1.57553,522,3.77628,-0.216,-0.10837,0.3918,5,1D2U,2.0,True,0.35,65,True,right,0.25008,0.748,1.4237,0.6757,2.7315,3.7652,1.0337,A,0.28
523,0.50017,1.2,2,0.41681,0.3001,0.63355,523,2.24243,-0.216,-0.10837,0.3918,5,1D2U,1.0,True,0.425,65,True,left,0.0,1.5462,2.2214,0.6752,0.2713,1.0546,0.7833,A,0.28
524,0.50017,1.2,2,0.27509,0.2084,0.56686,524,1.95899,-0.176,-0.0917,0.40847,5,1D2U,1.0,True,0.442,66,True,left,-0.16672,1.2565,1.9489,0.6924,0.2157,0.8322,0.6165,A,0.28
525,0.50017,0.1,2,0.60854,0.49183,1.57553,525,3.58454,-0.176,-0.0917,0.40847,5,1D2U,2.0,False,0.383,66,True,right,0.25008,2.8152,3.4986,0.6834,0.3481,1.3736,1.0255,A,0.275
526,0.50017,0.1,1,0.81694,0.46682,1.28377,526,3.65957,0.184,0.0917,0.59187,5,2D1U,2.0,False,0.985,68,True,right,0.0,0.6791,1.5457,0.8666,2.696,3.4713,0.7754,A,0.275
527,0.50017,0.1,2,0.24175,0.40014,0.64188,527,2.39248,0.224,0.10837,0.60854,5,2D1U,2.0,True,0.367,68,False,right,-0.16672,1.3056,2.1897,0.884,0.1897,0.798,0.6083,A,0.275
528,0.50017,1.2,2,0.70024,0.67523,1.22541,528,3.70959,0.224,0.10837,0.60854,5,2D1U,2.0,True,0.308,68,False,right,0.25008,2.5502,3.4415,0.8913,0.4335,1.4669,1.0333,A,0.28
529,0.50017,1.2,2,0.44182,0.29177,0.52518,529,2.15074,-0.216,-0.10837,0.3918,5,1D2U,1.0,True,0.392,67,True,left,0.0,1.4689,2.144,0.6751,0.302,1.0856,0.7836,A,0.28
530,0.50017,1.2,1,0.25008,0.43348,0.45849,530,2.23409,0.184,0.0917,0.59187,5,2D1U,1.0,True,0.384,69,True,left,-0.16672,0.1053,0.9805,0.8752,1.3806,1.9971,0.6165,A,0.28
531,0.50017,0.1,1,0.62521,0.75859,1.26709,531,3.54286,-0.216,-0.10837,0.3918,5,1D2U,2.0,True,0.342,67,True,right,0.25008,0.4927,1.1592,0.6665,2.1678,3.1926,1.0248,A,0.275
532,0.50017,0.1,2,0.40014,0.37513,0.65856,532,2.52587,0.184,0.0917,0.59187,5,2D1U,1.0,False,0.309,69,True,left,0.0,1.5661,2.4328,0.8668,0.2661,1.0411,0.775,A,0.275
533,0.50017,0.1,2,0.21674,0.38346,0.68356,533,2.1924,-0.176,-0.0917,0.40847,5,1D2U,1.0,True,0.359,68,True,left,-0.16672,1.3217,2.0051,0.6835,0.1634,0.7718,0.6084,A,0.275
534,0.50017,1.2,1,0.58353,0.52518,1.55886,534,3.57621,-0.176,-0.0917,0.40847,5,1D2U,2.0,True,0.449,68,True,right,0.25008,0.4389,1.1306,0.6917,2.4218,3.4555,1.0337,A,0.28
535,0.50017,1.2,1,0.3918,0.37513,0.76693,535,2.64257,0.224,0.10837,0.60854,5,2D1U,2.0,False,0.483,70,True,right,0.0,0.2457,1.1373,0.8916,1.7622,2.5457,0.7835,A,0.28
536,0.50017,1.2,2,0.21674,0.40014,0.80027,536,2.55087,0.264,0.13338,0.63355,5,2D1U,2.0,True,0.425,70,False,right,-0.16672,1.4328,2.3493,0.9165,0.1577,0.7743,0.6167,A,0.28
537,0.50017,0.1,1,0.75859,0.42514,1.23375,537,3.35113,-0.136,-0.06669,0.43348,5,1D2U,2.0,True,0.432,68,False,right,0.25008,0.6259,1.3345,0.7086,2.3095,3.3346,1.0251,A,0.275
538,0.50017,0.1,2,0.31677,0.42514,0.71691,538,2.39247,-0.136,-0.06669,0.43348,5,1D2U,2.0,False,0.417,68,False,right,0.0,1.5386,2.2473,0.7087,0.1799,0.9553,0.7755,A,0.275
539,0.50017,0.1,1,0.40847,0.44182,0.80861,539,2.79262,0.264,0.13338,0.63355,5,2D1U,1.0,True,0.342,70,False,left,-0.16672,0.2737,1.1816,0.9079,1.9403,2.5481,0.6078,A,0.275
540,0.50017,1.2,2,0.7836,0.89197,1.20874,540,3.79295,-0.176,-0.0917,0.40847,5,1D2U,1.0,True,0.416,69,True,left,0.25008,2.6127,3.304,0.6914,0.5127,1.5455,1.0328,A,0.28
541,0.50017,1.2,1,0.41681,0.85862,1.70891,541,4.09305,0.224,0.10837,0.60854,5,2D1U,2.0,False,0.442,71,True,right,0.0,0.2722,1.164,0.8918,2.7307,3.5144,0.7837,A,0.28
542,0.50017,1.2,2,0.2084,0.34178,0.40014,542,1.85896,-0.176,-0.0917,0.40847,5,1D2U,1.0,True,0.409,69,True,left,-0.16672,1.0258,1.718,0.6922,0.151,0.7674,0.6165,A,0.28
543,0.50017,0.1,1,0.80861,0.79193,1.19207,543,3.92633,0.264,0.13338,0.63355,5,2D1U,2.0,False,0.425,72,True,right,0.25008,0.6706,1.5794,0.9089,2.5127,3.5378,1.0251,A,0.275
544,0.50017,0.1,2,0.28343,0.40014,0.85029,544,2.68425,0.304,0.15005,0.65022,5,2D1U,2.0,True,0.408,72,False,right,0.0,1.6415,2.5663,0.9248,0.1491,0.925,0.7759,A,0.275
545,0.50017,0.1,2,0.35012,0.23341,0.84195,545,2.57587,0.304,0.15005,0.65022,5,2D1U,2.0,True,0.442,72,False,right,-0.16672,1.6201,2.5451,0.925,0.3035,0.9117,0.6081,A,0.275
546,0.50017,1.2,1,0.52518,0.45849,1.24209,546,3.35948,0.264,0.13338,0.63355,5,2D1U,1.0,True,0.376,73,True,left,0.25008,0.3845,1.3012,0.9167,2.2759,3.3096,1.0336,A,0.28
547,0.50017,1.2,2,0.38346,0.40014,0.85029,547,2.56754,-0.136,-0.06669,0.43348,5,1D2U,1.0,True,0.325,70,True,left,0.0,1.7316,2.4484,0.7167,0.2401,1.0235,0.7833,A,0.28
548,0.50017,1.2,2,0.41681,0.40847,0.83362,548,2.79262,0.264,0.13338,0.63355,5,2D1U,2.0,True,0.449,73,True,right,-0.16672,1.6641,2.5806,0.9165,0.3551,0.9724,0.6174,A,0.28
549,0.50017,0.1,1,0.4835,0.84195,1.39214,549,3.8263,0.224,0.10837,0.60854,5,2D1U,1.0,True,0.391,73,False,left,0.25008,0.3498,1.2323,0.8825,2.3663,3.3911,1.0249,A,0.275
550,0.50017,0.1,2,0.80027,0.53351,0.82528,550,3.09271,-0.136,-0.06669,0.43348,5,1D2U,1.0,True,0.375,70,True,left,0.0,2.1365,2.8443,0.7077,0.6689,1.4444,0.7756,A,0.275
551,0.50017,0.1,1,0.27509,0.33345,0.44182,551,2.00068,-0.096,-0.05002,0.45015,5,1D2U,2.0,True,0.449,70,False,right,-0.16672,0.1371,0.8621,0.725,1.2536,1.8623,0.6087,A,0.275
552,0.50017,1.2,1,0.50017,0.77526,0.85862,552,3.08437,-0.096,-0.05002,0.45015,5,1D2U,2.0,True,0.5,70,False,right,0.25008,0.3604,1.0938,0.7334,1.6853,2.7189,1.0336,A,0.28
553,0.50017,1.2,2,0.44182,0.51684,1.49217,553,3.55954,0.224,0.10837,0.60854,5,2D1U,1.0,False,0.525,73,False,left,0.0,2.4324,3.3236,0.8913,0.298,1.0821,0.784,A,0.28
554,0.50017,1.2,1,0.25842,0.32511,0.83362,554,2.39248,-0.056,-0.02501,0.47516,5,1D2U,2.0,True,0.593,70,False,right,-0.16672,0.1198,0.8785,0.7586,1.6524,2.2696,0.6173,A,0.28
555,0.50017,0.1,1,0.65856,0.7836,1.78394,555,4.20143,-0.056,-0.02501,0.47516,5,1D2U,2.0,True,0.392,70,False,right,0.25008,0.5226,1.2726,0.7499,2.7971,3.8223,1.0252,A,0.275
556,0.50017,0.1,1,0.40014,0.40847,0.65856,556,2.60089,0.264,0.13338,0.63355,5,2D1U,1.0,True,0.384,74,True,left,0.0,0.2652,1.1734,0.9083,1.6985,2.4733,0.7748,A,0.275
557,0.50017,0.1,2,0.34178,0.42514,0.74192,557,2.64256,0.264,0.13338,0.63355,5,2D1U,2.0,True,0.383,74,True,right,-0.16672,1.5093,2.4175,0.9082,0.2926,0.901,0.6084,A,0.275
558,0.50017,1.2,1,0.50017,0.70024,1.03368,558,3.22609,-0.016,-0.00834,0.49183,5,1D2U,1.0,False,0.25,70,False,left,0.25008,0.3561,1.1312,0.7751,1.8976,2.931,1.0334,A,0.28
559,0.50017,1.2,2,0.40014,0.41681,0.76693,559,2.69259,0.224,0.10837,0.60854,5,2D1U,2.0,True,0.383,75,True,right,0.0,1.6675,2.5591,0.8916,0.2589,1.0422,0.7833,A,0.28
560,0.50017,1.2,1,0.34178,0.26676,0.71691,560,2.30078,-0.056,-0.02501,0.47516,5,1D2U,2.0,True,0.433,71,True,right,-0.16672,0.1989,0.9569,0.7581,1.6155,2.232,0.6166,A,0.28
561,0.50017,0.1,1,0.60854,0.74192,1.5922,561,4.05137,0.224,0.10837,0.60854,5,2D1U,1.0,True,0.384,75,True,left,0.25008,0.4718,1.3547,0.8829,2.6884,3.7137,1.0252,A,0.275
562,0.50017,0.1,2,0.28343,0.37513,0.50017,562,2.13406,-0.056,-0.02501,0.47516,5,1D2U,1.0,True,0.376,71,True,left,0.0,1.2938,2.0442,0.7503,0.1521,0.927,0.7749,A,0.275
563,0.50017,0.1,1,0.32511,0.27509,0.65856,563,2.3508,0.184,0.0917,0.59187,5,2D1U,2.0,False,0.434,75,False,right,-0.16672,0.1919,1.0582,0.8663,1.6665,2.2742,0.6077,A,0.275
564,0.50017,1.2,2,0.40014,0.66689,1.41715,564,3.47618,-0.016,-0.00834,0.49183,5,1D2U,1.0,True,0.35,72,True,left,0.25008,2.438,3.2127,0.7747,0.1299,1.1629,1.033,A,0.28
565,0.50017,1.2,1,0.40014,0.45015,0.41681,565,2.2591,-0.016,-0.00834,0.49183,5,1D2U,2.0,True,0.516,72,True,right,0.0,0.2595,1.0344,0.775,1.3091,2.0929,0.7838,A,0.28
566,0.50017,1.2,1,0.35845,0.3918,0.65856,566,2.51752,0.224,0.10837,0.60854,5,2D1U,1.0,True,0.459,76,True,left,-0.16672,0.2149,1.1069,0.8919,1.7069,2.3236,0.6167,A,0.28
567,0.50017,0.1,1,0.7836,0.49183,1.4755,567,3.85964,0.224,0.10837,0.60854,5,2D1U,2.0,False,0.425,76,True,right,0.25008,0.6484,1.5321,0.8837,2.749,3.7739,1.025,A,0.275
568,0.50017,0.1,1,0.64188,0.41681,1.35046,568,3.41783,0.024,0.00834,0.50851,5,1D2U,2.0,False,0.608,72,False,right,0.0,0.5113,1.2946,0.7833,2.511,3.2867,0.7757,A,0.275
569,0.50017,0.1,2,0.23341,0.22508,0.68356,569,2.27577,0.264,0.13338,0.63355,5,2D1U,1.0,False,0.425,76,False,left,-0.16672,1.3376,2.2454,0.9078,0.1791,0.7869,0.6077,A,0.275
570,0.50017,1.2,1,0.79193,0.56686,1.06703,570,3.4345,0.024,0.00834,0.50851,5,1D2U,2.0,False,0.359,72,False,right,0.25008,0.6458,1.4373,0.7915,2.2374,3.2707,1.0333,A,0.28
571,0.50017,1.2,2,0.8753,0.50017,0.86696,571,3.39282,0.304,0.15005,0.65022,5,2D1U,2.0,True,0.625,76,False,right,0.0,2.2427,3.1761,0.9334,0.7338,1.5173,0.7835,A,0.28
572,0.50017,1.2,2,0.25842,0.21674,0.60854,572,2.11738,0.064,0.03334,0.53351,5,1D2U,1.0,False,0.45,72,False,left,-0.16672,1.2801,2.0974,0.8173,0.1975,0.814,0.6165,A,0.28
573,0.50017,0.1,1,0.85029,0.64188,1.16706,573,3.80962,0.304,0.15005,0.65022,5,2D1U,1.0,True,0.424,76,False,left,0.25008,0.7153,1.6399,0.9246,2.5485,3.5731,1.0246,A,0.275
574,0.50017,0.1,2,0.41681,0.40847,0.43348,574,2.39248,0.264,0.13338,0.63355,5,2D1U,1.0,False,0.467,77,True,left,0.0,1.3539,2.2621,0.9082,0.2789,1.0539,0.775,A,0.275
575,0.50017,0.1,2,0.44182,0.45015,0.49183,575,2.41748,0.064,0.03334,0.53351,5,1D2U,1.0,False,0.45,72,False,left,-0.16672,1.3601,2.1688,0.8086,0.3941,1.0027,0.6086,A,0.275
576,0.50017,1.2,1,0.45849,0.56686,1.80061,576,3.97635,0.304,0.15005,0.65022,5,2D1U,2.0,False,0.367,78,True,right,0.25008,0.3152,1.248,0.9328,2.7819,3.8155,1.0336,A,0.28
577,0.50017,1.2,1,0.28343,0.40847,0.65856,577,2.40082,0.104,0.05002,0.55019,5,1D2U,2.0,False,0.409,72,False,right,0.0,0.137,0.971,0.834,1.4871,2.2704,0.7832,A,0.28
578,0.50017,1.2,1,0.43348,0.35845,0.47516,578,2.31745,0.104,0.05002,0.55019,5,1D2U,1.0,True,0.458,72,False,left,-0.16672,0.2954,1.1286,0.8333,1.5453,2.1619,0.6165,A,0.28
579,0.50017,0.1,2,0.6002,0.67523,0.91698,579,3.22609,0.064,0.03334,0.53351,5,1D2U,2.0,True,0.425,73,True,right,0.25008,2.1521,2.9608,0.8087,0.3443,1.3695,1.0252,A,0.275
580,0.50017,0.1,1,0.28343,0.32511,0.74192,580,2.52586,0.344,0.17506,0.67523,5,2D1U,2.0,False,0.416,78,False,right,0.0,0.1493,1.099,0.9497,1.7074,2.4828,0.7754,A,0.275
581,0.50017,0.1,2,0.28343,0.44182,0.53351,581,2.26744,0.024,0.00834,0.50851,5,1D2U,2.0,True,0.442,73,False,right,-0.16672,1.2403,2.0238,0.7835,0.232,0.8406,0.6086,A,0.275
582,0.50017,1.2,2,0.80861,0.71691,1.63389,582,4.35148,0.384,0.19173,0.6919,5,2D1U,2.0,True,0.384,78,False,right,0.25008,3.0632,4.0375,0.9743,0.5381,1.5713,1.0332,A,0.28
583,0.50017,1.2,2,0.36679,0.30844,0.55852,583,2.22575,-0.016,-0.00834,0.49183,5,1D2U,1.0,True,0.392,73,False,left,0.0,1.4259,2.2016,0.7757,0.2266,1.0098,0.7832,A,0.28
