,Unnamed: 0,standardDur,audNoise,order,preDur,postDur,isiDur,trial_num,totalDur,delta_dur_percents,deltaDurS,testDurS,intensities,current_stair,responses,is_correct,response_rts,stair_num_reversal,stair_is_reversal,response_keys,conflictDur,recordedOnsetVisualTest,recordedOffsetVisualTest,recordedDurVisualTest,recordedOnsetVisualStandard,recordedOffsetVisualStandard,recordedDurVisualStandard,modalityPostCue
0,0,0.49814,1.2,1,0.26567,0.41512,0.78872,0,2.01746,-0.9,-0.44833,0.04981,5,1D3U,2.0,True,0.523,0,False,right,0.0,0.265,0.3153,0.0502,1.1066,1.607,0.5004,V
1,1,0.49814,0.1,1,0.38191,0.28228,0.48154,1,1.69368,-0.9,-0.44833,0.04981,5,1D2U,2.0,True,3.083,0,False,right,0.0,0.3859,0.4365,0.0506,0.9188,1.4195,0.5007,V
2,2,0.49814,1.2,2,0.23247,0.19926,0.83854,2,1.81822,-0.9,-0.44833,0.04981,5,1D2U,1.0,True,0.516,0,False,left,0.0,1.5734,1.624,0.0506,0.2322,0.7324,0.5002,V
3,3,0.49814,0.1,1,0.39851,0.31549,0.81363,3,2.97224,0.9,0.44833,0.94647,5,lapse_rate,1.0,True,0.375,0,False,left,0.0,0.402,1.3518,0.9498,2.1683,2.6686,0.5003,A
4,4,0.49814,0.1,1,0.27398,0.357,0.48154,4,1.66047,-0.9,-0.44833,0.04981,5,2D1U,2.0,True,1.213,0,False,right,0.0,0.2783,0.3282,0.0499,0.8121,1.3119,0.4997,A
5,5,0.49814,1.2,1,0.20756,0.33209,0.83854,5,1.92614,-0.9,-0.44833,0.04981,5,3D1U,2.0,True,1.102,0,False,right,0.0,0.2064,0.2565,0.0502,1.0976,1.5985,0.5009,V
6,6,0.49814,0.1,1,0.44833,0.19926,0.73061,6,1.92615,-0.9,-0.44833,0.04981,5,1D3U,2.0,True,0.779,0,False,right,0.0,0.4524,0.5034,0.051,1.2366,1.7355,0.4989,A
7,7,0.49814,1.2,2,0.39021,0.31549,0.43172,7,1.68537,-0.9,-0.44833,0.04981,5,1D3U,2.0,False,1.809,0,False,right,0.0,1.3262,1.3761,0.05,0.3933,0.8925,0.4993,V
8,8,0.49814,0.1,1,0.31549,0.21586,0.75551,8,2.73147,0.9,0.44833,0.94647,5,lapse_rate,1.0,True,0.367,0,False,left,0.0,0.3166,1.2665,0.9499,2.025,2.5246,0.4996,V
9,9,0.49814,0.1,1,0.21586,0.38191,0.68909,9,1.91784,-0.74,-0.37361,0.13284,5,3D1U,2.0,True,0.405,0,False,right,0.0,0.213,0.347,0.1339,1.0385,1.5387,0.5001,V
10,10,0.49814,1.2,2,0.20756,0.44002,0.46493,10,1.74349,-0.74,-0.37361,0.13284,5,1D2U,2.0,False,1.689,0,False,right,0.0,1.1753,1.3079,0.1326,0.2089,0.7079,0.499,A
11,11,0.49814,0.1,1,0.24077,0.37361,0.64758,11,1.89294,-0.74,-0.37361,0.13284,5,2D1U,2.0,True,0.488,0,False,right,0.0,0.2385,0.3723,0.1338,1.0214,1.522,0.5006,V
12,12,0.49814,1.2,2,0.26567,0.38191,0.51475,12,1.71028,-0.9,-0.44833,0.04981,5,1D3U,2.0,False,1.95,0,False,right,0.0,1.2871,1.3369,0.0498,0.2702,0.7701,0.4999,V
13,13,0.49814,0.1,1,0.29058,0.29058,0.56456,13,1.85142,-0.58,-0.29058,0.20756,5,3D1U,2.0,True,0.414,0,False,right,0.0,0.2909,0.4993,0.2083,1.0654,1.5664,0.501,V
14,14,0.49814,1.2,2,0.3487,0.28228,0.6974,14,1.91785,-0.82,-0.40681,0.09133,5,1D2U,1.0,True,0.604,1,True,left,0.0,1.5511,1.6432,0.0921,0.3513,0.8509,0.4996,A
15,15,0.49814,0.1,1,0.41512,0.22416,0.77212,15,2.1171,-0.58,-0.29058,0.20756,5,2D1U,2.0,True,0.495,0,False,right,0.0,0.4194,0.6281,0.2087,1.4029,1.9028,0.4998,V
16,16,0.49814,1.2,2,0.40681,0.43172,0.46493,16,2.74807,0.9,0.44833,0.94647,5,lapse_rate,2.0,True,0.384,0,False,right,0.0,1.3709,2.3215,0.9506,0.4044,0.9046,0.5002,V
17,17,0.49814,1.2,1,0.42342,0.23247,0.59777,17,2.04238,-0.42,-0.20756,0.29058,5,3D1U,1.0,False,0.496,0,False,left,0.0,0.4226,0.7145,0.2919,1.3143,1.8147,0.5005,A
18,18,0.49814,1.2,1,0.32379,0.43172,0.84684,18,3.04696,0.9,0.44833,0.94647,5,lapse_rate,1.0,True,0.793,0,False,left,0.0,0.3229,1.2718,0.9489,2.1226,2.6225,0.4999,A
19,19,0.49814,0.1,2,0.27398,0.29058,0.82193,19,1.97596,-0.82,-0.40681,0.09133,5,1D2U,1.0,True,0.431,1,True,left,0.0,1.5978,1.6898,0.092,0.2727,0.7731,0.5004,A
20,20,0.49814,1.2,1,0.39021,0.29888,0.65588,20,1.89292,-0.9,-0.44833,0.04981,5,1D3U,2.0,True,1.507,0,False,right,0.0,0.3883,0.4387,0.0504,1.0965,1.5968,0.5003,V
21,21,0.49814,0.1,1,0.31549,0.41512,0.75551,21,2.27484,-0.42,-0.20756,0.29058,5,2D1U,2.0,True,0.433,0,False,right,0.0,0.3141,0.606,0.2919,1.3638,1.8648,0.501,A
22,22,0.49814,1.2,1,0.38191,0.3404,0.41512,22,1.7435,-0.78,-0.39021,0.10793,5,1D2U,1.0,False,0.544,2,True,left,0.0,0.3824,0.4909,0.1085,0.9074,1.4068,0.4995,A
23,23,0.49814,1.2,1,0.39851,0.24907,0.68909,23,2.78128,0.9,0.44833,0.94647,5,lapse_rate,1.0,True,1.851,0,False,left,0.0,0.4039,1.3539,0.9501,2.0454,2.5455,0.5002,V
24,24,0.49814,0.1,1,0.43172,0.21586,0.58116,24,1.77669,-0.9,-0.44833,0.04981,5,1D3U,2.0,True,0.351,0,False,right,0.0,0.4308,0.4813,0.0505,1.064,1.5643,0.5003,A
25,25,0.49814,1.2,2,0.44833,0.38191,0.63928,25,2.25824,-0.42,-0.20756,0.29058,5,3D1U,1.0,True,0.415,0,False,left,0.0,1.5906,1.8818,0.2912,0.4486,0.9487,0.5001,A
26,26,0.49814,0.1,1,0.23247,0.39021,0.56456,26,2.05899,-0.26,-0.13284,0.37361,5,2D1U,2.0,True,0.811,0,False,right,0.0,0.236,0.6117,0.3757,1.178,1.6779,0.4999,A
27,27,0.49814,1.2,2,0.23247,0.31549,0.81363,27,2.30806,-0.1,-0.04981,0.44833,5,2D1U,2.0,False,0.575,0,False,right,0.0,1.548,1.9981,0.4501,0.2315,0.7313,0.4998,V
28,28,0.49814,0.1,2,0.25737,0.24077,0.49814,28,1.86803,-0.26,-0.13284,0.37361,5,3D1U,1.0,True,0.397,0,False,left,0.0,1.2598,1.6341,0.3743,0.2597,0.7591,0.4994,A
29,29,0.49814,1.2,1,0.33209,0.21586,0.59777,29,1.73519,-0.82,-0.40681,0.09133,5,1D2U,1.0,False,1.849,3,True,left,0.0,0.3297,0.421,0.0912,1.0207,1.5207,0.5,A
30,30,0.49814,1.2,1,0.24077,0.37361,0.44002,30,1.60235,-0.9,-0.44833,0.04981,5,lapse_rate,1.0,False,2.061,0,False,left,0.0,0.2404,0.2906,0.0502,0.732,1.2323,0.5003,A
31,31,0.49814,0.1,1,0.3404,0.29058,0.79702,31,1.97595,-0.9,-0.44833,0.04981,5,1D3U,2.0,True,0.372,0,False,right,0.0,0.3396,0.39,0.0504,1.1902,1.6901,0.4999,A
32,32,0.49814,1.2,1,0.40681,0.42342,0.80533,32,2.58203,-0.1,-0.04981,0.44833,5,2D1U,1.0,False,0.637,0,False,left,0.0,0.4066,0.856,0.4494,1.6644,2.1646,0.5002,A
33,33,0.49814,0.1,1,0.44833,0.38191,0.85514,33,2.24994,-0.86,-0.43172,0.06642,5,1D2U,2.0,True,0.301,3,False,right,0.0,0.4493,0.5159,0.0667,1.3741,1.8736,0.4995,A
34,34,0.49814,1.2,1,0.23247,0.23247,0.53135,34,1.94276,-0.1,-0.04981,0.44833,5,3D1U,2.0,True,0.725,0,False,right,0.0,0.2361,0.687,0.4509,1.2192,1.7196,0.5004,V
35,35,0.49814,1.2,2,0.40681,0.3487,0.63928,35,2.8394,0.9,0.44833,0.94647,5,lapse_rate,2.0,True,0.317,0,False,right,0.0,1.5487,2.498,0.9493,0.4071,0.9062,0.4991,V
36,36,0.49814,0.1,1,0.3487,0.20756,0.73061,36,1.87634,-0.82,-0.40681,0.09133,5,1D3U,2.0,True,0.421,1,True,right,0.0,0.3461,0.4379,0.0918,1.1712,1.6714,0.5002,A
37,37,0.49814,1.2,1,0.30719,0.40681,0.63928,37,1.91784,-0.86,-0.43172,0.06642,5,1D2U,1.0,False,1.451,3,False,left,0.0,0.3067,0.374,0.0673,1.0157,1.5156,0.5,V
38,38,0.49814,1.2,2,0.30719,0.21586,0.63928,38,1.71028,-0.9,-0.44833,0.04981,5,lapse_rate,1.0,True,0.909,0,False,left,0.0,1.4523,1.5031,0.0509,0.3106,0.8105,0.4999,V
39,39,0.49814,0.1,2,0.42342,0.31549,0.83023,39,2.15861,-0.82,-0.40681,0.09133,5,1D3U,1.0,True,0.365,1,True,left,0.0,1.7569,1.8487,0.0917,0.4238,0.9233,0.4995,V
40,40,0.49814,1.2,1,0.24077,0.44002,0.7057,40,2.29144,-0.18,-0.09133,0.40681,5,2D1U,1.0,False,1.467,1,True,left,0.0,0.2395,0.6472,0.4077,1.3551,1.8551,0.5,A
41,41,0.49814,0.1,1,0.29888,0.25737,0.83023,41,2.41597,0.06,0.03321,0.53135,5,3D1U,2.0,False,0.791,0,False,right,0.0,0.2978,0.8307,0.533,1.6639,2.1642,0.5002,V
42,42,0.49814,1.2,2,0.3404,0.44002,0.75551,42,2.64014,0.22,0.10793,0.60607,5,3D1U,2.0,True,1.55,0,False,right,0.0,1.5959,2.2046,0.6087,0.3377,0.8375,0.4998,V
43,43,0.49814,0.1,2,0.3404,0.19926,0.49814,43,1.94275,-0.18,-0.09133,0.40681,5,2D1U,1.0,True,0.433,1,True,left,0.0,1.3386,1.7469,0.4083,0.3395,0.8392,0.4997,A
44,44,0.49814,1.2,2,0.43172,0.19926,0.48984,44,1.71029,-0.82,-0.40681,0.09133,5,1D3U,2.0,False,1.649,1,True,right,0.0,1.4243,1.5169,0.0926,0.4335,0.9337,0.5002,A
45,45,0.49814,0.1,2,0.32379,0.37361,0.59777,45,1.84312,-0.9,-0.44833,0.04981,5,1D2U,1.0,True,0.38,3,False,left,0.0,1.4207,1.4708,0.0501,0.3199,0.8198,0.4998,V
46,46,0.49814,0.1,1,0.39021,0.37361,0.47323,46,2.68166,0.9,0.44833,0.94647,5,lapse_rate,1.0,True,0.406,0,False,left,0.0,0.3905,1.3409,0.9503,1.8154,2.3158,0.5004,A
47,47,0.49814,1.2,2,0.33209,0.31549,0.88835,47,2.10049,-0.86,-0.43172,0.06642,5,1D3U,1.0,True,1.318,2,True,left,0.0,1.7281,1.7944,0.0663,0.3357,0.8359,0.5002,V
48,48,0.49814,0.1,1,0.24907,0.29888,0.78872,48,2.78128,0.9,0.44833,0.94647,5,lapse_rate,1.0,True,0.383,0,False,left,0.0,0.2474,1.1977,0.9503,1.9898,2.4894,0.4996,V
49,49,0.49814,0.1,2,0.20756,0.29888,0.56456,49,2.17521,0.22,0.10793,0.60607,5,3D1U,2.0,True,0.325,0,False,right,0.0,1.2711,1.8798,0.6087,0.2044,0.7044,0.5,A
50,50,0.49814,1.2,2,0.42342,0.357,0.84684,50,2.17521,-0.9,-0.44833,0.04981,5,1D2U,1.0,True,0.478,3,False,left,0.0,1.7723,1.8225,0.0502,0.4226,0.9223,0.4996,A
51,51,0.49814,0.1,1,0.43172,0.42342,0.714,51,2.499,-0.14,-0.06642,0.43172,5,2D1U,2.0,True,0.633,2,True,right,0.0,0.4288,0.8622,0.4334,1.5787,2.0789,0.5002,A
52,52,0.49814,1.2,2,0.38191,0.33209,0.88835,52,2.16691,-0.86,-0.43172,0.06642,5,1D2U,1.0,True,1.084,4,True,left,0.0,1.7782,1.8449,0.0667,0.3866,0.8863,0.4997,V
53,53,0.49814,0.1,1,0.22416,0.20756,0.79702,53,2.33295,0.22,0.10793,0.60607,5,3D1U,1.0,True,0.499,0,False,left,0.0,0.224,0.8321,0.6081,1.6326,2.1323,0.4997,A
54,54,0.49814,1.2,1,0.24907,0.20756,0.83854,54,1.85973,-0.86,-0.43172,0.06642,5,1D3U,2.0,True,1.685,2,True,right,0.0,0.2487,0.3159,0.0672,1.1574,1.6577,0.5003,V
55,55,0.49814,0.1,1,0.43172,0.25737,0.59777,55,1.83481,-0.9,-0.44833,0.04981,5,lapse_rate,2.0,True,0.427,0,False,right,0.0,0.4297,0.4797,0.05,1.0789,1.5787,0.4998,A
56,56,0.49814,0.1,2,0.44002,0.24077,0.61437,56,2.24163,-0.1,-0.04981,0.44833,5,2D1U,1.0,True,0.608,2,False,left,0.0,1.5608,2.0112,0.4504,0.4444,0.9443,0.4999,V
57,57,0.49814,1.2,1,0.3653,0.41512,0.53965,57,1.88463,-0.86,-0.43172,0.06642,5,1D3U,2.0,True,0.524,2,True,right,0.0,0.3657,0.4333,0.0676,0.9733,1.4742,0.5008,A
58,58,0.49814,0.1,1,0.39021,0.40681,0.88835,58,2.75637,0.14,0.06642,0.57286,5,3D1U,1.0,True,0.308,1,True,left,0.0,0.3924,0.9682,0.5758,1.8597,2.3596,0.4999,A
59,59,0.49814,0.1,2,0.31549,0.22416,0.6974,59,1.785,-0.9,-0.44833,0.04981,5,lapse_rate,1.0,True,0.56,0,False,left,0.0,1.5149,1.5655,0.0506,0.3159,0.8151,0.4992,V
60,60,0.49814,1.2,1,0.43172,0.41512,0.48984,60,1.90124,-0.86,-0.43172,0.06642,5,1D2U,1.0,False,0.879,4,True,left,0.0,0.4365,0.5029,0.0665,0.9951,1.4952,0.5001,A
61,61,0.49814,0.1,2,0.21586,0.38191,0.7057,61,2.27484,-0.06,-0.03321,0.47323,5,2D1U,1.0,True,0.367,2,False,left,0.0,1.4204,1.8948,0.4744,0.2113,0.7127,0.5014,A
62,62,0.49814,1.2,2,0.19926,0.23247,0.48154,62,1.50274,-0.82,-0.40681,0.09133,5,1D3U,1.0,True,1.337,3,True,left,0.0,1.1802,1.272,0.0919,0.1971,0.6974,0.5003,A
63,63,0.49814,0.1,1,0.22416,0.357,0.86344,63,2.43258,-0.02,-0.0083,0.48984,5,2D1U,1.0,False,0.648,2,False,left,0.0,0.2279,0.7188,0.491,1.5859,2.086,0.5,A
64,64,0.49814,0.1,2,0.28228,0.44833,0.81363,64,2.09219,-0.9,-0.44833,0.04981,5,lapse_rate,1.0,True,0.346,0,False,left,0.0,1.6017,1.6525,0.0507,0.2846,0.7851,0.5005,A
65,65,0.49814,1.2,2,0.32379,0.39021,0.82193,65,2.60693,0.14,0.06642,0.57286,5,3D1U,1.0,False,0.467,1,True,left,0.0,1.6457,2.2207,0.575,0.3208,0.8205,0.4997,A
66,66,0.49814,0.1,2,0.29058,0.31549,0.56456,66,1.71858,-0.9,-0.44833,0.04981,5,1D2U,1.0,True,0.43,5,True,left,0.0,1.3546,1.4039,0.0493,0.2876,0.7876,0.5,A
67,67,0.49814,1.2,1,0.25737,0.30719,0.64758,67,1.80161,-0.82,-0.40681,0.09133,5,1D3U,2.0,True,0.485,3,True,right,0.0,0.2598,0.3516,0.0918,1.0018,1.502,0.5002,V
68,68,0.49814,0.1,2,0.44833,0.29058,0.44833,68,2.27485,0.18,0.09133,0.58947,5,3D1U,2.0,True,1.001,2,True,right,0.0,1.4007,1.9935,0.5928,0.4518,0.9512,0.4993,A
69,69,0.49814,1.2,1,0.3487,0.42342,0.51475,69,1.83482,-0.9,-0.44833,0.04981,5,1D2U,2.0,True,1.161,5,True,right,0.0,0.3512,0.4002,0.049,0.9168,1.4167,0.5,A
70,70,0.49814,0.1,2,0.21586,0.29058,0.56456,70,2.05898,-0.02,-0.0083,0.48984,5,2D1U,2.0,False,0.441,2,False,right,0.0,1.2792,1.7717,0.4925,0.213,0.7131,0.5001,A
71,71,0.49814,0.1,2,0.37361,0.3487,0.48154,71,1.7518,-0.9,-0.44833,0.04981,5,lapse_rate,1.0,True,0.301,0,False,left,0.0,1.357,1.4063,0.0494,0.3729,0.8734,0.5005,V
72,72,0.49814,1.2,2,0.29888,0.20756,0.53965,72,2.1337,0.18,0.09133,0.58947,5,3D1U,1.0,False,0.617,2,True,left,0.0,1.3392,1.9312,0.592,0.2973,0.7975,0.5002,V
73,73,0.49814,0.1,2,0.3653,0.21586,0.56456,73,2.11709,-0.06,-0.03321,0.47323,5,2D1U,1.0,True,0.63,3,True,left,0.0,1.4308,1.9057,0.4749,0.3639,0.8638,0.4999,V
74,74,0.49814,1.2,2,0.22416,0.24077,0.7223,74,2.63184,0.9,0.44833,0.94647,5,lapse_rate,2.0,True,0.342,0,False,right,0.0,1.4531,2.4025,0.9494,0.2283,0.7279,0.4997,A
75,75,0.49814,1.2,2,0.25737,0.30719,0.40681,75,1.56084,-0.82,-0.40681,0.09133,5,1D3U,1.0,True,0.975,3,True,left,0.0,1.1696,1.2615,0.0919,0.2609,0.7612,0.5003,V
76,76,0.49814,0.1,1,0.41512,0.3404,0.77212,76,2.0922,-0.86,-0.43172,0.06642,5,1D2U,2.0,True,0.334,6,True,right,0.0,0.4138,0.4804,0.0666,1.2548,1.7551,0.5002,V
77,77,0.49814,0.1,2,0.3653,0.3404,0.59777,77,2.74808,0.9,0.44833,0.94647,5,lapse_rate,2.0,True,0.259,0,False,right,0.0,1.4694,2.4194,0.9501,0.3691,0.8687,0.4996,V
78,78,0.49814,1.2,2,0.32379,0.37361,0.81363,78,2.1171,-0.78,-0.39021,0.10793,5,1D3U,1.0,True,0.588,3,False,left,0.0,1.6396,1.7483,0.1087,0.3229,0.8238,0.5009,A
79,79,0.49814,0.1,2,0.30719,0.26567,0.48984,79,1.62726,-0.86,-0.43172,0.06642,5,1D2U,1.0,True,0.597,6,True,left,0.0,1.2953,1.3621,0.0668,0.3035,0.8034,0.4999,A
80,80,0.49814,1.2,2,0.29058,0.29058,0.51475,80,2.08389,-0.02,-0.0083,0.48984,5,2D1U,1.0,True,0.9,4,True,left,0.0,1.3105,1.802,0.4914,0.2932,0.7941,0.5009,A
81,81,0.49814,0.1,2,0.23247,0.21586,0.41512,81,1.96766,0.22,0.10793,0.60607,5,3D1U,2.0,True,0.323,2,False,right,0.0,1.1482,1.7566,0.6084,0.2312,0.7313,0.5,V
82,82,0.49814,1.2,1,0.20756,0.38191,0.62268,82,2.21673,0.02,0.0083,0.50644,5,2D1U,2.0,False,1.287,4,False,right,0.0,0.2097,0.718,0.5082,1.3433,1.8429,0.4995,A
83,83,0.49814,0.1,2,0.29058,0.32379,0.48984,83,1.69368,-0.82,-0.40681,0.09133,5,1D2U,1.0,True,1.122,6,False,left,0.0,1.2842,1.3758,0.0916,0.2921,0.7918,0.4997,A
84,84,0.49814,1.2,1,0.30719,0.39021,0.80533,84,2.60694,0.22,0.10793,0.60607,5,3D1U,1.0,True,0.685,2,False,left,0.0,0.3072,0.9148,0.6076,1.7233,2.224,0.5007,V
85,85,0.49814,0.1,1,0.357,0.22416,0.51475,85,1.70198,-0.78,-0.39021,0.10793,5,1D3U,2.0,True,0.331,3,False,right,0.0,0.3612,0.47,0.1089,0.9868,1.4868,0.5,V
86,86,0.49814,1.2,2,0.41512,0.3487,0.57286,86,1.88463,-0.9,-0.44833,0.04981,5,lapse_rate,1.0,True,0.678,0,False,left,0.0,1.4925,1.5426,0.05,0.4168,0.918,0.5012,A
87,87,0.49814,1.2,2,0.31549,0.32379,0.59777,87,1.82652,-0.82,-0.40681,0.09133,5,1D2U,2.0,False,1.113,6,False,right,0.0,1.4125,1.5042,0.0917,0.3127,0.8134,0.5007,A
88,88,0.49814,0.1,1,0.3653,0.29058,0.64758,88,1.85141,-0.9,-0.44833,0.04981,5,lapse_rate,2.0,True,0.292,0,False,right,0.0,0.3648,0.4155,0.0507,1.0655,1.5655,0.5,A
89,89,0.49814,0.1,2,0.44002,0.26567,0.74721,89,2.05897,-0.78,-0.39021,0.10793,5,1D3U,1.0,True,0.367,3,False,left,0.0,1.6911,1.8004,0.1093,0.4417,0.9418,0.5,A
90,90,0.49814,1.2,2,0.42342,0.24907,0.714,90,2.4907,0.22,0.10793,0.60607,5,3D1U,1.0,False,0.465,2,False,left,0.0,1.6396,2.2474,0.6079,0.4219,0.9221,0.5002,V
91,91,0.49814,0.1,1,0.38191,0.44833,0.42342,91,2.28315,0.06,0.03321,0.53135,5,2D1U,1.0,True,0.258,4,False,left,0.0,0.3796,0.9123,0.5327,1.3375,1.8368,0.4993,V
92,92,0.49814,1.2,1,0.25737,0.28228,0.78872,92,2.35786,0.06,0.03321,0.53135,5,2D1U,1.0,True,0.322,4,False,left,0.0,0.2568,0.7904,0.5337,1.582,2.0819,0.4999,A
93,93,0.49814,1.2,1,0.30719,0.19926,0.87175,93,2.82281,0.9,0.44833,0.94647,5,lapse_rate,1.0,True,0.834,0,False,left,0.0,0.3107,1.2605,0.9498,2.1352,2.6356,0.5004,A
94,94,0.49814,0.1,1,0.39021,0.23247,0.55626,94,1.7435,-0.86,-0.43172,0.06642,5,1D2U,2.0,True,0.318,7,True,right,0.0,0.3927,0.4588,0.0661,1.0168,1.517,0.5002,V
95,95,0.49814,1.2,1,0.43172,0.33209,0.77212,95,2.16691,-0.74,-0.37361,0.13284,5,1D3U,2.0,True,0.772,3,False,right,0.0,0.4303,0.5631,0.1328,1.3384,1.8387,0.5003,A
96,96,0.49814,0.1,2,0.44002,0.39851,0.53135,96,2.499,0.26,0.13284,0.63098,5,3D1U,2.0,True,0.36,2,False,right,0.0,1.4777,2.1117,0.634,0.4448,0.9451,0.5003,A
97,97,0.49814,1.2,2,0.22416,0.40681,0.40681,97,1.66876,-0.74,-0.37361,0.13284,5,1D3U,1.0,True,0.518,3,False,left,0.0,1.1286,1.2619,0.1333,0.2215,0.7202,0.4987,V
98,98,0.49814,0.1,2,0.39851,0.3653,0.77212,98,2.08388,-0.9,-0.44833,0.04981,5,lapse_rate,1.0,True,0.424,0,False,left,0.0,1.674,1.7241,0.0501,0.3994,0.8993,0.4999,A
99,99,0.49814,0.1,2,0.32379,0.32379,0.40681,99,2.05897,0.02,0.0083,0.50644,5,2D1U,1.0,False,0.418,5,True,left,0.0,1.2333,1.7416,0.5083,0.3241,0.8252,0.5011,V
100,100,0.49814,1.2,1,0.27398,0.21586,0.86344,100,1.91784,-0.86,-0.43172,0.06642,5,1D2U,2.0,True,0.5,7,True,right,0.0,0.2773,0.3445,0.0672,1.2106,1.7111,0.5004,V
101,101,0.49814,0.1,2,0.41512,0.26567,0.40681,101,2.21672,0.26,0.13284,0.63098,5,3D1U,2.0,True,0.626,2,False,right,0.0,1.3253,1.9578,0.6325,0.4168,0.917,0.5002,A
102,102,0.49814,1.2,1,0.22416,0.44833,0.56456,102,2.36617,0.26,0.13284,0.63098,5,3D1U,2.0,False,1.817,2,False,right,0.0,0.224,0.8562,0.6322,1.4235,1.9228,0.4993,V
103,103,0.49814,1.2,2,0.32379,0.21586,0.50644,103,1.59404,-0.9,-0.44833,0.04981,5,lapse_rate,1.0,True,0.646,0,False,left,0.0,1.3298,1.3796,0.0498,0.322,0.8217,0.4998,V
104,104,0.49814,0.1,2,0.29888,0.27398,0.62268,104,2.22503,0.06,0.03321,0.53135,5,2D1U,1.0,False,0.395,6,True,left,0.0,1.4229,1.9566,0.5337,0.2974,0.7976,0.5002,V
105,105,0.49814,1.2,2,0.25737,0.29888,0.58116,105,1.72688,-0.82,-0.40681,0.09133,5,1D2U,1.0,True,0.45,8,True,left,0.0,1.3438,1.4355,0.0917,0.2607,0.76,0.4992,A
106,106,0.49814,0.1,2,0.3487,0.31549,0.86344,106,2.15861,-0.74,-0.37361,0.13284,5,1D3U,1.0,True,0.483,3,False,left,0.0,1.7182,1.8518,0.1336,0.3516,0.8517,0.5001,V
107,107,0.49814,1.2,2,0.44002,0.21586,0.64758,107,1.89293,-0.82,-0.40681,0.09133,5,1D2U,1.0,True,0.659,8,True,left,0.0,1.5873,1.6789,0.0916,0.4367,0.9372,0.5005,A
108,108,0.49814,0.1,1,0.29888,0.33209,0.82193,108,2.59862,0.3,0.14944,0.64758,5,3D1U,1.0,True,1.241,2,False,left,0.0,0.3007,0.9517,0.6511,1.7762,2.2761,0.5,A
109,109,0.49814,1.2,1,0.24077,0.39851,0.75551,109,2.44088,0.1,0.04981,0.54795,5,2D1U,2.0,False,1.184,6,False,right,0.0,0.2423,0.792,0.5496,1.5505,2.0502,0.4997,A
110,110,0.49814,1.2,2,0.24077,0.39851,0.45663,110,1.64386,-0.9,-0.44833,0.04981,5,lapse_rate,1.0,True,2.279,0,False,left,0.0,1.1999,1.2498,0.05,0.2418,0.7412,0.4994,A
111,111,0.49814,0.1,1,0.24907,0.30719,0.47323,111,1.67707,-0.7,-0.3487,0.14944,5,1D3U,2.0,True,0.294,3,False,right,0.0,0.2503,0.4006,0.1503,0.8753,1.3753,0.5001,A
112,112,0.49814,1.2,2,0.27398,0.43172,0.49814,112,2.27484,0.14,0.06642,0.57286,5,2D1U,2.0,True,0.304,6,False,right,0.0,1.2728,1.8474,0.5747,0.2726,0.7733,0.5007,A
113,113,0.49814,0.1,2,0.37361,0.33209,0.45663,113,1.80991,-0.7,-0.3487,0.14944,5,1D3U,1.0,True,0.465,3,False,left,0.0,1.3307,1.4805,0.1498,0.372,0.872,0.5,A
114,114,0.49814,1.2,1,0.22416,0.24077,0.40681,114,2.01746,0.3,0.14944,0.64758,5,3D1U,2.0,False,0.564,2,False,right,0.0,0.2208,0.8711,0.6503,1.2797,1.7795,0.4998,A
115,115,0.49814,0.1,2,0.32379,0.30719,0.77212,115,2.00917,-0.78,-0.39021,0.10793,5,1D2U,1.0,True,0.427,8,False,left,0.0,1.5989,1.7067,0.1078,0.3227,0.8235,0.5008,A
116,116,0.49814,0.1,2,0.357,0.37361,0.82193,116,2.10049,-0.9,-0.44833,0.04981,5,lapse_rate,1.0,True,0.341,0,False,left,0.0,1.6827,1.733,0.0503,0.3572,0.8571,0.5,A
117,117,0.49814,1.2,1,0.3653,0.40681,0.78872,117,2.63183,0.14,0.06642,0.57286,5,2D1U,2.0,False,1.185,6,False,right,0.0,0.3664,0.9419,0.5755,1.7339,2.2334,0.4995,V
118,118,0.49814,0.1,2,0.29888,0.20756,0.56456,118,2.24163,0.34,0.16605,0.67249,5,3D1U,2.0,True,0.359,2,False,right,0.0,1.3685,2.0441,0.6756,0.3014,0.8025,0.5011,A
119,119,0.49814,1.2,2,0.43172,0.42342,0.53965,119,2.04237,-0.7,-0.3487,0.14944,5,1D3U,2.0,False,0.559,3,False,right,0.0,1.4752,1.6253,0.15,0.4335,0.9339,0.5004,V
120,120,0.49814,1.2,1,0.357,0.33209,0.88005,120,2.11709,-0.9,-0.44833,0.04981,5,lapse_rate,1.0,False,0.439,0,False,left,0.0,0.355,0.4052,0.0502,1.2879,1.7877,0.4998,V
121,121,0.49814,0.1,1,0.40681,0.33209,0.68909,121,2.03406,-0.78,-0.39021,0.10793,5,1D2U,2.0,True,0.52,8,False,right,0.0,0.408,0.5165,0.1085,1.2092,1.7086,0.4994,A
122,122,0.49814,1.2,2,0.3653,0.20756,0.86344,122,2.60693,0.34,0.16605,0.67249,5,3D1U,2.0,True,2.159,2,False,right,0.0,1.7307,2.4053,0.6746,0.3635,0.8644,0.5009,A
123,123,0.49814,0.1,2,0.21586,0.37361,0.63098,123,2.30806,0.18,0.09133,0.58947,5,2D1U,2.0,True,0.571,6,False,right,0.0,1.3522,1.9439,0.5916,0.219,0.7191,0.5,V
124,124,0.49814,0.1,2,0.26567,0.26567,0.53965,124,2.5156,0.9,0.44833,0.94647,5,lapse_rate,2.0,True,0.242,0,False,right,0.0,1.3054,2.2553,0.9499,0.2638,0.7641,0.5003,V
125,125,0.49814,1.2,1,0.30719,0.38191,0.45663,125,1.77671,-0.74,-0.37361,0.13284,5,1D2U,2.0,True,0.623,8,False,right,0.0,0.3038,0.4373,0.1335,0.8957,1.3956,0.4998,V
126,126,0.49814,0.1,1,0.3487,0.20756,0.88005,126,2.06729,-0.74,-0.37361,0.13284,5,1D3U,2.0,True,0.617,4,True,right,0.0,0.3512,0.4843,0.1331,1.3684,1.8674,0.499,V
127,127,0.49814,1.2,2,0.29888,0.21586,0.51475,127,2.1171,0.18,0.09133,0.58947,5,2D1U,1.0,False,2.362,6,False,left,0.0,1.3119,1.9033,0.5914,0.2953,0.796,0.5007,V
128,128,0.49814,0.1,1,0.19926,0.44002,0.65588,128,1.92614,-0.74,-0.37361,0.13284,5,1D2U,2.0,True,0.306,8,False,right,0.0,0.1979,0.3314,0.1335,0.9891,1.4902,0.5012,V
129,129,0.49814,1.2,2,0.42342,0.3653,0.89665,129,2.856,0.34,0.16605,0.67249,5,3D1U,1.0,False,0.817,2,False,left,0.0,1.8282,2.5035,0.6754,0.4278,0.9275,0.4997,A
130,130,0.49814,0.1,1,0.32379,0.41512,0.86344,130,2.23333,-0.74,-0.37361,0.13284,5,1D3U,2.0,True,0.274,4,True,right,0.0,0.3254,0.4586,0.1332,1.3253,1.8255,0.5002,A
131,131,0.49814,0.1,2,0.40681,0.39021,0.44833,131,2.68996,0.9,0.44833,0.94647,5,lapse_rate,2.0,True,0.783,0,False,right,0.0,1.3553,2.3045,0.9492,0.4052,0.9052,0.5,V
132,132,0.49814,1.2,2,0.20756,0.29058,0.68909,132,2.29144,0.22,0.10793,0.60607,5,2D1U,2.0,True,1.79,6,False,right,0.0,1.3966,2.0047,0.6081,0.2049,0.7047,0.4998,A
133,133,0.49814,0.1,1,0.23247,0.31549,0.63928,133,2.37447,0.38,0.19095,0.68909,5,3D1U,1.0,True,0.484,2,False,left,0.0,0.2313,0.9231,0.6917,1.5643,2.0644,0.5,V
134,134,0.49814,1.2,2,0.26567,0.20756,0.63928,134,1.76009,-0.7,-0.3487,0.14944,5,1D2U,1.0,True,0.573,8,False,left,0.0,1.411,1.5604,0.1494,0.2694,0.7695,0.5001,V
135,135,0.49814,0.1,2,0.44833,0.24077,0.44002,135,1.7601,-0.74,-0.37361,0.13284,5,1D3U,1.0,True,0.402,4,True,left,0.0,1.3941,1.5279,0.1338,0.4529,0.9529,0.5,A
136,136,0.49814,1.2,2,0.3487,0.3404,0.60607,136,1.84312,-0.9,-0.44833,0.04981,5,lapse_rate,2.0,False,1.125,0,False,right,0.0,1.46,1.5101,0.0501,0.3519,0.8516,0.4997,V
137,137,0.49814,1.2,1,0.39851,0.40681,0.48984,137,1.94274,-0.7,-0.3487,0.14944,5,1D2U,2.0,True,0.431,8,False,right,0.0,0.3968,0.5473,0.1505,1.0388,1.5384,0.4995,V
138,138,0.49814,0.1,2,0.44002,0.3653,0.81363,138,2.26653,-0.7,-0.3487,0.14944,5,1D3U,1.0,True,0.478,5,True,left,0.0,1.7579,1.9081,0.1502,0.4414,0.9414,0.5,V
139,139,0.49814,1.2,2,0.39851,0.3487,0.51475,139,2.36617,0.22,0.10793,0.60607,5,2D1U,1.0,False,0.497,6,False,left,0.0,1.415,2.0232,0.6081,0.398,0.898,0.5,A
140,140,0.49814,1.2,1,0.38191,0.27398,0.84684,140,2.94734,0.9,0.44833,0.94647,5,lapse_rate,1.0,True,0.812,0,False,left,0.0,0.3812,1.3314,0.9502,2.1817,2.6822,0.5005,V
141,141,0.49814,0.1,1,0.24907,0.3653,0.6974,141,2.499,0.38,0.19095,0.68909,5,3D1U,1.0,True,0.751,2,False,left,0.0,0.2518,0.9436,0.6918,1.6432,2.1435,0.5003,A
142,142,0.49814,1.2,1,0.3653,0.23247,0.56456,142,1.80991,-0.7,-0.3487,0.14944,5,1D3U,1.0,False,1.742,5,True,left,0.0,0.3699,0.5203,0.1504,1.0871,1.5872,0.5001,V
143,143,0.49814,0.1,1,0.27398,0.41512,0.87175,143,2.74808,0.38,0.19095,0.68909,5,3D1U,1.0,True,0.846,2,False,left,0.0,0.2774,0.9694,0.6921,1.8441,2.3447,0.5007,A
144,144,0.49814,1.2,2,0.39021,0.30719,0.65588,144,2.52391,0.34,0.16605,0.67249,5,3D1U,1.0,False,0.48,3,True,left,0.0,1.5463,2.2212,0.6749,0.3876,0.8884,0.5007,A
145,145,0.49814,0.1,2,0.32379,0.32379,0.81363,145,2.59033,0.26,0.13284,0.63098,5,2D1U,2.0,True,0.405,6,False,right,0.0,1.6445,2.2782,0.6337,0.3284,0.8289,0.5005,V
146,146,0.49814,1.2,1,0.44833,0.33209,0.40681,146,1.85142,-0.66,-0.33209,0.16605,5,1D2U,2.0,True,1.834,8,False,right,0.0,0.45,0.6168,0.1668,1.0258,1.5259,0.5001,A
147,147,0.49814,0.1,1,0.29888,0.24077,0.62268,147,2.29145,0.26,0.13284,0.63098,5,2D1U,1.0,True,0.34,6,False,left,0.0,0.2964,0.9295,0.6331,1.5542,2.054,0.4998,A
148,148,0.49814,1.2,2,0.41512,0.44833,0.63098,148,2.15862,-0.66,-0.33209,0.16605,5,1D2U,1.0,True,0.534,8,False,left,0.0,1.5521,1.7191,0.167,0.4196,0.919,0.4994,V
149,149,0.49814,0.1,2,0.37361,0.42342,0.65588,149,2.142,-0.62,-0.30719,0.19095,5,1D2U,1.0,True,0.317,8,False,left,0.0,1.535,1.7261,0.191,0.3767,0.877,0.5004,A
150,150,0.49814,1.2,1,0.41512,0.33209,0.84684,150,2.22503,-0.74,-0.37361,0.13284,5,1D3U,1.0,False,0.389,6,True,left,0.0,0.414,0.5476,0.1335,1.397,1.8975,0.5005,V
151,151,0.49814,0.1,2,0.39021,0.24077,0.7223,151,2.54051,0.38,0.19095,0.68909,5,3D1U,2.0,True,0.342,4,True,right,0.0,1.619,2.3105,0.6915,0.3942,0.8933,0.4991,V
152,152,0.49814,1.2,1,0.43172,0.24907,0.56456,152,1.93444,-0.62,-0.30719,0.19095,5,1D2U,1.0,False,1.022,8,False,left,0.0,0.4291,0.6217,0.1926,1.1883,1.6875,0.4993,V
153,153,0.49814,0.1,1,0.29888,0.39851,0.56456,153,2.36616,0.22,0.10793,0.60607,5,2D1U,1.0,True,0.372,7,True,left,0.0,0.2999,0.9082,0.6082,1.4749,1.9747,0.4998,A
154,154,0.49814,1.2,1,0.3404,0.39021,0.65588,154,2.4907,0.22,0.10793,0.60607,5,2D1U,2.0,False,0.772,7,True,right,0.0,0.3373,0.9461,0.6088,1.6047,2.1045,0.4999,A
155,155,0.49814,0.1,1,0.42342,0.21586,0.57286,155,1.81821,-0.78,-0.39021,0.10793,5,1D3U,2.0,True,0.399,6,False,right,0.0,0.4237,0.532,0.1083,1.1073,1.6064,0.499,V
156,156,0.49814,1.2,2,0.25737,0.30719,0.50644,156,2.25823,0.38,0.19095,0.68909,5,3D1U,2.0,True,0.83,4,True,right,0.0,1.2666,1.9583,0.6917,0.2579,0.7588,0.5009,A
157,157,0.49814,0.1,1,0.39851,0.43172,0.714,157,2.1503,-0.78,-0.39021,0.10793,5,1D3U,2.0,True,0.322,6,False,right,0.0,0.3963,0.5052,0.1088,1.2213,1.7215,0.5002,A
158,158,0.49814,1.2,2,0.24907,0.28228,0.44002,158,1.63556,-0.66,-0.33209,0.16605,5,1D2U,1.0,True,0.616,9,True,left,0.0,1.1917,1.3593,0.1676,0.2509,0.7501,0.4992,A
159,159,0.49814,0.1,1,0.3487,0.42342,0.74721,159,2.70656,0.38,0.19095,0.68909,5,3D1U,1.0,True,0.232,4,True,left,0.0,0.3534,1.0445,0.6911,1.7951,2.2949,0.4999,A
160,160,0.49814,1.2,1,0.20756,0.33209,0.58947,160,2.25824,0.26,0.13284,0.63098,5,2D1U,1.0,True,0.666,8,True,left,0.0,0.2059,0.8391,0.6332,1.4311,1.9314,0.5003,A
161,161,0.49814,0.1,2,0.38191,0.28228,0.87175,161,2.66506,0.26,0.13284,0.63098,5,2D1U,2.0,True,0.968,8,True,right,0.0,1.7551,2.3886,0.6335,0.3804,0.8798,0.4994,V
162,162,0.49814,1.2,1,0.21586,0.33209,0.40681,162,2.05897,0.22,0.10793,0.60607,5,2D1U,1.0,True,0.858,9,True,left,0.0,0.2195,0.828,0.6086,1.2363,1.7375,0.5012,V
163,163,0.49814,0.1,2,0.32379,0.31549,0.63098,163,1.87633,-0.78,-0.39021,0.10793,5,1D3U,1.0,True,0.529,6,False,left,0.0,1.4549,1.5628,0.1079,0.3209,0.8211,0.5002,A
164,164,0.49814,1.2,1,0.32379,0.41512,0.76382,164,2.16692,-0.66,-0.33209,0.16605,5,1D2U,1.0,False,2.852,9,True,left,0.0,0.3243,0.4911,0.1669,1.258,1.758,0.5,A
165,165,0.49814,0.1,2,0.31549,0.41512,0.63098,165,2.53222,0.34,0.16605,0.67249,5,3D1U,2.0,True,0.314,5,True,right,0.0,1.4494,2.1247,0.6753,0.3169,0.8161,0.4992,A
166,166,0.49814,1.2,1,0.3404,0.27398,0.87175,166,2.59034,0.22,0.10793,0.60607,5,2D1U,1.0,True,0.39,9,True,left,0.0,0.3379,0.946,0.608,1.8207,2.3208,0.5001,V
167,167,0.49814,0.1,2,0.3653,0.28228,0.48154,167,2.29975,0.34,0.16605,0.67249,5,3D1U,2.0,True,0.383,5,True,right,0.0,1.3459,2.021,0.6751,0.3624,0.8624,0.5001,A
168,168,0.49814,1.2,1,0.26567,0.28228,0.6974,168,2.33296,0.18,0.09133,0.58947,5,2D1U,2.0,False,0.676,9,False,right,0.0,0.2663,0.8576,0.5913,1.5581,2.0582,0.5001,V
169,169,0.49814,0.1,1,0.44002,0.39851,0.87175,169,2.35786,-0.7,-0.3487,0.14944,5,1D2U,2.0,True,0.364,9,False,right,0.0,0.4388,0.5883,0.1495,1.4637,1.964,0.5004,A
170,170,0.49814,1.2,2,0.44002,0.39021,0.44002,170,1.90123,-0.74,-0.37361,0.13284,5,1D3U,1.0,True,0.508,7,True,left,0.0,1.3829,1.5174,0.1345,0.4415,0.9415,0.5,V
171,171,0.49814,0.1,1,0.27398,0.23247,0.51475,171,2.19183,0.34,0.16605,0.67249,5,3D1U,1.0,True,0.321,5,True,left,0.0,0.274,0.949,0.675,1.4655,1.9656,0.5001,A
172,172,0.49814,1.2,1,0.42342,0.42342,0.64758,172,2.142,-0.7,-0.3487,0.14944,5,1D2U,2.0,True,1.425,9,False,right,0.0,0.4258,0.5757,0.15,1.2255,1.7264,0.5008,V
173,173,0.49814,0.1,2,0.39851,0.43172,0.58947,173,2.52391,0.22,0.10793,0.60607,5,2D1U,2.0,True,0.548,10,True,right,0.0,1.4957,2.1036,0.6079,0.4036,0.9028,0.4992,V
174,174,0.49814,1.2,1,0.30719,0.22416,0.78872,174,2.46579,0.3,0.14944,0.64758,5,3D1U,1.0,True,0.501,5,False,left,0.0,0.307,0.9572,0.6502,1.749,2.2489,0.4999,V
175,175,0.49814,0.1,2,0.28228,0.43172,0.59777,175,2.45749,0.3,0.14944,0.64758,5,3D1U,2.0,True,0.609,5,False,right,0.0,1.3839,2.0342,0.6503,0.2848,0.7844,0.4996,V
176,176,0.49814,1.2,1,0.23247,0.22416,0.60607,176,1.69368,-0.74,-0.37361,0.13284,5,1D3U,2.0,True,1.538,7,True,right,0.0,0.2317,0.366,0.1343,0.9733,1.4734,0.5001,V
177,177,0.49814,0.1,2,0.44002,0.24077,0.56456,177,1.90954,-0.66,-0.33209,0.16605,5,1D2U,1.0,True,0.659,10,True,left,0.0,1.5067,1.6727,0.166,0.4392,0.9392,0.5,A
178,178,0.49814,1.2,2,0.31549,0.38191,0.714,178,2.51561,0.22,0.10793,0.60607,5,2D1U,1.0,False,0.662,10,True,left,0.0,1.5296,2.1367,0.6071,0.3122,0.8125,0.5003,A
179,179,0.49814,0.1,1,0.25737,0.31549,0.75551,179,1.95935,-0.74,-0.37361,0.13284,5,1D3U,2.0,True,0.385,7,True,right,0.0,0.2609,0.3943,0.1334,1.1526,1.6521,0.4995,A
180,180,0.49814,1.2,1,0.44002,0.19926,0.46493,180,2.24993,0.3,0.14944,0.64758,5,3D1U,1.0,True,0.366,5,False,left,0.0,0.4388,1.0886,0.6498,1.5556,2.055,0.4994,V
181,181,0.49814,0.1,1,0.44002,0.27398,0.63928,181,2.4824,0.26,0.13284,0.63098,5,3D1U,1.0,True,0.279,5,False,left,0.0,0.4375,1.071,0.6335,1.7125,2.2126,0.5001,V
182,182,0.49814,1.2,1,0.19926,0.20756,0.88835,182,2.42429,0.26,0.13284,0.63098,5,2D1U,1.0,True,0.508,10,False,left,0.0,0.2026,0.8357,0.633,1.728,2.2274,0.4994,A
183,183,0.49814,0.1,2,0.28228,0.21586,0.68909,183,2.31635,0.26,0.13284,0.63098,5,3D1U,1.0,False,0.348,5,False,left,0.0,1.4786,2.1119,0.6333,0.2868,0.787,0.5002,A
184,184,0.49814,1.2,2,0.25737,0.39851,0.74721,184,2.05067,-0.7,-0.3487,0.14944,5,1D3U,1.0,True,1.234,7,False,left,0.0,1.5081,1.6581,0.15,0.258,0.758,0.5,A
185,185,0.49814,0.1,1,0.24907,0.29888,0.74721,185,1.94274,-0.7,-0.3487,0.14944,5,1D3U,2.0,True,0.299,7,False,right,0.0,0.2491,0.3988,0.1497,1.1484,1.6491,0.5008,V
186,186,0.49814,1.2,1,0.44833,0.29058,0.45663,186,1.85973,-0.66,-0.33209,0.16605,5,1D2U,2.0,True,0.542,10,True,right,0.0,0.4505,0.6167,0.1662,1.0753,1.5751,0.4998,A
187,187,0.49814,0.1,2,0.3487,0.3487,0.60607,187,2.43259,0.26,0.13284,0.63098,5,2D1U,2.0,True,0.366,10,False,right,0.0,1.4565,2.0897,0.6332,0.3485,0.8474,0.499,A
188,188,0.49814,1.2,2,0.24077,0.3404,0.85514,188,2.08389,-0.7,-0.3487,0.14944,5,1D3U,1.0,True,0.588,7,False,left,0.0,1.596,1.7464,0.1504,0.2375,0.7382,0.5006,A
189,189,0.49814,0.1,2,0.42342,0.29888,0.61437,189,2.02576,-0.62,-0.30719,0.19095,5,1D2U,1.0,True,0.382,10,False,left,0.0,1.5447,1.736,0.1913,0.4273,0.9275,0.5003,V
190,190,0.49814,1.2,1,0.30719,0.37361,0.88005,190,2.70657,0.3,0.14944,0.64758,5,3D1U,1.0,True,1.363,6,True,left,0.0,0.3048,0.9545,0.6497,1.8376,2.3377,0.5001,V
191,191,0.49814,0.1,2,0.41512,0.22416,0.75551,191,2.499,0.22,0.10793,0.60607,5,2D1U,2.0,True,1.45,11,True,right,0.0,1.671,2.2789,0.6079,0.4126,0.9122,0.4996,V
192,192,0.49814,1.2,2,0.24907,0.44002,0.73891,192,2.09219,-0.66,-0.33209,0.16605,5,1D3U,1.0,True,0.273,7,False,left,0.0,1.4939,1.6607,0.1668,0.2515,0.7519,0.5004,V
193,193,0.49814,0.1,1,0.27398,0.26567,0.714,193,2.35786,0.22,0.10793,0.60607,5,2D1U,2.0,False,0.466,11,True,right,0.0,0.2747,0.8834,0.6087,1.5998,2.1001,0.5003,A
194,194,0.49814,1.2,1,0.3653,0.20756,0.50644,194,2.22502,0.3,0.14944,0.64758,5,3D1U,1.0,True,1.324,6,True,left,0.0,0.3629,1.013,0.6501,1.5213,2.0214,0.5,V
195,195,0.49814,0.1,1,0.21586,0.28228,0.52305,195,1.71028,-0.62,-0.30719,0.19095,5,1D2U,2.0,True,0.433,10,False,right,0.0,0.213,0.4047,0.1917,0.9304,1.4298,0.4994,A
196,196,0.49814,1.2,1,0.39021,0.26567,0.6974,196,2.05898,-0.58,-0.29058,0.20756,5,1D2U,2.0,True,1.383,10,False,right,0.0,0.3909,0.5995,0.2085,1.2986,1.7988,0.5002,V
197,197,0.49814,0.1,2,0.3487,0.30719,0.62268,197,1.94276,-0.66,-0.33209,0.16605,5,1D3U,1.0,True,0.421,7,False,left,0.0,1.4778,1.6439,0.1661,0.3516,0.8523,0.5006,A
198,198,0.49814,1.2,2,0.25737,0.39851,0.88005,198,2.66505,0.26,0.13284,0.63098,5,2D1U,2.0,True,0.333,12,True,right,0.0,1.6436,2.277,0.6334,0.2602,0.7596,0.4994,A
199,199,0.49814,0.1,1,0.29058,0.28228,0.87175,199,2.57373,0.26,0.13284,0.63098,5,2D1U,1.0,True,0.421,12,True,left,0.0,0.2874,0.921,0.6336,1.7961,2.2963,0.5003,A
200,200,0.49814,1.2,1,0.21586,0.22416,0.74721,200,2.33295,0.3,0.14944,0.64758,5,3D1U,2.0,False,0.7,6,True,right,0.0,0.2173,0.8679,0.6506,1.618,2.1179,0.5,V
201,201,0.49814,0.1,1,0.21586,0.22416,0.52305,201,1.66877,-0.58,-0.29058,0.20756,5,1D2U,2.0,True,0.411,10,False,right,0.0,0.2162,0.4253,0.209,0.9502,1.4504,0.5001,V
202,202,0.49814,1.2,1,0.29058,0.32379,0.48984,202,2.27484,0.34,0.16605,0.67249,5,3D1U,1.0,True,0.892,6,False,left,0.0,0.2955,0.9696,0.6741,1.4616,1.9611,0.4995,V
203,203,0.49814,0.1,2,0.21586,0.3487,0.6974,203,2.43259,0.34,0.16605,0.67249,5,3D1U,2.0,True,0.314,6,False,right,0.0,1.4125,2.0878,0.6753,0.2124,0.7123,0.4999,V
204,204,0.49814,1.2,1,0.31549,0.25737,0.49814,204,1.73519,-0.66,-0.33209,0.16605,5,1D3U,2.0,True,1.716,7,False,right,0.0,0.314,0.4803,0.1664,0.98,1.48,0.5,V
205,205,0.49814,0.1,1,0.30719,0.44833,0.66419,205,2.15032,-0.54,-0.27398,0.23247,5,1D2U,2.0,True,0.317,10,False,right,0.0,0.3094,0.5432,0.2338,1.2101,1.7096,0.4995,V
206,206,0.49814,1.2,2,0.42342,0.24907,0.78042,206,2.55712,0.22,0.10793,0.60607,5,2D1U,1.0,False,0.374,13,True,left,0.0,1.7108,2.3196,0.6088,0.4278,0.9276,0.4998,A
207,207,0.49814,0.1,2,0.44833,0.19926,0.78042,207,2.55713,0.26,0.13284,0.63098,5,2D1U,2.0,True,0.402,14,True,right,0.0,1.7291,2.3632,0.6341,0.4454,0.9456,0.5002,A
208,208,0.49814,1.2,2,0.25737,0.357,0.59777,208,1.94275,-0.54,-0.27398,0.23247,5,1D2U,1.0,True,0.486,10,False,left,0.0,1.3581,1.5909,0.2328,0.2578,0.7576,0.4998,V
209,209,0.49814,0.1,2,0.40681,0.24077,0.52305,209,2.34126,0.34,0.16605,0.67249,5,3D1U,2.0,True,0.259,6,False,right,0.0,1.4296,2.1042,0.6746,0.4049,0.9046,0.4996,V
210,210,0.49814,1.2,2,0.37361,0.24907,0.53965,210,2.30805,0.3,0.14944,0.64758,5,3D1U,1.0,False,0.692,7,True,left,0.0,1.4197,2.0694,0.6497,0.3776,0.8774,0.4998,V
211,211,0.49814,0.1,2,0.41512,0.40681,0.44002,211,1.95104,-0.62,-0.30719,0.19095,5,1D3U,1.0,True,0.359,7,False,left,0.0,1.361,1.5529,0.1919,0.4195,0.9193,0.4998,A
212,212,0.49814,1.2,1,0.41512,0.37361,0.78872,212,2.74808,0.34,0.16605,0.67249,5,3D1U,1.0,True,0.293,8,True,left,0.0,0.4188,1.0935,0.6747,1.8848,2.3854,0.5005,A
213,213,0.49814,0.1,1,0.32379,0.24907,0.39851,213,1.71858,-0.5,-0.24907,0.24907,5,1D2U,2.0,True,0.106,10,False,right,0.0,0.325,0.5753,0.2502,0.9752,1.4755,0.5004,A
214,214,0.49814,1.2,1,0.3404,0.23247,0.73891,214,2.05899,-0.5,-0.24907,0.24907,5,1D2U,2.0,True,0.45,10,False,right,0.0,0.3439,0.5931,0.2492,1.3356,1.836,0.5004,V
215,215,0.49814,0.1,1,0.3653,0.39851,0.57286,215,2.02576,-0.62,-0.30719,0.19095,5,1D3U,2.0,True,0.349,7,False,right,0.0,0.364,0.5554,0.1915,1.1306,1.6306,0.5,V
216,216,0.49814,1.2,1,0.25737,0.41512,0.48154,216,2.28315,0.26,0.13284,0.63098,5,2D1U,1.0,True,0.892,14,True,left,0.0,0.2575,0.8906,0.6331,1.3735,1.8737,0.5002,A
217,217,0.49814,0.1,1,0.26567,0.29888,0.88835,217,2.14199,-0.62,-0.30719,0.19095,5,1D3U,2.0,True,0.381,7,False,right,0.0,0.2658,0.4575,0.1917,1.3491,1.8493,0.5002,V
218,218,0.49814,1.2,2,0.40681,0.29058,0.714,218,2.5156,0.22,0.10793,0.60607,5,2D1U,1.0,False,1.274,15,True,left,0.0,1.6264,2.2346,0.6081,0.4094,0.9095,0.5001,V
219,219,0.49814,0.1,2,0.31549,0.22416,0.7223,219,2.43258,0.34,0.16605,0.67249,5,3D1U,2.0,True,0.825,8,True,right,0.0,1.5409,2.2161,0.6753,0.316,0.8155,0.4995,A
220,220,0.49814,1.2,2,0.41512,0.44002,0.63098,220,2.25824,-0.46,-0.23247,0.27398,5,1D2U,2.0,False,0.345,10,False,right,0.0,1.5467,1.8217,0.275,0.413,0.913,0.4999,V
221,221,0.49814,0.1,2,0.32379,0.38191,0.73061,221,2.14201,-0.58,-0.29058,0.20756,5,1D3U,1.0,True,0.679,7,False,left,0.0,1.5604,1.7683,0.2078,0.3265,0.826,0.4994,V
222,222,0.49814,1.2,1,0.21586,0.25737,0.45663,222,1.67707,-0.5,-0.24907,0.24907,5,1D2U,2.0,True,1.276,11,True,right,0.0,0.2196,0.4695,0.2499,0.9283,1.4282,0.4999,A
223,223,0.49814,0.1,1,0.21586,0.44002,0.57286,223,1.93444,-0.58,-0.29058,0.20756,5,1D3U,2.0,True,0.263,7,False,right,0.0,0.2174,0.4258,0.2084,1.0015,1.5014,0.4999,V
224,224,0.49814,1.2,2,0.3487,0.19926,0.52305,224,2.20013,0.26,0.13284,0.63098,5,2D1U,2.0,True,0.299,16,True,right,0.0,1.3751,2.0084,0.6332,0.35,0.8499,0.5,A
225,225,0.49814,0.1,1,0.31549,0.42342,0.64758,225,2.51561,0.26,0.13284,0.63098,5,2D1U,1.0,True,0.571,16,True,left,0.0,0.3167,0.9505,0.6338,1.5993,2.1005,0.5012,V
226,226,0.49814,1.2,1,0.19926,0.43172,0.88835,226,2.68996,0.34,0.16605,0.67249,5,3D1U,2.0,False,1.351,8,True,right,0.0,0.1976,0.8736,0.676,1.765,2.2648,0.4998,V
227,227,0.49814,0.1,1,0.41512,0.39851,0.88005,227,2.88091,0.38,0.19095,0.68909,5,3D1U,1.0,True,0.279,8,False,left,0.0,0.4153,1.107,0.6916,1.9909,2.4906,0.4998,A
228,228,0.49814,1.2,1,0.40681,0.23247,0.81363,228,2.15861,-0.58,-0.29058,0.20756,5,1D3U,2.0,True,0.318,7,False,right,0.0,0.4042,0.6128,0.2086,1.4298,1.9292,0.4994,V
229,229,0.49814,0.1,2,0.32379,0.25737,0.76382,229,2.44919,0.22,0.10793,0.60607,5,2D1U,2.0,True,0.401,17,True,right,0.0,1.5919,2.1994,0.6075,0.3249,0.8247,0.4998,V
230,230,0.49814,1.2,2,0.41512,0.43172,0.62268,230,2.57373,0.22,0.10793,0.60607,5,2D1U,2.0,True,1.241,17,True,right,0.0,1.5414,2.149,0.6076,0.4161,0.9166,0.5006,V
231,231,0.49814,0.1,2,0.26567,0.41512,0.58947,231,2.01747,-0.5,-0.24907,0.24907,5,1D2U,1.0,True,0.423,11,True,left,0.0,1.3542,1.6045,0.2502,0.2624,0.7621,0.4998,V
232,232,0.49814,1.2,1,0.3404,0.44833,0.44002,232,2.00087,-0.46,-0.23247,0.27398,5,1D2U,1.0,False,0.493,12,True,left,0.0,0.3409,0.6159,0.275,1.0578,1.5579,0.5001,A
233,233,0.49814,0.1,1,0.28228,0.25737,0.45663,233,2.18351,0.38,0.19095,0.68909,5,3D1U,1.0,True,0.329,8,False,left,0.0,0.2818,0.9732,0.6914,1.4311,1.9315,0.5003,V
234,234,0.49814,1.2,2,0.19926,0.20756,0.51475,234,2.1088,0.38,0.19095,0.68909,5,3D1U,2.0,True,0.312,8,False,right,0.0,1.2155,1.9076,0.6921,0.1991,0.6993,0.5002,V
235,235,0.49814,0.1,1,0.39021,0.29888,0.84684,235,2.26654,-0.54,-0.27398,0.23247,5,1D3U,2.0,True,0.352,7,False,right,0.0,0.3927,0.6258,0.233,1.4757,1.9763,0.5007,A
236,236,0.49814,1.2,2,0.27398,0.27398,0.79702,236,2.43259,0.18,0.09133,0.58947,5,2D1U,2.0,True,0.3,17,False,right,0.0,1.5719,2.1634,0.5915,0.2723,0.7716,0.4994,V
237,237,0.49814,0.1,2,0.44002,0.32379,0.62268,237,2.1337,-0.5,-0.24907,0.24907,5,1D2U,1.0,True,0.395,13,True,left,0.0,1.5682,1.8187,0.2504,0.443,0.943,0.4999,V
238,238,0.49814,1.2,2,0.39021,0.33209,0.58116,238,2.05067,-0.5,-0.24907,0.24907,5,1D2U,1.0,True,0.266,13,True,left,0.0,1.4722,1.7224,0.2502,0.3889,0.8884,0.4996,V
239,239,0.49814,0.1,2,0.24077,0.44002,0.81363,239,2.66505,0.34,0.16605,0.67249,5,3D1U,2.0,True,0.442,9,True,right,0.0,1.5579,2.2328,0.6749,0.2412,0.7409,0.4998,V
240,240,0.49814,1.2,2,0.44002,0.37361,0.63098,240,2.53222,0.18,0.09133,0.58947,5,2D1U,2.0,True,0.341,17,False,right,0.0,1.572,2.164,0.592,0.4389,0.9381,0.4992,V
241,241,0.49814,0.1,1,0.37361,0.44833,0.79702,241,2.34957,-0.54,-0.27398,0.23247,5,1D3U,2.0,True,0.526,7,False,right,0.0,0.3716,0.6047,0.2331,1.4048,1.9052,0.5004,A
242,242,0.49814,1.2,2,0.32379,0.44002,0.41512,242,1.90954,-0.54,-0.27398,0.23247,5,1D3U,1.0,True,0.209,7,False,left,0.0,1.2408,1.474,0.2332,0.3241,0.8236,0.4995,A
243,243,0.49814,0.1,1,0.31549,0.29058,0.714,243,2.09219,-0.46,-0.23247,0.27398,5,1D2U,2.0,True,0.265,14,True,right,0.0,0.3139,0.5889,0.275,1.3057,1.806,0.5003,A
244,244,0.49814,1.2,2,0.42342,0.3487,0.43172,244,2.27484,0.14,0.06642,0.57286,5,2D1U,2.0,True,0.232,17,False,right,0.0,1.3608,1.9353,0.5744,0.4266,0.927,0.5004,V
245,245,0.49814,0.1,2,0.28228,0.32379,0.58116,245,2.25823,0.14,0.06642,0.57286,5,2D1U,2.0,True,0.401,17,False,right,0.0,1.3674,1.9417,0.5743,0.283,0.7838,0.5008,V
246,246,0.49814,1.2,1,0.33209,0.38191,0.88005,246,2.76468,0.34,0.16605,0.67249,5,3D1U,1.0,True,0.855,9,True,left,0.0,0.3339,1.0091,0.6752,1.8924,2.3925,0.5002,V
247,247,0.49814,0.1,1,0.357,0.3404,0.83023,247,2.57372,0.1,0.04981,0.54795,5,2D1U,2.0,False,0.259,17,False,right,0.0,0.3571,0.9078,0.5508,1.7413,2.2411,0.4998,A
248,248,0.49814,1.2,1,0.41512,0.38191,0.6974,248,2.56543,0.14,0.06642,0.57286,5,2D1U,2.0,False,0.884,18,True,right,0.0,0.4166,0.9918,0.5752,1.6921,2.1918,0.4997,V
249,249,0.49814,0.1,2,0.43172,0.25737,0.88005,249,2.34126,-0.46,-0.23247,0.27398,5,1D2U,1.0,True,0.301,14,True,left,0.0,1.8136,2.0892,0.2756,0.4304,0.9296,0.4992,A
250,250,0.49814,1.2,1,0.41512,0.32379,0.86344,250,2.77298,0.34,0.16605,0.67249,5,3D1U,2.0,False,0.463,9,True,right,0.0,0.4163,1.092,0.6757,1.9585,2.4587,0.5002,A
251,251,0.49814,0.1,2,0.3653,0.20756,0.77212,251,2.09219,-0.5,-0.24907,0.24907,5,1D3U,1.0,True,0.415,7,False,left,0.0,1.6393,1.8894,0.2501,0.3642,0.8647,0.5005,V
252,252,0.49814,1.2,2,0.43172,0.26567,0.83854,252,2.62354,0.18,0.09133,0.58947,5,2D1U,2.0,True,0.53,18,False,right,0.0,1.7753,2.3674,0.592,0.4339,0.9337,0.4998,V
253,253,0.49814,0.1,2,0.38191,0.21586,0.67249,253,2.45749,0.38,0.19095,0.68909,5,3D1U,1.0,False,0.656,10,True,left,0.0,1.5552,2.2464,0.6912,0.3798,0.8807,0.5008,V
254,254,0.49814,1.2,1,0.28228,0.24077,0.6974,254,2.43259,0.42,0.20756,0.714,5,3D1U,2.0,False,0.509,10,False,right,0.0,0.2854,1.0022,0.7168,1.7023,2.2013,0.499,V
255,255,0.49814,0.1,2,0.33209,0.27398,0.81363,255,2.16691,-0.5,-0.24907,0.24907,5,1D3U,1.0,True,0.53,7,False,left,0.0,1.6479,1.8983,0.2504,0.3312,0.8312,0.5,V
256,256,0.49814,1.2,1,0.3487,0.27398,0.83854,256,2.24994,-0.42,-0.20756,0.29058,5,1D2U,1.0,False,0.798,14,False,left,0.0,0.3456,0.6371,0.2915,1.4791,1.9786,0.4995,V
257,257,0.49814,0.1,2,0.31549,0.31549,0.78042,257,2.49901,0.18,0.09133,0.58947,5,2D1U,2.0,True,0.249,18,False,right,0.0,1.6026,2.1936,0.591,0.3193,0.8185,0.4992,V
258,258,0.49814,1.2,2,0.28228,0.19926,0.83854,258,2.39108,0.14,0.06642,0.57286,5,2D1U,2.0,True,1.957,19,True,right,0.0,1.6227,2.1973,0.5746,0.2806,0.7802,0.4996,A
259,259,0.49814,0.1,2,0.29888,0.41512,0.80533,259,2.74808,0.46,0.23247,0.73061,5,3D1U,2.0,True,0.358,10,False,right,0.0,1.6091,2.3427,0.7336,0.3009,0.8002,0.4993,V
260,260,0.49814,1.2,1,0.43172,0.357,0.6974,260,2.23333,-0.5,-0.24907,0.24907,5,1D3U,2.0,True,0.363,7,False,right,0.0,0.429,0.6794,0.2504,1.3795,1.8796,0.5001,A
261,261,0.49814,0.1,1,0.3404,0.23247,0.54795,261,1.89294,-0.46,-0.23247,0.27398,5,1D2U,2.0,True,0.42,15,True,right,0.0,0.341,0.6168,0.2758,1.167,1.6674,0.5004,V
262,262,0.49814,1.2,2,0.3487,0.40681,0.54795,262,2.07558,-0.46,-0.23247,0.27398,5,1D3U,1.0,True,0.842,7,False,left,0.0,1.4012,1.6755,0.2744,0.3513,0.8508,0.4995,V
263,263,0.49814,0.1,1,0.41512,0.29888,0.47323,263,1.95935,-0.46,-0.23247,0.27398,5,1D2U,2.0,True,0.332,15,True,right,0.0,0.4147,0.6897,0.275,1.1645,1.6649,0.5005,V
264,264,0.49814,1.2,2,0.43172,0.43172,0.62268,264,2.27484,-0.42,-0.20756,0.29058,5,1D2U,1.0,True,0.234,16,True,left,0.0,1.56,1.852,0.292,0.4351,0.9356,0.5004,A
265,265,0.49814,0.1,1,0.44002,0.43172,0.73061,265,2.8311,0.46,0.23247,0.73061,5,3D1U,2.0,False,0.973,10,False,right,0.0,0.4451,1.1775,0.7323,1.9121,2.4117,0.4996,V
266,266,0.49814,1.2,1,0.3404,0.31549,0.54795,266,2.27484,0.14,0.06642,0.57286,5,2D1U,2.0,False,0.318,19,True,right,0.0,0.3396,0.9144,0.5748,1.4638,1.965,0.5012,V
267,267,0.49814,0.1,1,0.26567,0.44002,0.76382,267,2.24163,-0.46,-0.23247,0.27398,5,1D3U,2.0,True,0.266,7,False,right,0.0,0.2633,0.538,0.2747,1.3044,1.8049,0.5005,V
268,268,0.49814,1.2,2,0.28228,0.32379,0.73891,268,2.1171,-0.46,-0.23247,0.27398,5,1D3U,1.0,True,0.483,7,False,left,0.0,1.5269,1.8011,0.2742,0.2844,0.7843,0.4999,A
269,269,0.49814,0.1,2,0.39851,0.25737,0.46493,269,2.20842,0.18,0.09133,0.58947,5,2D1U,1.0,False,0.349,20,True,left,0.0,1.3633,1.9549,0.5916,0.3966,0.8969,0.5003,A
270,270,0.49814,1.2,2,0.39021,0.24907,0.45663,270,1.88463,-0.42,-0.20756,0.29058,5,1D2U,1.0,True,0.317,16,True,left,0.0,1.3536,1.6452,0.2916,0.3945,0.8954,0.5009,A
271,271,0.49814,0.1,1,0.29888,0.41512,0.88835,271,2.8477,0.5,0.24907,0.74721,5,3D1U,1.0,True,0.217,10,False,left,0.0,0.3006,1.0514,0.7508,1.9427,2.4433,0.5005,V
272,272,0.49814,1.2,2,0.3487,0.24907,0.58116,272,2.42428,0.5,0.24907,0.74721,5,3D1U,2.0,True,0.272,10,False,right,0.0,1.4355,2.1866,0.7511,0.3521,0.8522,0.5001,V
273,273,0.49814,0.1,2,0.33209,0.44833,0.66419,273,2.24994,-0.38,-0.19095,0.30719,5,1D2U,1.0,True,0.231,16,False,left,0.0,1.5,1.8084,0.3084,0.3328,0.8329,0.5001,A
274,274,0.49814,1.2,1,0.32379,0.19926,0.64758,274,1.95935,-0.42,-0.20756,0.29058,5,1D3U,2.0,True,0.466,7,False,right,0.0,0.3248,0.6175,0.2926,1.2666,1.7671,0.5004,A
275,275,0.49814,0.1,2,0.24907,0.41512,0.74721,275,2.51561,0.22,0.10793,0.60607,5,2D1U,2.0,True,0.333,20,False,right,0.0,1.4995,2.1081,0.6086,0.2485,0.7494,0.5009,V
276,276,0.49814,1.2,1,0.24907,0.24907,0.88835,276,2.63184,0.5,0.24907,0.74721,5,3D1U,1.0,True,1.507,10,False,left,0.0,0.2512,1.0025,0.7513,1.8936,2.3936,0.5,A
277,277,0.49814,0.1,2,0.30719,0.31549,0.63928,277,2.49071,0.46,0.23247,0.73061,5,3D1U,2.0,True,0.182,11,True,right,0.0,1.4531,2.1859,0.7328,0.3106,0.811,0.5004,V
278,278,0.49814,1.2,2,0.28228,0.25737,0.61437,278,1.95935,-0.38,-0.19095,0.30719,5,1D2U,2.0,False,0.784,16,False,right,0.0,1.4021,1.7096,0.3075,0.2846,0.7842,0.4996,V
279,279,0.49814,0.1,1,0.20756,0.22416,0.63098,279,1.85142,-0.42,-0.20756,0.29058,5,1D2U,2.0,True,1.039,17,True,right,0.0,0.2081,0.5003,0.2921,1.1336,1.6336,0.5,V
280,280,0.49814,1.2,2,0.44002,0.24907,0.63098,280,2.10879,-0.42,-0.20756,0.29058,5,1D3U,1.0,True,0.292,7,False,left,0.0,1.5774,1.8692,0.2918,0.4438,0.9443,0.5005,V
281,281,0.49814,0.1,2,0.37361,0.24077,0.56456,281,2.28315,0.22,0.10793,0.60607,5,2D1U,2.0,True,0.337,20,False,right,0.0,1.4434,2.0511,0.6077,0.3764,0.8763,0.4999,V
282,282,0.49814,1.2,2,0.39851,0.22416,0.51475,282,2.36617,0.46,0.23247,0.73061,5,3D1U,2.0,True,0.24,11,True,right,0.0,1.4129,2.146,0.733,0.3963,0.8964,0.5,V
283,283,0.49814,0.1,2,0.40681,0.31549,0.40681,283,1.91783,-0.42,-0.20756,0.29058,5,1D2U,1.0,True,0.37,17,True,left,0.0,1.3122,1.6038,0.2916,0.4035,0.903,0.4996,V
284,284,0.49814,1.2,1,0.33209,0.3404,0.44833,284,2.20843,0.18,0.09133,0.58947,5,2D1U,2.0,False,0.28,21,True,right,0.0,0.3306,0.9225,0.5919,1.3725,1.8726,0.5,V
285,285,0.49814,0.1,1,0.37361,0.3487,0.44002,285,2.26654,0.22,0.10793,0.60607,5,2D1U,1.0,True,0.354,22,True,left,0.0,0.3768,0.9845,0.6078,1.4262,1.9258,0.4996,A
286,286,0.49814,1.2,2,0.357,0.357,0.46493,286,1.96765,-0.42,-0.20756,0.29058,5,1D3U,1.0,True,2.058,7,False,left,0.0,1.321,1.6126,0.2916,0.3538,0.8532,0.4994,V
287,287,0.49814,0.1,1,0.41512,0.23247,0.68079,287,2.55713,0.46,0.23247,0.73061,5,3D1U,1.0,True,0.441,11,True,left,0.0,0.4198,1.1531,0.7333,1.8369,2.3362,0.4993,A
288,288,0.49814,1.2,2,0.28228,0.26567,0.41512,288,2.06728,0.22,0.10793,0.60607,5,2D1U,2.0,True,0.401,22,True,right,0.0,1.2019,1.8101,0.6082,0.2842,0.7846,0.5003,V
289,289,0.49814,0.1,2,0.24907,0.27398,0.7223,289,2.05068,-0.38,-0.19095,0.30719,5,1D2U,1.0,True,0.393,18,True,left,0.0,1.4731,1.7815,0.3084,0.2474,0.7483,0.5009,A
290,290,0.49814,1.2,1,0.39851,0.22416,0.49814,290,1.92614,-0.38,-0.19095,0.30719,5,1D2U,2.0,True,0.392,18,True,right,0.0,0.3999,0.7087,0.3088,1.2085,1.7086,0.5001,A
291,291,0.49814,0.1,2,0.3487,0.44002,0.75551,291,2.34956,-0.38,-0.19095,0.30719,5,1D3U,1.0,True,0.341,7,False,left,0.0,1.6079,1.9164,0.3085,0.3494,0.8493,0.5,V
292,292,0.49814,1.2,1,0.42342,0.27398,0.44002,292,1.96765,-0.34,-0.16605,0.33209,5,1D2U,1.0,False,0.584,18,False,left,0.0,0.423,0.7555,0.3326,1.1979,1.6973,0.4994,A
293,293,0.49814,0.1,1,0.38191,0.43172,0.77212,293,2.39108,-0.38,-0.19095,0.30719,5,1D2U,1.0,False,0.3,19,True,left,0.0,0.381,0.6886,0.3076,1.4644,1.9639,0.4995,A
294,294,0.49814,1.2,1,0.38191,0.32379,0.89665,294,2.68996,0.18,0.09133,0.58947,5,2D1U,2.0,False,0.916,23,True,right,0.0,0.3805,0.9722,0.5917,1.8721,2.3719,0.4998,A
295,295,0.49814,0.1,1,0.39851,0.19926,0.78872,295,2.59863,0.42,0.20756,0.714,5,3D1U,1.0,True,0.526,11,False,left,0.0,0.3964,1.1131,0.7167,1.9051,2.4051,0.5,A
296,296,0.49814,1.2,1,0.41512,0.20756,0.52305,296,1.95106,-0.38,-0.19095,0.30719,5,1D3U,2.0,True,0.858,7,False,right,0.0,0.4174,0.7262,0.3087,1.251,1.7511,0.5001,A
297,297,0.49814,0.1,1,0.37361,0.24907,0.78042,297,2.20843,-0.38,-0.19095,0.30719,5,1D3U,2.0,True,0.316,7,False,right,0.0,0.3722,0.6812,0.309,1.464,1.9648,0.5008,A
298,298,0.49814,1.2,1,0.44833,0.29058,0.41512,298,1.98426,-0.34,-0.16605,0.33209,5,1D3U,2.0,True,0.765,7,False,right,0.0,0.4531,0.7861,0.333,1.2031,1.7032,0.5001,A
299,299,0.49814,0.1,1,0.39021,0.24907,0.75551,299,2.18351,-0.42,-0.20756,0.29058,5,1D2U,2.0,True,0.379,19,False,right,0.0,0.3931,0.6847,0.2917,1.4433,1.943,0.4997,A
300,300,0.49814,1.2,1,0.3404,0.29888,0.83854,300,2.26654,-0.42,-0.20756,0.29058,5,1D2U,2.0,True,0.655,19,False,right,0.0,0.3399,0.6322,0.2923,1.4733,1.9733,0.5,A
301,301,0.49814,0.1,1,0.39021,0.26567,0.714,301,2.58202,0.42,0.20756,0.714,5,3D1U,1.0,True,0.274,11,False,left,0.0,0.3883,1.1055,0.7172,1.8217,2.3224,0.5007,A
302,302,0.49814,1.2,2,0.33209,0.44833,0.88835,302,2.499,-0.34,-0.16605,0.33209,5,1D3U,1.0,True,0.968,7,False,left,0.0,1.7245,2.0594,0.3349,0.3334,0.833,0.4996,V
303,303,0.49814,0.1,1,0.3404,0.39851,0.85514,303,2.42428,-0.34,-0.16605,0.33209,5,1D3U,2.0,True,0.261,7,False,right,0.0,0.3383,0.672,0.3337,1.5299,2.0291,0.4992,V
304,304,0.49814,1.2,2,0.41512,0.30719,0.67249,304,2.24164,-0.3,-0.14944,0.3487,5,1D3U,1.0,True,1.093,7,False,left,0.0,1.5946,1.9443,0.3497,0.4194,0.9196,0.5002,V
305,305,0.49814,0.1,1,0.3653,0.21586,0.47323,305,2.26653,0.42,0.20756,0.714,5,3D1U,1.0,True,0.274,11,False,left,0.0,0.3641,1.0811,0.717,1.5555,2.0557,0.5002,A
306,306,0.49814,1.2,1,0.33209,0.42342,0.42342,306,2.02577,-0.3,-0.14944,0.3487,5,1D3U,2.0,True,0.223,7,False,right,0.0,0.3314,0.6816,0.3502,1.107,1.6066,0.4996,V
307,307,0.49814,0.1,1,0.22416,0.39851,0.53135,307,2.00086,-0.3,-0.14944,0.3487,5,1D3U,1.0,False,0.184,7,False,left,0.0,0.2243,0.5751,0.3508,1.1081,1.6084,0.5003,A
