,standardDur,audNoise,order,preDur,postDur,isiDur,trial_num,totalDur,delta_dur_percents,deltaDurS,testDurS,intensities,current_stair,responses,is_correct,response_rts,stair_num_reversal,stair_is_reversal,response_keys,conflictDur,recordedOnsetVisualTest,recordedOffsetVisualTest,recordedDurVisualTest,recordedOnsetVisualStandard,recordedOffsetVisualStandard,recordedDurVisualStandard,modalityCue,VisualPSE
0,0.49799,1.2,1,0.33199,0.249,0.63909,0,1.76787,-0.9,-0.44819,0.0498,5,1D2U,2.0,True,0.596,0,False,right,0.083,0.2028,0.528,0.3252,0.9943,999,998.0057,A,0.27
1,0.49799,0.1,2,0.32369,0.42329,0.48139,1,1.77616,-0.9,-0.44819,0.0498,5,lapse_rate,1.0,True,0.365,0,False,left,-0.249,1.1868,1.4617,0.2749,0.3111,0.8369,0.5258,A,0.275
2,0.49799,0.1,2,0.38179,0.249,0.70549,2,2.78045,0.9,0.44819,0.94618,5,lapse_rate,1.0,False,0.359,0,False,left,0.083,1.6449,1.9199,0.275,0.2116,1.0701,0.8584,A,0.275
3,0.49799,1.2,1,0.2739,0.36519,0.73869,3,1.92557,-0.9,-0.44819,0.0498,5,2D1U,2.0,True,0.444,0,False,right,-0.249,0.1389,0.4641,0.3252,1.1977,1.7223,0.5246,A,0.27
4,0.49799,0.1,1,0.2407,0.39009,0.82999,4,2.00857,-0.9,-0.44819,0.0498,5,1D2U,2.0,True,0.233,0,False,right,0.083,0.1065,0.4319,0.3253,1.0895,1.9485,0.859,A,0.275
5,0.49799,0.1,1,0.35689,0.34029,0.66399,5,1.99196,-0.74,-0.37349,0.1328,5,2D1U,1.0,False,0.558,0,False,left,-0.249,0.2248,0.6332,0.4084,1.2913,1.8157,0.5244,A,0.275
6,0.49799,1.2,1,0.30709,0.44819,0.64739,6,2.03346,-0.74,-0.37349,0.1328,5,1D2U,2.0,True,0.306,0,False,right,0.083,0.1708,0.5792,0.4084,1.0544,1.913,0.8586,A,0.27
7,0.49799,0.1,2,0.29879,0.2075,0.49799,7,1.55207,-0.9,-0.44819,0.0498,5,lapse_rate,1.0,True,0.539,0,False,left,-0.249,1.1867,1.4616,0.275,0.295,0.8199,0.5249,A,0.275
8,0.49799,1.2,2,0.36519,0.34029,0.69719,8,2.03346,-0.74,-0.37349,0.1328,5,2D1U,1.0,True,0.421,0,False,left,0.083,1.6191,1.8941,0.2751,0.1942,1.0525,0.8584,A,0.27
9,0.49799,0.1,2,0.34029,0.2158,0.61419,9,1.71807,-0.9,-0.44819,0.0498,5,lapse_rate,1.0,True,0.451,0,False,left,-0.249,1.3402,1.6148,0.2746,0.3317,0.8559,0.5242,A,0.275
10,0.49799,0.1,2,0.36519,0.37349,0.49799,10,1.86746,-0.74,-0.37349,0.1328,5,1D2U,1.0,True,0.304,0,False,left,0.083,1.4145,1.6896,0.2751,0.1904,1.0486,0.8582,A,0.275
11,0.49799,0.1,2,0.2075,0.43989,0.43159,11,1.78447,-0.58,-0.2905,0.2075,5,1D2U,1.0,True,0.204,0,False,left,-0.249,1.0221,1.297,0.2749,0.197,0.7219,0.525,A,0.275
12,0.49799,0.1,2,0.2324,0.42329,0.74699,12,2.84685,0.9,0.44819,0.94618,5,lapse_rate,2.0,True,0.346,0,False,right,0.083,1.53,1.8045,0.2745,0.054,0.9128,0.8589,A,0.275
13,0.49799,1.2,1,0.249,0.40669,0.50629,13,1.86747,-0.58,-0.2905,0.2075,5,2D1U,1.0,False,0.406,0,False,left,-0.249,0.1162,0.599,0.4828,1.0985,1.6244,0.5259,A,0.27
14,0.49799,1.2,2,0.2905,0.43159,0.86319,14,2.29077,-0.58,-0.2905,0.2075,5,1D2U,2.0,False,0.463,0,False,right,0.083,1.711,1.9867,0.2757,0.1201,0.9787,0.8586,A,0.27
15,0.49799,1.2,2,0.2075,0.38179,0.53949,15,2.57295,0.9,0.44819,0.94618,5,lapse_rate,2.0,True,0.377,0,False,right,-0.249,1.1359,1.4107,0.2748,0.2028,0.7276,0.5248,A,0.27
16,0.49799,0.1,2,0.2324,0.38179,0.73869,16,2.05837,-0.58,-0.2905,0.2075,5,2D1U,1.0,True,0.376,0,False,left,0.083,1.5225,1.7975,0.275,0.0553,0.9145,0.8592,A,0.275
17,0.49799,0.1,2,0.2407,0.31539,0.68889,17,2.03347,-0.42,-0.2075,0.2905,5,2D1U,1.0,True,0.377,0,False,left,-0.249,1.3165,1.5914,0.2749,0.2336,0.7591,0.5255,A,0.275
18,0.49799,1.2,2,0.34029,0.39839,0.87149,18,2.15796,-0.9,-0.44819,0.0498,5,lapse_rate,1.0,True,0.503,0,False,left,0.083,1.7628,2.0388,0.2759,0.1634,1.0219,0.8585,A,0.27
19,0.49799,1.2,1,0.36519,0.34859,0.43159,19,1.80936,-0.66,-0.33199,0.166,5,1D2U,1.0,False,0.509,1,True,left,-0.249,0.2308,0.6725,0.4416,1.0973,1.6224,0.5251,A,0.27
20,0.49799,1.2,2,0.36519,0.2739,0.81339,20,2.08327,-0.74,-0.37349,0.1328,5,1D2U,1.0,True,1.324,1,False,left,0.083,1.7319,2.007,0.2751,0.1896,1.0488,0.8592,A,0.27
21,0.49799,0.1,1,0.40669,0.2739,0.73869,21,2.29076,-0.26,-0.1328,0.37349,5,2D1U,2.0,True,0.531,0,False,right,-0.249,0.2711,0.9204,0.6493,1.6551,2.1789,0.5238,A,0.275
22,0.49799,0.1,2,0.40669,0.39839,0.46479,22,2.71404,0.9,0.44819,0.94618,5,lapse_rate,2.0,True,0.225,0,False,right,0.083,1.4268,1.7012,0.2743,0.234,1.0921,0.8581,A,0.275
23,0.49799,0.1,1,0.39839,0.34029,0.43159,23,2.11645,-0.1,-0.0498,0.44819,5,2D1U,2.0,True,0.423,0,False,right,-0.249,0.267,0.9917,0.7247,1.4168,1.9416,0.5248,A,0.275
24,0.49799,1.2,2,0.29879,0.35689,0.51459,24,1.80106,-0.74,-0.37349,0.1328,5,1D2U,1.0,True,0.355,1,False,left,0.083,1.3632,1.6394,0.2762,0.1219,0.9808,0.859,A,0.27
25,0.49799,0.1,1,0.41499,0.34029,0.48139,25,1.78446,-0.9,-0.44819,0.0498,5,lapse_rate,2.0,True,0.292,0,False,right,-0.249,0.2816,0.6065,0.3249,1.0809,1.6063,0.5254,A,0.275
26,0.49799,1.2,2,0.36519,0.43989,0.43159,26,2.26585,0.06,0.0332,0.53119,5,2D1U,1.0,False,0.331,0,False,left,0.083,1.3466,1.6227,0.2761,0.1884,1.0472,0.8588,A,0.27
27,0.49799,0.1,2,0.41499,0.2905,0.48969,27,2.63935,0.9,0.44819,0.94618,5,lapse_rate,2.0,True,0.342,0,False,right,-0.249,1.2897,1.5647,0.275,0.4064,0.9315,0.5251,A,0.275
28,0.49799,0.1,1,0.2407,0.41499,0.65569,28,1.95877,-0.7,-0.34859,0.1494,5,1D2U,2.0,True,0.198,2,True,right,0.083,0.1058,0.5303,0.4245,1.0135,1.8724,0.8588,A,0.275
29,0.49799,0.1,1,0.2656,0.2905,0.87149,29,2.07498,-0.7,-0.34859,0.1494,5,1D2U,2.0,True,0.642,2,True,right,-0.249,0.1341,0.5585,0.4245,1.4256,1.9508,0.5252,A,0.275
30,0.49799,1.2,2,0.2905,0.43989,0.78019,30,2.05837,-0.9,-0.44819,0.0498,5,lapse_rate,1.0,True,0.409,0,False,left,0.083,1.625,1.9,0.275,0.1168,0.9744,0.8577,A,0.27
31,0.49799,1.2,1,0.1992,0.39839,0.69719,31,2.39866,0.22,0.1079,0.60589,5,2D1U,2.0,False,1.081,0,False,right,-0.249,0.0669,0.9498,0.8829,1.6423,2.1672,0.5249,A,0.27
32,0.49799,1.2,1,0.39839,0.33199,0.53119,32,1.92556,-0.66,-0.33199,0.166,5,1D2U,2.0,True,0.342,2,False,right,0.083,0.266,0.7062,0.4402,1.0649,1.9227,0.8578,A,0.27
33,0.49799,0.1,2,0.2822,0.38179,0.42329,33,1.63507,-0.9,-0.44819,0.0498,5,lapse_rate,1.0,True,0.38,0,False,left,-0.249,1.0931,1.3692,0.2761,0.2761,0.8009,0.5248,A,0.275
34,0.49799,0.1,2,0.31539,0.29879,0.68889,34,2.48995,0.38,0.1909,0.68889,5,2D1U,1.0,False,0.4,0,False,left,0.083,1.5608,1.8363,0.2756,0.1444,1.0024,0.858,A,0.275
35,0.49799,0.1,1,0.36519,0.43989,0.41499,35,2.48995,0.54,0.2739,0.77189,5,2D1U,1.0,True,0.285,0,False,left,-0.249,0.2367,1.2869,1.0502,1.6943,2.2205,0.5262,A,0.275
36,0.49799,1.2,2,0.29879,0.33199,0.52289,36,2.59784,0.9,0.44819,0.94618,5,lapse_rate,2.0,True,0.264,0,False,right,0.083,1.3739,1.6482,0.2743,0.1229,0.9813,0.8584,A,0.27
37,0.49799,1.2,2,0.39009,0.2822,0.77189,37,2.10817,-0.66,-0.33199,0.166,5,1D2U,1.0,True,0.358,2,False,left,-0.249,1.5524,1.8279,0.2755,0.3864,0.9113,0.5249,A,0.27
38,0.49799,1.2,2,0.40669,0.1992,0.56439,38,2.61445,0.9,0.44819,0.94618,5,lapse_rate,2.0,True,0.297,0,False,right,0.083,1.5231,1.7973,0.2742,0.2309,1.0896,0.8587,A,0.27
39,0.49799,1.2,2,0.43159,0.43159,0.42329,39,1.97536,-0.62,-0.30709,0.1909,5,1D2U,1.0,True,0.517,2,False,left,-0.249,1.2427,1.5177,0.2751,0.4264,0.9517,0.5252,A,0.27
40,0.49799,0.1,1,0.30709,0.44819,0.63909,40,2.66425,0.54,0.2739,0.77189,5,2D1U,1.0,True,0.285,0,False,left,0.083,0.1714,1.2207,1.0493,1.6881,2.5463,0.8582,A,0.275
41,0.49799,0.1,1,0.42329,0.36519,0.72209,41,2.19946,-0.62,-0.30709,0.1909,5,1D2U,2.0,True,0.484,2,False,right,-0.249,0.2901,0.7573,0.4672,1.4734,2.0,0.5266,A,0.275
42,0.49799,1.2,1,0.249,0.42329,0.63909,42,2.53976,0.46,0.2324,0.73039,5,2D1U,2.0,False,0.459,1,True,right,0.083,0.1155,1.1236,1.0081,1.5906,2.4479,0.8573,A,0.27
43,0.49799,0.1,2,0.33199,0.42329,0.63909,43,1.94216,-0.9,-0.44819,0.0498,5,lapse_rate,1.0,True,0.4,0,False,left,-0.249,1.3603,1.6345,0.2742,0.3265,0.8518,0.5253,A,0.275
44,0.49799,1.2,1,0.31539,0.38179,0.48139,44,2.42355,0.5,0.249,0.74699,5,2D1U,2.0,False,0.689,2,True,right,0.083,0.1841,1.2092,1.025,1.5178,2.3754,0.8576,A,0.27
45,0.49799,1.2,1,0.37349,0.1992,0.51459,45,2.53145,0.9,0.44819,0.94618,5,lapse_rate,1.0,True,0.393,0,False,left,-0.249,0.2399,1.4639,1.224,1.973,2.4976,0.5246,A,0.27
46,0.49799,0.1,2,0.34859,0.249,0.60589,46,1.90897,-0.58,-0.2905,0.2075,5,1D2U,1.0,True,0.48,2,False,left,0.083,1.5044,1.779,0.2745,0.1707,1.0286,0.8579,A,0.275
47,0.49799,0.1,2,0.2241,0.2407,0.87979,47,2.61447,0.54,0.2739,0.77189,5,2D1U,1.0,False,0.287,2,False,left,-0.249,1.4864,1.7615,0.2751,0.2111,0.7367,0.5256,A,0.275
48,0.49799,1.2,2,0.29879,0.2158,0.83829,48,2.79705,0.9,0.44819,0.94618,5,lapse_rate,2.0,True,0.532,0,False,right,0.083,1.6928,1.9672,0.2744,0.1264,0.9841,0.8576,A,0.27
49,0.49799,1.2,2,0.40669,0.2407,0.73039,49,2.08327,-0.58,-0.2905,0.2075,5,1D2U,1.0,True,0.365,2,False,left,-0.249,1.527,1.8023,0.2753,0.4017,0.9271,0.5254,A,0.27
50,0.49799,1.2,1,0.43159,0.33199,0.82999,50,2.32396,-0.54,-0.2739,0.2324,5,1D2U,2.0,True,0.357,2,False,right,0.083,0.3025,0.8114,0.509,1.4701,2.3276,0.8575,A,0.27
51,0.49799,1.2,1,0.2075,0.33199,0.87149,51,1.95877,-0.9,-0.44819,0.0498,5,lapse_rate,2.0,True,0.256,0,False,right,-0.249,0.072,0.3969,0.3249,1.2647,1.7895,0.5248,A,0.27
52,0.49799,0.1,1,0.2241,0.2241,0.73869,52,2.47337,0.58,0.2905,0.78849,5,2D1U,2.0,False,0.414,2,False,right,0.083,0.0896,1.1564,1.0668,1.7236,999,997.2764,A,0.275
53,0.49799,0.1,1,0.2241,0.38179,0.55609,53,2.47336,0.62,0.30709,0.81339,5,2D1U,1.0,True,0.357,2,False,left,-0.249,0.0945,1.1864,1.0919,1.7352,2.2605,0.5253,A,0.275
54,0.49799,1.2,1,0.2241,0.2905,0.51459,54,1.75958,-0.54,-0.2739,0.2324,5,1D2U,2.0,True,0.466,2,False,right,0.083,0.0879,0.5966,0.5088,0.9383,999,998.0617,A,0.27
55,0.49799,1.2,2,0.2075,0.34029,0.63079,55,2.62275,0.9,0.44819,0.94618,5,lapse_rate,2.0,True,0.334,0,False,right,-0.249,1.2282,1.5031,0.2749,0.2025,0.7281,0.5256,A,0.27
56,0.49799,1.2,1,0.29879,0.2656,0.57269,56,2.44846,0.62,0.30709,0.81339,5,2D1U,2.0,False,0.75,2,False,right,0.083,0.1635,1.2551,1.0915,1.6552,999,997.3448,A,0.27
57,0.49799,0.1,2,0.29879,0.29879,0.65569,57,2.00026,-0.5,-0.249,0.249,5,1D2U,1.0,True,0.265,2,False,left,-0.249,1.3416,1.6172,0.2756,0.2915,0.8169,0.5254,A,0.275
58,0.49799,0.1,1,0.29879,0.29879,0.46479,58,2.50654,0.9,0.44819,0.94618,5,lapse_rate,1.0,True,0.311,0,False,left,0.083,0.1642,1.3888,1.2246,1.6802,999,997.3198,A,0.275
59,0.49799,0.1,1,0.30709,0.43159,0.82999,59,2.89665,0.66,0.33199,0.82999,5,2D1U,1.0,True,0.297,2,False,left,-0.249,0.1737,1.2819,1.1082,2.107,2.6316,0.5246,A,0.275
60,0.49799,1.2,2,0.2075,0.29879,0.67229,60,2.62275,0.9,0.44819,0.94618,5,lapse_rate,1.0,False,1.198,0,False,left,0.083,1.4306,1.7056,0.275,0.0303,0.8889,0.8587,A,0.27
61,0.49799,1.2,2,0.29879,0.42329,0.42329,61,1.89236,-0.5,-0.249,0.249,5,1D2U,1.0,True,0.4,2,False,left,-0.249,1.1107,1.3856,0.2749,0.2945,0.8199,0.5253,A,0.27
62,0.49799,1.2,1,0.29879,0.40669,0.44819,62,2.48165,0.66,0.33199,0.82999,5,2D1U,2.0,False,0.275,2,False,right,0.083,0.1643,1.2737,1.1095,1.549,2.4062,0.8573,A,0.27
63,0.49799,1.2,1,0.37349,0.31539,0.50629,63,1.74296,-0.9,-0.44819,0.0498,5,lapse_rate,2.0,True,0.333,0,False,right,-0.249,0.2441,0.5688,0.3247,1.0698,1.5947,0.5249,A,0.27
64,0.49799,0.1,2,0.2822,0.249,0.82999,64,2.13308,-0.46,-0.2324,0.2739,5,1D2U,1.0,True,0.376,2,False,left,0.083,1.6704,1.9456,0.2752,0.1112,0.9713,0.8601,A,0.275
65,0.49799,1.2,1,0.29879,0.41499,0.57269,65,1.83426,-0.9,-0.44819,0.0498,5,lapse_rate,2.0,True,0.317,0,False,right,-0.249,0.1663,0.4913,0.325,1.0578,1.5831,0.5253,A,0.27
66,0.49799,0.1,2,0.43989,0.31539,0.41499,66,1.94216,-0.46,-0.2324,0.2739,5,1D2U,1.0,True,0.304,2,False,left,0.083,1.4073,1.6817,0.2744,0.2654,1.1234,0.858,A,0.275
67,0.49799,1.2,2,0.39009,0.38179,0.66399,67,2.78045,0.7,0.34859,0.84659,5,2D1U,1.0,False,0.213,2,False,left,-0.249,1.4392,1.7149,0.2756,0.3808,0.9057,0.5249,A,0.27
68,0.49799,1.2,1,0.2407,0.43159,0.42329,68,1.64337,-0.9,-0.44819,0.0498,5,lapse_rate,2.0,True,0.29,0,False,right,0.083,0.1071,0.4327,0.3256,0.6818,1.5401,0.8583,A,0.27
69,0.49799,1.2,1,0.2822,0.2573,0.78019,69,2.10818,-0.42,-0.2075,0.2905,5,1D2U,1.0,False,0.376,2,False,left,-0.249,0.1513,0.7188,0.5675,1.4939,2.0186,0.5247,A,0.27
70,0.49799,0.1,2,0.33199,0.33199,0.59759,70,2.63105,0.74,0.37349,0.87149,5,2D1U,1.0,False,0.608,2,False,left,0.083,1.4801,1.7546,0.2745,0.1554,1.0139,0.8585,A,0.275
71,0.49799,0.1,1,0.2407,0.35689,0.78019,71,2.14967,-0.46,-0.2324,0.2739,5,1D2U,2.0,True,0.291,3,True,right,-0.249,0.1096,0.6601,0.5505,1.4343,1.9592,0.5249,A,0.275
72,0.49799,1.2,2,0.2905,0.2739,0.50629,72,2.51486,0.9,0.44819,0.94618,5,lapse_rate,2.0,True,0.296,0,False,right,0.083,1.3484,1.6232,0.2748,0.1155,0.9739,0.8584,A,0.27
73,0.49799,1.2,2,0.249,0.40669,0.73869,73,2.78046,0.78,0.39009,0.88809,5,2D1U,2.0,True,0.281,2,False,right,-0.249,1.376,1.6504,0.2744,0.2418,0.7669,0.5251,A,0.27
74,0.49799,1.2,2,0.2075,0.2324,0.53119,74,2.35717,0.78,0.39009,0.88809,5,2D1U,2.0,True,0.442,2,False,right,0.083,1.2898,1.5653,0.2755,0.0314,0.8905,0.8591,A,0.27
75,0.49799,0.1,1,0.43159,0.249,0.43989,75,1.89237,-0.46,-0.2324,0.2739,5,1D2U,2.0,True,0.626,3,True,right,-0.249,0.2979,0.8475,0.5496,1.2811,1.8061,0.5249,A,0.275
76,0.49799,0.1,2,0.2573,0.2158,0.79679,76,2.71406,0.9,0.44819,0.94618,5,lapse_rate,2.0,True,0.299,0,False,right,0.083,1.6039,1.8784,0.2746,0.079,0.9373,0.8583,A,0.275
77,0.49799,1.2,1,0.2158,0.2407,0.59759,77,2.49826,0.9,0.44819,0.94618,5,lapse_rate,1.0,True,0.4,0,False,left,-0.249,0.0821,1.3066,1.2245,1.898,2.4232,0.5252,A,0.27
78,0.49799,0.1,2,0.39839,0.2241,0.53119,78,2.52316,0.74,0.37349,0.87149,5,2D1U,2.0,True,0.329,3,True,right,0.083,1.4805,1.7559,0.2754,0.2228,1.0806,0.8579,A,0.275
79,0.49799,1.2,2,0.30709,0.38179,0.53119,79,2.00856,-0.42,-0.2075,0.2905,5,1D2U,1.0,True,0.933,4,True,left,-0.249,1.2231,1.4979,0.2747,0.2985,0.8226,0.5241,A,0.27
80,0.49799,1.2,2,0.34029,0.44819,0.64739,80,2.22436,-0.42,-0.2075,0.2905,5,1D2U,1.0,True,0.279,4,True,left,0.083,1.5383,1.8126,0.2743,0.1634,1.0213,0.8578,A,0.27
81,0.49799,0.1,2,0.2656,0.2158,0.75529,81,2.60617,0.74,0.37349,0.87149,5,2D1U,2.0,True,0.616,3,True,right,-0.249,1.4083,1.6835,0.2752,0.2589,0.7829,0.524,A,0.275
82,0.49799,1.2,2,0.39839,0.42329,0.43159,82,2.69744,0.9,0.44819,0.94618,5,lapse_rate,1.0,False,0.291,0,False,left,0.083,1.3786,1.6544,0.2758,0.2205,1.0787,0.8582,A,0.27
83,0.49799,0.1,2,0.39839,0.2407,0.41499,83,1.85916,-0.38,-0.1909,0.30709,5,1D2U,1.0,True,0.317,4,False,left,-0.249,1.2022,1.4778,0.2756,0.3941,0.9195,0.5254,A,0.275
84,0.49799,0.1,2,0.30709,0.38179,0.68059,84,2.81364,0.9,0.44819,0.94618,5,lapse_rate,2.0,True,0.272,0,False,right,0.083,1.5395,1.8134,0.2739,0.1314,0.9891,0.8577,A,0.275
85,0.49799,1.2,1,0.2822,0.2241,0.74699,85,2.59787,0.7,0.34859,0.84659,5,2D1U,2.0,False,0.317,3,False,right,-0.249,0.1469,1.2731,1.1262,2.0138,2.5385,0.5248,A,0.27
86,0.49799,0.1,2,0.2822,0.2905,0.56439,86,2.58126,0.9,0.44819,0.94618,5,lapse_rate,2.0,True,0.25,0,False,right,0.083,1.4018,1.6758,0.274,0.11,0.9674,0.8574,A,0.275
87,0.49799,1.2,1,0.36519,0.31539,0.52289,87,2.57295,0.74,0.37349,0.87149,5,2D1U,1.0,True,0.31,4,True,left,-0.249,0.2319,1.3812,1.1493,1.8986,2.4235,0.5249,A,0.27
88,0.49799,0.1,2,0.41499,0.249,0.65569,88,2.12476,-0.38,-0.1909,0.30709,5,1D2U,1.0,True,0.371,4,False,left,0.083,1.6231,1.8973,0.2743,0.239,1.098,0.8591,A,0.275
89,0.49799,0.1,1,0.29879,0.31539,0.66399,89,2.64765,0.74,0.37349,0.87149,5,2D1U,1.0,True,0.268,4,True,left,-0.249,0.1646,1.3152,1.1506,1.9728,2.498,0.5252,A,0.275
90,0.49799,0.1,2,0.41499,0.34029,0.81339,90,2.11646,-0.9,-0.44819,0.0498,5,lapse_rate,1.0,True,0.35,0,False,left,0.083,1.787,2.062,0.275,0.2443,1.1032,0.8588,A,0.275
91,0.49799,1.2,1,0.2573,0.39009,0.58099,91,2.05836,-0.34,-0.166,0.33199,5,1D2U,2.0,True,0.265,4,False,right,-0.249,0.1226,0.7307,0.6081,1.3057,1.8308,0.5251,A,0.27
92,0.49799,1.2,2,0.2822,0.39839,0.73039,92,2.24096,-0.34,-0.166,0.33199,5,1D2U,1.0,True,0.207,4,False,left,0.083,1.5669,1.8411,0.2742,0.1078,0.9667,0.8589,A,0.27
93,0.49799,0.1,2,0.32369,0.39009,0.41499,93,2.47335,0.7,0.34859,0.84659,5,2D1U,2.0,True,0.146,5,True,right,-0.249,1.1216,1.3971,0.2756,0.313,0.8385,0.5255,A,0.275
94,0.49799,0.1,1,0.43159,0.42329,0.81339,94,3.11244,0.9,0.44819,0.94618,5,lapse_rate,1.0,True,0.155,0,False,left,0.083,0.2986,1.5244,1.2258,2.1652,3.0237,0.8585,A,0.275
95,0.49799,0.1,1,0.2407,0.30709,0.74699,95,2.63936,0.7,0.34859,0.84659,5,2D1U,1.0,True,0.203,5,True,left,-0.249,0.106,1.2303,1.1243,1.9735,2.4969,0.5234,A,0.275
96,0.49799,1.2,1,0.33199,0.2407,0.61419,96,2.63105,0.9,0.44819,0.94618,5,lapse_rate,1.0,True,0.917,0,False,left,0.083,0.1978,1.4227,1.2248,1.8637,999,997.1363,A,0.27
97,0.49799,1.2,1,0.36519,0.39839,0.84659,97,2.45675,-0.3,-0.1494,0.34859,5,1D2U,2.0,True,0.284,4,False,right,-0.249,0.2336,0.8587,0.6251,1.7017,2.2252,0.5236,A,0.27
98,0.49799,1.2,2,0.42329,0.44819,0.80509,98,3.00455,0.66,0.33199,0.82999,5,2D1U,2.0,True,0.249,5,False,right,0.083,1.7838,2.059,0.2751,0.2501,1.109,0.8589,A,0.27
99,0.49799,0.1,1,0.42329,0.2656,0.83829,99,2.07497,-0.9,-0.44819,0.0498,5,lapse_rate,2.0,True,0.325,0,False,right,-0.249,0.2903,0.6143,0.324,1.4476,1.9734,0.5258,A,0.275
100,0.49799,0.1,2,0.2241,0.39009,0.63079,100,2.09156,-0.3,-0.1494,0.34859,5,1D2U,2.0,False,0.718,4,False,right,0.083,1.41,1.6857,0.2757,0.0525,0.9099,0.8574,A,0.275
101,0.49799,1.2,1,0.2324,0.43989,0.50629,101,1.72637,-0.9,-0.44819,0.0498,5,lapse_rate,2.0,True,0.304,0,False,right,-0.249,0.0975,0.423,0.3255,0.9224,1.4478,0.5254,A,0.27
102,0.49799,0.1,1,0.2324,0.43159,0.79679,102,2.29076,-0.34,-0.166,0.33199,5,1D2U,2.0,True,0.409,5,True,right,0.083,0.0993,0.7077,0.6084,1.3323,2.191,0.8587,A,0.275
103,0.49799,1.2,1,0.39009,0.41499,0.58099,103,2.71405,0.66,0.33199,0.82999,5,2D1U,1.0,True,0.265,5,False,left,-0.249,0.2536,1.3626,1.1089,1.9375,2.4618,0.5243,A,0.27
104,0.49799,0.1,2,0.2822,0.44819,0.53119,104,1.80937,-0.9,-0.44819,0.0498,5,lapse_rate,1.0,True,0.342,0,False,left,0.083,1.3663,1.6417,0.2754,0.1075,0.9667,0.8592,A,0.275
105,0.49799,1.2,1,0.39839,0.36519,0.63079,105,2.70575,0.62,0.30709,0.81339,5,2D1U,1.0,True,0.334,5,False,left,-0.249,0.2702,1.3618,1.0916,1.9866,2.512,0.5254,A,0.27
106,0.49799,0.1,2,0.31539,0.35689,0.58099,106,2.08325,-0.34,-0.166,0.33199,5,1D2U,1.0,True,0.891,5,True,left,0.083,1.4521,1.727,0.2748,0.1443,1.0015,0.8571,A,0.275
107,0.49799,0.1,2,0.41499,0.43989,0.72209,107,3.02114,0.9,0.44819,0.94618,5,lapse_rate,2.0,True,0.25,0,False,right,-0.249,1.5269,1.8016,0.2748,0.41,0.935,0.5249,A,0.275
108,0.49799,0.1,1,0.30709,0.2407,0.54779,108,2.40696,0.62,0.30709,0.81339,5,2D1U,1.0,True,1.155,5,False,left,0.083,0.1772,1.269,1.0918,1.6435,999,997.3565,A,0.275
109,0.49799,1.2,2,0.43159,0.2573,0.50629,109,2.04176,-0.3,-0.1494,0.34859,5,1D2U,1.0,True,0.3,6,True,left,-0.249,1.3251,1.6006,0.2755,0.4258,0.9508,0.525,A,0.27
110,0.49799,1.2,1,0.2573,0.35689,0.56439,110,2.02516,-0.3,-0.1494,0.34859,5,1D2U,2.0,True,0.282,6,True,right,0.083,0.1242,0.7495,0.6254,1.1401,1.9992,0.859,A,0.27
111,0.49799,0.1,2,0.40669,0.2656,0.70549,111,2.66426,0.58,0.2905,0.78849,5,2D1U,2.0,True,0.276,5,False,right,-0.249,1.4967,1.7723,0.2756,0.3971,0.9226,0.5255,A,0.275
112,0.49799,0.1,1,0.2739,0.2656,0.74699,112,1.83428,-0.9,-0.44819,0.0498,5,lapse_rate,2.0,True,0.243,0,False,right,0.083,0.1402,0.4655,0.3253,1.0406,999,997.9594,A,0.275
113,0.49799,0.1,1,0.41499,0.2075,0.65569,113,2.56466,0.58,0.2905,0.78849,5,2D1U,1.0,True,0.275,5,False,left,-0.249,0.2864,1.352,1.0657,2.0037,2.5281,0.5244,A,0.275
114,0.49799,0.1,2,0.2822,0.2158,0.48139,114,1.52718,-0.9,-0.44819,0.0498,5,lapse_rate,1.0,True,0.523,0,False,left,0.083,1.3188,999,997.6812,0.1099,0.9681,0.8583,A,0.275
115,0.49799,1.2,2,0.42329,0.2407,0.72209,115,2.25756,-0.26,-0.1328,0.37349,5,1D2U,1.0,True,0.446,6,False,left,-0.249,1.5313,1.8067,0.2754,0.4147,0.9403,0.5256,A,0.27
116,0.49799,1.2,2,0.2656,0.35689,0.59759,116,2.66425,0.9,0.44819,0.94618,5,lapse_rate,2.0,True,0.263,0,False,right,0.083,1.4149,1.69,0.2751,0.09,0.9497,0.8597,A,0.27
117,0.49799,1.2,1,0.1992,0.2573,0.51459,117,1.84257,-0.26,-0.1328,0.37349,5,1D2U,1.0,False,0.349,6,False,left,-0.249,0.0643,0.7142,0.65,1.2233,1.7482,0.5249,A,0.27
118,0.49799,0.1,1,0.2656,0.32369,0.73869,118,2.59786,0.54,0.2739,0.77189,5,2D1U,1.0,True,0.688,5,False,left,0.083,0.1319,1.1821,1.0502,1.7487,2.6072,0.8586,A,0.275
119,0.49799,0.1,2,0.42329,0.38179,0.78019,119,2.85515,0.54,0.2739,0.77189,5,2D1U,2.0,True,0.283,5,False,right,-0.249,1.5893,1.8642,0.2749,0.4142,0.9381,0.524,A,0.275
120,0.49799,1.2,1,0.2241,0.34029,0.77189,120,2.18286,-0.3,-0.1494,0.34859,5,1D2U,2.0,True,0.401,7,True,right,0.083,0.0941,0.7198,0.6256,1.3198,2.1786,0.8588,A,0.27
121,0.49799,0.1,2,0.2075,0.40669,0.71379,121,2.77215,0.9,0.44819,0.94618,5,lapse_rate,2.0,True,0.264,0,False,right,-0.249,1.3078,1.5827,0.2749,0.1995,0.7243,0.5248,A,0.275
122,0.49799,1.2,2,0.33199,0.40669,0.86319,122,2.44845,-0.3,-0.1494,0.34859,5,1D2U,1.0,True,0.157,7,True,left,0.083,1.7467,2.0217,0.275,0.1542,1.0124,0.8582,A,0.27
123,0.49799,0.1,1,0.43989,0.34859,0.78019,123,2.81365,0.5,0.249,0.74699,5,2D1U,2.0,False,0.308,5,False,right,-0.249,0.3053,1.3302,1.0249,2.1059,2.631,0.5251,A,0.275
124,0.49799,1.2,2,0.2075,0.36519,0.68889,124,1.80937,-0.9,-0.44819,0.0498,5,lapse_rate,1.0,True,0.868,0,False,left,0.083,1.4509,1.7254,0.2745,0.0344,0.8916,0.8572,A,0.27
125,0.49799,0.1,1,0.2822,0.2158,0.65569,125,2.42357,0.54,0.2739,0.77189,5,2D1U,1.0,True,0.375,6,True,left,-0.249,0.1458,1.1955,1.0497,1.8457,2.3716,0.526,A,0.275
126,0.49799,0.1,2,0.38179,0.37349,0.43159,126,2.63104,0.9,0.44819,0.94618,5,lapse_rate,2.0,True,0.114,0,False,right,0.083,1.368,1.6423,0.2743,0.2098,1.0683,0.8585,A,0.275
127,0.49799,1.2,2,0.2075,0.42329,0.49799,127,2.00026,-0.26,-0.1328,0.37349,5,1D2U,1.0,True,0.809,8,True,left,-0.249,1.0874,1.3625,0.2751,0.1957,0.7205,0.5248,A,0.27
128,0.49799,1.2,1,0.2739,0.36519,0.46479,128,1.97536,-0.26,-0.1328,0.37349,5,1D2U,1.0,False,0.459,8,True,left,0.083,0.1409,0.7908,0.6499,1.0825,1.941,0.8586,A,0.27
129,0.49799,1.2,1,0.40669,0.38179,0.53949,129,1.87576,-0.9,-0.44819,0.0498,5,lapse_rate,2.0,True,0.32,0,False,right,-0.249,0.271,0.5959,0.3248,1.1291,1.655,0.5259,A,0.27
130,0.49799,0.1,1,0.42329,0.32369,0.58929,130,2.60615,0.54,0.2739,0.77189,5,2D1U,2.0,False,0.274,6,True,right,0.083,0.2929,1.3429,1.05,1.7587,2.6261,0.8675,A,0.275
131,0.49799,0.1,2,0.34859,0.29879,0.72209,131,2.21605,-0.3,-0.1494,0.34859,5,1D2U,1.0,True,0.258,9,True,left,-0.249,1.457,1.7311,0.2741,0.3401,0.8651,0.525,A,0.275
132,0.49799,0.1,2,0.35689,0.2905,0.81339,132,2.90495,0.9,0.44819,0.94618,5,lapse_rate,2.0,True,0.109,0,False,right,0.083,1.7232,1.9981,0.2749,0.1824,1.0396,0.8572,A,0.275
133,0.49799,1.2,1,0.30709,0.35689,0.75529,133,2.70575,0.58,0.2905,0.78849,5,2D1U,1.0,True,0.335,6,False,left,-0.249,0.1765,1.242,1.0655,1.9929,2.5181,0.5252,A,0.27
134,0.49799,1.2,2,0.2324,0.36519,0.69719,134,2.14136,-0.3,-0.1494,0.34859,5,1D2U,1.0,True,0.3,9,True,left,0.083,1.4795,1.7549,0.2754,0.0541,0.9123,0.8581,A,0.27
135,0.49799,0.1,2,0.2407,0.35689,0.42329,135,2.30736,0.58,0.2905,0.78849,5,2D1U,2.0,True,0.263,6,False,right,-0.249,1.0471,1.3225,0.2753,0.2308,0.7565,0.5257,A,0.275
136,0.49799,0.1,2,0.2656,0.40669,0.84659,136,2.06667,-0.9,-0.44819,0.0498,5,lapse_rate,1.0,True,0.451,0,False,left,0.083,1.6696,1.9439,0.2743,0.0943,0.9522,0.858,A,0.275
137,0.49799,0.1,2,0.2407,0.2822,0.61419,137,2.58126,0.9,0.44819,0.94618,5,lapse_rate,2.0,True,0.325,0,False,right,-0.249,1.2381,1.5124,0.2743,0.2297,0.7548,0.525,A,0.275
138,0.49799,0.1,2,0.31539,0.41499,0.52289,138,2.12475,-0.26,-0.1328,0.37349,5,1D2U,1.0,True,0.438,10,True,left,0.083,1.3922,1.6675,0.2753,0.1423,0.9997,0.8574,A,0.275
139,0.49799,1.2,1,0.43159,0.2656,0.81339,139,2.78046,0.54,0.2739,0.77189,5,2D1U,2.0,False,0.626,7,True,right,-0.249,0.298,1.348,1.05,2.1571,2.6816,0.5245,A,0.27
140,0.49799,1.2,1,0.30709,0.31539,0.56439,140,2.05835,-0.26,-0.1328,0.37349,5,1D2U,1.0,False,0.376,10,True,left,0.083,0.1733,0.8242,0.6509,1.2146,999,997.7854,A,0.27
141,0.49799,0.1,2,0.38179,0.31539,0.47309,141,2.45675,0.58,0.2905,0.78849,5,2D1U,2.0,True,0.251,8,True,right,-0.249,1.2426,1.5165,0.2739,0.3754,0.9002,0.5248,A,0.275
142,0.49799,0.1,2,0.36519,0.39009,0.82999,142,2.13306,-0.9,-0.44819,0.0498,5,lapse_rate,1.0,True,0.464,0,False,left,0.083,1.7481,2.0227,0.2746,0.1898,1.048,0.8582,A,0.275
143,0.49799,1.2,1,0.34859,0.43989,0.76359,143,2.99624,0.9,0.44819,0.94618,5,lapse_rate,2.0,False,0.325,0,False,right,-0.249,0.2151,1.4395,1.2244,2.1974,2.7222,0.5248,A,0.27
144,0.49799,0.1,2,0.32369,0.32369,0.55609,144,2.48995,0.58,0.2905,0.78849,5,2D1U,1.0,False,0.541,8,True,left,0.083,1.4312,1.7065,0.2753,0.1476,1.006,0.8584,A,0.275
145,0.49799,1.2,2,0.41499,0.35689,0.86319,145,2.48165,-0.3,-0.1494,0.34859,5,1D2U,1.0,True,0.455,11,True,left,-0.249,1.6634,1.9375,0.2741,0.4054,0.9294,0.524,A,0.27
146,0.49799,0.1,1,0.34859,0.2573,0.40669,146,1.56037,-0.9,-0.44819,0.0498,5,lapse_rate,2.0,True,0.267,0,False,right,0.083,0.2171,0.5422,0.3251,0.7755,999,998.2245,A,0.275
147,0.49799,1.2,1,0.2656,0.2573,0.68059,147,2.05007,-0.3,-0.1494,0.34859,5,1D2U,2.0,True,0.483,11,True,right,-0.249,0.1324,0.758,0.6256,1.4337,1.9587,0.525,A,0.27
148,0.49799,0.1,1,0.43989,0.2407,0.82999,148,2.82196,0.62,0.30709,0.81339,5,2D1U,1.0,True,0.266,8,False,left,0.083,0.3101,1.4016,1.0915,2.0601,999,996.9399,A,0.275
149,0.49799,0.1,1,0.40669,0.32369,0.59759,149,2.63935,0.62,0.30709,0.81339,5,2D1U,1.0,True,0.355,8,False,left,-0.249,0.2721,1.3644,1.0923,1.9556,2.4811,0.5255,A,0.275
150,0.49799,1.2,2,0.2324,0.37349,0.87149,150,2.02517,-0.9,-0.44819,0.0498,5,lapse_rate,1.0,True,0.323,0,False,left,0.083,1.6567,1.9311,0.2744,0.056,0.9142,0.8582,A,0.27
151,0.49799,1.2,1,0.35689,0.30709,0.89638,151,2.43184,-0.26,-0.1328,0.37349,5,1D2U,1.0,False,0.491,12,True,left,-0.249,0.2231,0.8729,0.6498,1.7658,2.2897,0.5239,A,0.27
152,0.49799,1.2,1,0.36519,0.33199,0.80509,152,2.78875,0.58,0.2905,0.78849,5,2D1U,1.0,True,0.533,9,True,left,0.083,0.2341,1.3013,1.0672,1.9341,2.7928,0.8586,A,0.27
153,0.49799,0.1,1,0.40669,0.29879,0.39839,153,1.95045,-0.3,-0.1494,0.34859,5,1D2U,2.0,True,0.225,13,True,right,-0.249,0.2767,0.9014,0.6247,1.2933,1.8179,0.5246,A,0.275
154,0.49799,1.2,2,0.39009,0.2158,0.58099,154,1.73467,-0.9,-0.44819,0.0498,5,lapse_rate,1.0,True,0.656,0,False,left,0.083,1.5227,999,997.4773,0.2147,1.0731,0.8584,A,0.27
155,0.49799,0.1,2,0.2573,0.33199,0.58929,155,2.02516,-0.3,-0.1494,0.34859,5,1D2U,1.0,True,0.324,13,True,left,-0.249,1.2385,1.5141,0.2756,0.2549,0.7806,0.5257,A,0.275
156,0.49799,1.2,1,0.2407,0.2822,0.48969,156,1.56038,-0.9,-0.44819,0.0498,5,lapse_rate,2.0,True,0.815,0,False,right,0.083,0.1082,0.4334,0.3252,0.7501,999,998.2499,A,0.27
157,0.49799,1.2,1,0.34859,0.40669,0.53119,157,2.57295,0.58,0.2905,0.78849,5,2D1U,1.0,True,0.386,9,True,left,-0.249,0.2142,1.2816,1.0675,1.8063,2.3314,0.5251,A,0.27
158,0.49799,1.2,1,0.2573,0.36519,0.54779,158,2.04176,-0.26,-0.1328,0.37349,5,1D2U,2.0,True,0.382,14,True,right,0.083,0.1208,0.7705,0.6497,1.1459,2.0048,0.8589,A,0.27
159,0.49799,0.1,1,0.29879,0.38179,0.77189,159,2.72235,0.54,0.2739,0.77189,5,2D1U,1.0,True,0.114,9,False,left,-0.249,0.1628,1.2117,1.0489,1.9797,2.5046,0.525,A,0.275
160,0.49799,1.2,1,0.32369,0.33199,0.51459,160,2.61444,0.9,0.44819,0.94618,5,lapse_rate,1.0,True,0.241,0,False,left,0.083,0.1913,1.4156,1.2243,1.7572,2.6163,0.8591,A,0.27
161,0.49799,0.1,1,0.34859,0.2822,0.41499,161,2.31566,0.54,0.2739,0.77189,5,2D1U,1.0,True,0.574,9,False,left,-0.249,0.2138,1.2629,1.0492,1.6706,2.196,0.5254,A,0.275
162,0.49799,1.2,1,0.38179,0.41499,0.51459,162,1.85916,-0.9,-0.44819,0.0498,5,lapse_rate,2.0,True,0.284,0,False,right,0.083,0.2516,0.5763,0.3247,0.9182,1.7765,0.8583,A,0.27
163,0.49799,1.2,1,0.34029,0.2324,0.47309,163,1.91726,-0.26,-0.1328,0.37349,5,1D2U,2.0,True,0.379,14,True,right,-0.249,0.21,0.8605,0.6506,1.3266,1.8521,0.5255,A,0.27
164,0.49799,1.2,2,0.35689,0.2241,0.82169,164,2.29076,-0.22,-0.1079,0.39009,5,1D2U,2.0,False,0.818,14,False,right,0.083,1.7337,2.0089,0.2751,0.1848,1.0423,0.8575,A,0.27
165,0.49799,1.2,2,0.43159,0.34859,0.86319,165,2.19116,-0.9,-0.44819,0.0498,5,lapse_rate,1.0,True,0.275,0,False,left,-0.249,1.6814,1.9567,0.2753,0.4222,0.9479,0.5257,A,0.27
166,0.49799,0.1,2,0.249,0.2822,0.53949,166,2.31567,0.5,0.249,0.74699,5,2D1U,2.0,True,0.387,9,False,right,0.083,1.3407,1.615,0.2743,0.0735,0.9312,0.8577,A,0.275
167,0.49799,0.1,2,0.43989,0.34859,0.63909,167,2.29905,-0.26,-0.1328,0.37349,5,1D2U,1.0,True,0.459,15,True,left,-0.249,1.4681,1.7439,0.2758,0.4352,0.9605,0.5253,A,0.275
168,0.49799,1.2,1,0.31539,0.39839,0.63909,168,2.22435,-0.26,-0.1328,0.37349,5,1D2U,2.0,True,0.33,15,True,right,0.083,0.1797,0.8297,0.6501,1.2962,2.1549,0.8588,A,0.27
169,0.49799,1.2,1,0.34029,0.42329,0.47309,169,2.48165,0.5,0.249,0.74699,5,2D1U,2.0,False,0.267,9,False,right,-0.249,0.2088,1.2344,1.0256,1.7026,2.2255,0.5229,A,0.27
170,0.49799,0.1,2,0.39009,0.39009,0.75529,170,2.42355,-0.22,-0.1079,0.39009,5,1D2U,1.0,True,0.476,16,True,left,0.083,1.6975,1.9727,0.2752,0.216,1.0733,0.8573,A,0.275
171,0.49799,0.1,1,0.33199,0.30709,0.52289,171,2.43185,0.54,0.2739,0.77189,5,2D1U,1.0,True,0.273,10,True,left,-0.249,0.1973,1.2478,1.0505,1.7638,2.2893,0.5254,A,0.275
172,0.49799,1.2,2,0.30709,0.39009,0.69719,172,2.28245,-0.22,-0.1079,0.39009,5,1D2U,1.0,True,0.333,16,True,left,0.083,1.5573,1.8319,0.2746,0.1322,0.9904,0.8581,A,0.27
173,0.49799,1.2,2,0.39009,0.40669,0.87149,173,2.57295,-0.18,-0.0913,0.40669,5,1D2U,2.0,False,0.592,16,False,right,-0.249,1.6468,1.9215,0.2747,0.3799,0.9055,0.5256,A,0.27
174,0.49799,0.1,2,0.30709,0.33199,0.57269,174,2.09985,-0.22,-0.1079,0.39009,5,1D2U,1.0,True,0.451,17,True,left,0.083,1.4309,1.7062,0.2752,0.131,0.9899,0.8589,A,0.275
175,0.49799,0.1,2,0.44819,0.2656,0.48139,175,2.46506,0.54,0.2739,0.77189,5,2D1U,2.0,True,0.252,10,True,right,-0.249,1.3136,1.5896,0.2761,0.4392,0.9643,0.5251,A,0.275
176,0.49799,1.2,1,0.35689,0.2241,0.76359,176,2.58956,0.5,0.249,0.74699,5,2D1U,2.0,False,0.294,11,True,right,0.083,0.223,1.2484,1.0254,1.8397,999,997.1603,A,0.27
177,0.49799,1.2,2,0.33199,0.2241,0.68059,177,2.12476,-0.22,-0.1079,0.39009,5,1D2U,1.0,True,0.326,17,True,left,-0.249,1.3965,1.6716,0.2751,0.3229,0.8472,0.5243,A,0.27
178,0.49799,0.1,2,0.2656,0.41499,0.40669,178,1.99196,-0.18,-0.0913,0.40669,5,1D2U,1.0,True,0.289,18,True,left,0.083,1.2204,1.4949,0.2745,0.0876,0.9449,0.8574,A,0.275
179,0.49799,0.1,1,0.2324,0.2656,0.83829,179,2.24097,-0.18,-0.0913,0.40669,5,1D2U,2.0,True,0.322,18,True,right,-0.249,0.0973,0.7814,0.6841,1.6142,2.1397,0.5255,A,0.275
180,0.49799,1.2,1,0.39839,0.34859,0.43989,180,2.45675,0.54,0.2739,0.77189,5,2D1U,1.0,True,0.253,12,True,left,0.083,0.265,1.3158,1.0508,1.5822,2.4409,0.8588,A,0.27
181,0.49799,1.2,1,0.29879,0.2905,0.51459,181,2.37376,0.54,0.2739,0.77189,5,2D1U,1.0,True,0.415,12,True,left,-0.249,0.1688,1.2184,1.0496,1.727,2.2523,0.5253,A,0.27
182,0.49799,0.1,2,0.44819,0.34859,0.57269,182,2.29905,-0.14,-0.0664,0.43159,5,1D2U,1.0,True,0.384,18,False,left,0.083,1.5774,1.8525,0.2751,0.2774,1.1358,0.8584,A,0.275
183,0.49799,0.1,2,0.36519,0.2158,0.87149,183,2.69746,0.5,0.249,0.74699,5,2D1U,2.0,True,0.205,13,True,right,-0.249,1.6232,1.8982,0.275,0.3569,0.8815,0.5246,A,0.275
184,0.49799,1.2,1,0.43989,0.2739,0.87149,184,2.51486,-0.14,-0.0664,0.43159,5,1D2U,2.0,True,0.476,18,False,right,0.083,0.3076,1.0162,0.7086,1.7162,999,997.2838,A,0.27
185,0.49799,1.2,2,0.41499,0.39839,0.63079,185,2.68915,0.5,0.249,0.74699,5,2D1U,2.0,True,0.217,13,True,right,-0.249,1.4295,1.705,0.2755,0.4041,0.9294,0.5252,A,0.27
186,0.49799,0.1,1,0.2656,0.31539,0.63909,186,2.16626,-0.1,-0.0498,0.44819,5,1D2U,2.0,True,0.274,18,False,right,0.083,0.1319,0.8569,0.7249,1.3237,999,997.6763,A,0.275
187,0.49799,0.1,1,0.2158,0.34859,0.50629,187,2.29906,0.46,0.2324,0.73039,5,2D1U,1.0,True,0.112,13,False,left,-0.249,0.0819,1.0912,1.0093,1.5901,2.115,0.5249,A,0.275
188,0.49799,1.2,1,0.43159,0.2075,0.78019,188,2.36546,-0.1,-0.0498,0.44819,5,1D2U,2.0,True,0.41,18,False,right,0.083,0.2973,1.0229,0.7256,1.6328,999,997.3672,A,0.27
189,0.49799,1.2,2,0.34029,0.32369,0.77189,189,2.66425,0.46,0.2324,0.73039,5,2D1U,2.0,True,0.45,13,False,right,-0.249,1.5017,1.7767,0.275,0.335,0.86,0.5249,A,0.27
190,0.49799,0.1,2,0.2407,0.32369,0.43159,190,2.20776,0.42,0.2075,0.71379,5,2D1U,2.0,True,0.975,13,False,right,0.083,1.2236,1.4981,0.2744,0.0646,0.9237,0.8591,A,0.275
191,0.49799,0.1,1,0.2407,0.2324,0.85489,191,2.29907,-0.06,-0.0332,0.47309,5,1D2U,1.0,False,0.289,18,False,left,-0.249,0.1047,0.8543,0.7496,1.7049,2.2297,0.5249,A,0.275
192,0.49799,1.2,2,0.2158,0.2075,0.68889,192,2.32397,0.42,0.2075,0.71379,5,2D1U,2.0,True,0.29,13,False,right,0.083,1.4571,1.7333,0.2762,0.0404,0.8992,0.8588,A,0.27
193,0.49799,1.2,1,0.32369,0.39839,0.83829,193,2.74725,0.38,0.1909,0.68889,5,2D1U,1.0,True,0.933,13,False,left,-0.249,0.1877,1.1547,0.967,1.9884,2.5127,0.5242,A,0.27
194,0.49799,0.1,1,0.42329,0.44819,0.41499,194,2.47335,0.38,0.1909,0.68889,5,2D1U,1.0,True,0.433,13,False,left,0.083,0.2937,1.2604,0.9667,1.5026,2.361,0.8584,A,0.275
195,0.49799,0.1,2,0.1992,0.42329,0.80509,195,2.37376,-0.1,-0.0498,0.44819,5,1D2U,1.0,True,0.249,19,True,left,-0.249,1.3951,1.6692,0.2742,0.1938,0.7196,0.5258,A,0.275
196,0.49799,1.2,1,0.2573,0.2158,0.78849,196,2.20777,-0.1,-0.0498,0.44819,5,1D2U,1.0,False,0.556,19,True,left,0.083,0.121,0.8455,0.7245,1.4621,999,997.5379,A,0.27
197,0.49799,1.2,2,0.30709,0.43989,0.73039,197,2.64765,0.34,0.166,0.67229,5,2D1U,2.0,True,0.258,13,False,right,-0.249,1.4251,1.6999,0.2749,0.2993,0.8246,0.5253,A,0.27
198,0.49799,0.1,2,0.2241,0.39009,0.71379,198,2.25756,-0.14,-0.0664,0.43159,5,1D2U,2.0,False,0.592,19,False,right,0.083,1.4894,1.765,0.2755,0.0488,0.9072,0.8584,A,0.275
199,0.49799,0.1,1,0.43989,0.2573,0.62249,199,2.48996,0.34,0.166,0.67229,5,2D1U,1.0,True,0.359,13,False,left,-0.249,0.3117,1.2615,0.9498,1.8778,2.4028,0.525,A,0.275
200,0.49799,1.2,1,0.2822,0.43159,0.62249,200,2.24096,-0.18,-0.0913,0.40669,5,1D2U,2.0,True,0.316,19,False,right,0.083,0.1444,0.8286,0.6843,1.278,2.1365,0.8585,A,0.27
201,0.49799,1.2,2,0.2822,0.2075,0.48969,201,2.12477,0.3,0.1494,0.64739,5,2D1U,1.0,False,1.059,13,False,left,-0.249,1.162,1.4371,0.2751,0.2777,0.8028,0.525,A,0.27
202,0.49799,0.1,2,0.34859,0.39009,0.82999,202,2.73895,0.34,0.166,0.67229,5,2D1U,2.0,True,0.576,14,True,right,0.083,1.7359,2.0111,0.2753,0.1784,1.0366,0.8582,A,0.275
203,0.49799,0.1,1,0.39839,0.44819,0.82999,203,2.58125,-0.18,-0.0913,0.40669,5,1D2U,1.0,False,0.166,19,False,left,-0.249,0.2678,0.9514,0.6836,1.7761,2.3014,0.5253,A,0.275
204,0.49799,1.2,2,0.2158,0.42329,0.76359,204,2.57296,0.34,0.166,0.67229,5,2D1U,2.0,True,0.306,14,True,right,0.083,1.5322,1.8071,0.2749,0.0403,0.8982,0.8578,A,0.27
205,0.49799,1.2,2,0.2822,0.2158,0.51459,205,2.15797,0.3,0.1494,0.64739,5,2D1U,2.0,True,0.344,15,True,right,-0.249,1.182,1.4578,0.2758,0.2742,0.7985,0.5244,A,0.27
206,0.49799,0.1,2,0.32369,0.32369,0.49799,206,2.29075,0.3,0.1494,0.64739,5,2D1U,1.0,False,0.365,15,True,left,0.083,1.3744,1.6497,0.2753,0.1488,1.0078,0.859,A,0.275
207,0.49799,0.1,2,0.2739,0.37349,0.56439,207,2.38206,0.34,0.166,0.67229,5,2D1U,2.0,True,0.334,16,True,right,-0.249,1.2242,1.4994,0.2751,0.2657,0.7905,0.5248,A,0.275
208,0.49799,1.2,1,0.30709,0.33199,0.82999,208,2.35715,-0.22,-0.1079,0.39009,5,1D2U,1.0,False,0.303,19,False,left,0.083,0.1726,0.8398,0.6672,1.4986,2.3568,0.8583,A,0.27
209,0.49799,1.2,2,0.2158,0.33199,0.55609,209,2.27416,0.34,0.166,0.67229,5,2D1U,2.0,True,0.458,16,True,right,-0.249,1.1599,1.4345,0.2746,0.2096,0.7345,0.5249,A,0.27
210,0.49799,0.1,2,0.33199,0.35689,0.76359,210,2.32395,-0.26,-0.1328,0.37349,5,1D2U,1.0,True,0.204,19,False,left,0.083,1.645,1.92,0.275,0.1544,1.0126,0.8582,A,0.275
211,0.49799,0.1,1,0.39009,0.29879,0.85489,211,2.41525,-0.26,-0.1328,0.37349,5,1D2U,2.0,True,0.295,19,False,right,-0.249,0.2554,0.9056,0.6502,1.756,2.2807,0.5247,A,0.275
212,0.49799,1.2,2,0.39839,0.249,0.75529,212,2.29076,-0.22,-0.1079,0.39009,5,1D2U,2.0,False,1.392,20,True,right,0.083,1.7059,1.9816,0.2757,0.2233,1.0812,0.8579,A,0.27
213,0.49799,1.2,1,0.2158,0.35689,0.75529,213,2.19946,-0.26,-0.1328,0.37349,5,1D2U,1.0,False,0.384,21,True,left,-0.249,0.082,0.7319,0.6499,1.4822,2.0071,0.5249,A,0.27
214,0.49799,0.1,2,0.2656,0.44819,0.42329,214,2.28246,0.3,0.1494,0.64739,5,2D1U,2.0,True,0.323,17,True,right,0.083,1.2378,1.5123,0.2744,0.0885,0.946,0.8575,A,0.275
215,0.49799,0.1,2,0.35689,0.43989,0.70549,215,2.64765,0.3,0.1494,0.64739,5,2D1U,2.0,True,0.274,17,True,right,-0.249,1.4482,1.7241,0.2759,0.3483,0.873,0.5248,A,0.275
216,0.49799,1.2,2,0.39009,0.37349,0.88809,216,2.78045,0.26,0.1328,0.63079,5,2D1U,1.0,False,1.701,17,False,left,0.083,1.8365,2.1121,0.2756,0.2198,1.0782,0.8585,A,0.27
217,0.49799,1.2,2,0.34859,0.2573,0.73869,217,2.19116,-0.3,-0.1494,0.34859,5,1D2U,1.0,True,0.433,21,False,left,-0.249,1.4782,1.7531,0.2749,0.3451,0.8694,0.5243,A,0.27
218,0.49799,0.1,2,0.34029,0.43989,0.85489,218,2.78045,0.3,0.1494,0.64739,5,2D1U,1.0,False,0.717,18,True,left,0.083,1.7525,2.027,0.2745,0.1692,1.0271,0.8579,A,0.275
219,0.49799,0.1,1,0.2407,0.31539,0.41499,219,2.14136,0.34,0.166,0.67229,5,2D1U,1.0,True,0.643,18,False,left,-0.249,0.1084,1.0592,0.9507,1.4675,1.9924,0.5249,A,0.275
220,0.49799,1.2,1,0.32369,0.41499,0.58929,220,2.17455,-0.3,-0.1494,0.34859,5,1D2U,2.0,True,0.24,21,False,right,0.083,0.1899,0.8141,0.6242,1.2315,2.089,0.8574,A,0.27
221,0.49799,1.2,2,0.30709,0.40669,0.88809,221,2.77215,0.34,0.166,0.67229,5,2D1U,1.0,False,0.274,18,False,left,-0.249,1.5816,1.8565,0.2749,0.2972,0.8223,0.525,A,0.27
222,0.49799,0.1,2,0.38179,0.44819,0.47309,222,2.48995,0.38,0.1909,0.68889,5,2D1U,2.0,True,0.113,18,False,right,0.083,1.4071,1.6816,0.2745,0.2059,1.0647,0.8589,A,0.275
223,0.49799,0.1,2,0.34029,0.249,0.80509,223,2.26586,-0.26,-0.1328,0.37349,5,1D2U,1.0,True,0.302,22,True,left,-0.249,1.5307,1.8058,0.2751,0.3301,0.8558,0.5257,A,0.275
224,0.49799,1.2,2,0.34029,0.30709,0.59759,224,2.11645,-0.26,-0.1328,0.37349,5,1D2U,1.0,True,0.325,22,True,left,0.083,1.4893,1.7634,0.2742,0.1637,1.0226,0.8589,A,0.27
225,0.49799,1.2,1,0.41499,0.249,0.53949,225,2.39036,0.38,0.1909,0.68889,5,2D1U,2.0,False,0.359,18,False,right,-0.249,0.28,1.2474,0.9674,1.7808,2.3055,0.5246,A,0.27
226,0.49799,0.1,1,0.38179,0.2241,0.72209,226,2.53976,0.42,0.2075,0.71379,5,2D1U,2.0,False,0.359,18,False,right,0.083,0.2526,1.2437,0.9911,1.7946,999,997.2054,A,0.275
227,0.49799,0.1,1,0.2075,0.249,0.67229,227,2.35717,0.46,0.2324,0.73039,5,2D1U,1.0,True,0.393,18,False,left,-0.249,0.0717,1.0793,1.0075,1.7463,2.2712,0.5249,A,0.275
228,0.49799,1.2,2,0.42329,0.43989,0.58099,228,2.33225,-0.22,-0.1079,0.39009,5,1D2U,1.0,True,0.157,22,False,left,0.083,1.5546,1.8296,0.275,0.2456,1.1037,0.8581,A,0.27
229,0.49799,1.2,1,0.2822,0.34029,0.59759,229,2.44846,0.46,0.2324,0.73039,5,2D1U,1.0,True,0.208,18,False,left,-0.249,0.151,1.1591,1.0081,1.7509,2.2766,0.5256,A,0.27
230,0.49799,0.1,2,0.34859,0.43989,0.54779,230,2.54805,0.42,0.2075,0.71379,5,2D1U,2.0,True,0.113,19,True,right,0.083,1.4469,1.723,0.2761,0.1724,1.0303,0.8579,A,0.275
231,0.49799,0.1,1,0.30709,0.33199,0.73869,231,2.26585,-0.22,-0.1079,0.39009,5,1D2U,2.0,True,0.251,22,False,right,-0.249,0.1773,0.845,0.6677,1.5781,2.1031,0.5251,A,0.275
232,0.49799,1.2,1,0.31539,0.2407,0.63079,232,2.09156,-0.18,-0.0913,0.40669,5,1D2U,2.0,True,0.53,22,False,right,0.083,0.1855,0.8679,0.6825,1.3264,999,997.6736,A,0.27
233,0.49799,1.2,1,0.34859,0.2905,0.79679,233,2.34056,-0.18,-0.0913,0.40669,5,1D2U,2.0,True,0.35,22,False,right,-0.249,0.214,0.8978,0.6837,1.6887,2.2149,0.5262,A,0.27
234,0.49799,0.1,1,0.40669,0.2324,0.56439,234,2.13306,-0.14,-0.0664,0.43159,5,1D2U,1.0,False,0.396,22,False,left,0.083,0.2732,0.9816,0.7085,1.3723,999,997.6277,A,0.275
235,0.49799,0.1,2,0.31539,0.2324,0.78019,235,2.53976,0.42,0.2075,0.71379,5,2D1U,2.0,True,1.392,19,True,right,-0.249,1.48,1.7535,0.2735,0.3039,0.8288,0.5249,A,0.275
236,0.49799,1.2,1,0.42329,0.2324,0.86319,236,2.70576,0.38,0.1909,0.68889,5,2D1U,2.0,False,0.315,19,False,right,0.083,0.2891,1.2552,0.9661,1.9465,999,997.0535,A,0.27
237,0.49799,1.2,1,0.35689,0.2241,0.53949,237,2.02516,-0.18,-0.0913,0.40669,5,1D2U,2.0,True,0.417,23,True,right,-0.249,0.227,0.9096,0.6826,1.4431,1.9677,0.5246,A,0.27
238,0.49799,0.1,1,0.35689,0.38179,0.84659,238,2.79705,0.42,0.2075,0.71379,5,2D1U,1.0,True,0.425,20,True,left,0.083,0.2277,1.2192,0.9915,1.8944,2.7524,0.858,A,0.275
239,0.49799,0.1,2,0.2739,0.32369,0.42329,239,2.23266,0.42,0.2075,0.71379,5,2D1U,1.0,False,1.784,20,True,left,-0.249,1.0805,1.3553,0.2748,0.2633,0.788,0.5247,A,0.275
240,0.49799,1.2,2,0.34029,0.2158,0.78849,240,2.24926,-0.18,-0.0913,0.40669,5,1D2U,1.0,True,0.31,23,True,left,0.083,1.6857,1.9609,0.2751,0.1697,1.0273,0.8576,A,0.27
241,0.49799,1.2,1,0.39009,0.38179,0.77189,241,2.47335,-0.14,-0.0664,0.43159,5,1D2U,2.0,True,0.153,24,True,right,-0.249,0.2567,0.9653,0.7086,1.7318,2.2571,0.5254,A,0.27
242,0.49799,0.1,1,0.2075,0.33199,0.62249,242,2.09156,-0.14,-0.0664,0.43159,5,1D2U,2.0,True,0.208,24,True,right,0.083,0.074,0.7823,0.7082,1.2324,2.0905,0.8581,A,0.275
243,0.49799,0.1,1,0.249,0.43159,0.80509,243,2.43186,-0.1,-0.0498,0.44819,5,1D2U,2.0,True,0.299,24,False,right,-0.249,0.1202,0.8449,0.7247,1.6443,2.17,0.5257,A,0.275
244,0.49799,1.2,1,0.2324,0.30709,0.80509,244,2.57296,0.46,0.2324,0.73039,5,2D1U,2.0,False,1.22,20,False,right,0.083,0.0978,1.1066,1.0088,1.7392,999,997.2608,A,0.27
245,0.49799,1.2,1,0.2739,0.2407,0.51459,245,2.27417,0.5,0.249,0.74699,5,2D1U,1.0,True,0.221,20,False,left,-0.249,0.1402,1.1652,1.025,1.673,2.1985,0.5255,A,0.27
246,0.49799,0.1,2,0.31539,0.2656,0.48139,246,2.00856,-0.1,-0.0498,0.44819,5,1D2U,1.0,True,0.188,24,False,left,0.083,1.3474,1.6221,0.2747,0.1387,0.998,0.8593,A,0.275
247,0.49799,0.1,2,0.30709,0.39009,0.66399,247,2.33225,-0.06,-0.0332,0.47309,5,1D2U,1.0,True,0.417,24,False,left,-0.249,1.3555,1.6299,0.2744,0.2978,0.8219,0.524,A,0.275
248,0.49799,1.2,2,0.35689,0.2822,0.67229,248,2.55636,0.5,0.249,0.74699,5,2D1U,2.0,True,0.233,20,False,right,0.083,1.5857,1.8614,0.2756,0.1868,1.0441,0.8574,A,0.27
249,0.49799,1.2,1,0.35689,0.32369,0.87149,249,2.52315,-0.06,-0.0332,0.47309,5,1D2U,2.0,True,0.324,24,False,right,-0.249,0.2274,0.9773,0.7499,1.8442,2.3696,0.5254,A,0.27
250,0.49799,0.1,2,0.39839,0.40669,0.82169,250,2.61445,-0.02,-0.0083,0.48969,5,1D2U,1.0,True,0.393,24,False,left,0.083,1.7717,2.0477,0.2761,0.2223,1.08,0.8577,A,0.275
251,0.49799,0.1,1,0.1992,0.2573,0.40669,251,1.85087,-0.02,-0.0083,0.48969,5,1D2U,2.0,True,0.256,24,False,right,-0.249,0.0642,0.8299,0.7657,1.2298,1.755,0.5252,A,0.275
252,0.49799,1.2,1,0.29879,0.2241,0.68059,252,2.43186,0.46,0.2324,0.73039,5,2D1U,1.0,True,0.439,21,True,left,0.083,0.1648,1.1722,1.0074,1.681,999,997.319,A,0.27
253,0.49799,1.2,1,0.2739,0.34029,0.58099,253,2.19946,0.02,0.0083,0.50629,5,1D2U,2.0,False,0.533,24,False,right,-0.249,0.1445,0.9275,0.783,1.5031,2.028,0.5249,A,0.27
254,0.49799,0.1,2,0.2158,0.249,0.89638,254,2.58956,0.46,0.2324,0.73039,5,2D1U,2.0,True,0.385,21,True,right,0.083,1.6676,1.9429,0.2754,0.0426,0.9005,0.8578,A,0.275
255,0.49799,0.1,2,0.39009,0.2905,0.53119,255,2.42356,0.42,0.2075,0.71379,5,2D1U,2.0,True,0.23,21,False,right,-0.249,1.3071,1.5818,0.2747,0.3816,0.9063,0.5247,A,0.275
256,0.49799,1.2,1,0.36519,0.2905,0.57269,256,2.23266,0.02,0.0083,0.50629,5,1D2U,2.0,False,0.684,24,False,right,0.083,0.2356,1.0184,0.7828,1.4192,999,997.5808,A,0.27
257,0.49799,1.2,2,0.2158,0.44819,0.54779,257,2.42356,0.42,0.2075,0.71379,5,2D1U,2.0,True,0.275,21,False,right,-0.249,1.153,1.4274,0.2745,0.211,0.7367,0.5258,A,0.27
258,0.49799,0.1,2,0.33199,0.2905,0.42329,258,2.23266,0.38,0.1909,0.68889,5,2D1U,1.0,False,0.759,21,False,left,0.083,1.3043,1.5792,0.2748,0.1538,1.0118,0.8579,A,0.275
259,0.49799,0.1,2,0.249,0.44819,0.73039,259,2.45676,0.06,0.0332,0.53119,5,1D2U,1.0,False,1.244,24,False,left,-0.249,1.3648,1.6399,0.2751,0.2399,0.7652,0.5253,A,0.275
260,0.49799,1.2,2,0.1992,0.2075,0.73039,260,2.34887,0.42,0.2075,0.71379,5,2D1U,2.0,True,0.434,22,True,right,0.083,1.482,1.7569,0.2749,0.0234,0.8812,0.8579,A,0.27
261,0.49799,1.2,2,0.2158,0.30709,0.87149,261,2.60616,0.42,0.2075,0.71379,5,2D1U,2.0,True,0.22,22,True,right,-0.249,1.4736,1.7488,0.2752,0.2063,0.7319,0.5256,A,0.27
262,0.49799,0.1,1,0.31539,0.31539,0.81339,262,2.47335,0.06,0.0332,0.53119,5,1D2U,2.0,False,0.298,24,False,right,0.083,0.1841,0.9934,0.8093,1.6355,999,997.3645,A,0.275
263,0.49799,0.1,2,0.2241,0.249,0.45649,263,1.97537,0.1,0.0498,0.54779,5,1D2U,2.0,True,0.517,24,False,right,-0.249,1.0652,1.3407,0.2756,0.2148,0.7408,0.526,A,0.275
264,0.49799,1.2,1,0.31539,0.30709,0.53949,264,2.34885,0.38,0.1909,0.68889,5,2D1U,1.0,True,0.275,23,True,left,0.083,0.182,1.1484,0.9664,1.5149,999,997.4851,A,0.27
265,0.49799,1.2,1,0.2407,0.1992,0.52289,265,2.14967,0.38,0.1909,0.68889,5,2D1U,2.0,False,0.326,23,True,right,-0.249,0.1068,1.0736,0.9668,1.5911,2.1157,0.5246,A,0.27
266,0.49799,0.1,1,0.37349,0.36519,0.82169,266,2.58955,0.06,0.0332,0.53119,5,1D2U,2.0,False,0.434,25,True,right,0.083,0.2394,1.047,0.8076,1.6984,2.5558,0.8574,A,0.275
267,0.49799,0.1,2,0.2573,0.31539,0.49799,267,2.28246,0.42,0.2075,0.71379,5,2D1U,2.0,True,0.282,24,True,right,-0.249,1.143,1.4179,0.2749,0.2504,0.776,0.5257,A,0.275
268,0.49799,1.2,1,0.30709,0.2158,0.45649,268,2.19116,0.42,0.2075,0.71379,5,2D1U,1.0,True,0.389,24,True,left,0.083,0.171,1.163,0.992,1.4463,999,997.5537,A,0.27
269,0.49799,1.2,1,0.34029,0.37349,0.82999,269,2.73065,0.38,0.1909,0.68889,5,2D1U,1.0,True,0.284,25,True,left,-0.249,0.2106,1.1776,0.967,2.0029,2.5273,0.5244,A,0.27
270,0.49799,0.1,2,0.39839,0.38179,0.46479,270,2.27415,0.06,0.0332,0.53119,5,1D2U,1.0,False,0.322,25,True,left,0.083,1.4192,1.6944,0.2752,0.2278,1.0852,0.8574,A,0.275
271,0.49799,0.1,2,0.37349,0.33199,0.76359,271,2.51485,0.1,0.0498,0.54779,5,1D2U,1.0,False,0.241,26,True,left,-0.249,1.52,1.7944,0.2743,0.3616,0.8864,0.5248,A,0.275
272,0.49799,1.2,2,0.34029,0.34859,0.84659,272,2.72235,0.38,0.1909,0.68889,5,2D1U,2.0,True,0.226,25,True,right,0.083,1.7431,2.0185,0.2754,0.1689,1.027,0.8581,A,0.27
273,0.49799,1.2,2,0.31539,0.36519,0.82999,273,2.55635,0.1,0.0498,0.54779,5,1D2U,2.0,True,0.251,26,True,right,-0.249,1.531,1.8058,0.2748,0.3055,0.8307,0.5252,A,0.27
274,0.49799,0.1,1,0.35689,0.249,0.58929,274,2.36546,0.34,0.166,0.67229,5,2D1U,1.0,True,0.231,25,False,left,0.083,0.2197,1.1705,0.9508,1.5866,999,997.4134,A,0.275
275,0.49799,0.1,1,0.42329,0.2739,0.67229,275,2.53976,0.34,0.166,0.67229,5,2D1U,1.0,True,0.508,25,False,left,-0.249,0.2941,1.2437,0.9496,1.9106,2.436,0.5254,A,0.275
276,0.49799,1.2,1,0.34029,0.43159,0.48139,276,2.28245,0.06,0.0332,0.53119,5,1D2U,2.0,False,0.337,27,True,right,0.083,0.2092,1.019,0.8098,1.3264,2.1841,0.8577,A,0.27
277,0.49799,1.2,1,0.35689,0.249,0.61419,277,2.36546,0.3,0.1494,0.64739,5,2D1U,2.0,False,0.287,25,False,right,-0.249,0.2248,1.1509,0.9261,1.7597,2.2834,0.5237,A,0.27
278,0.49799,0.1,2,0.29879,0.39009,0.57269,278,2.43185,0.34,0.166,0.67229,5,2D1U,2.0,True,0.109,26,True,right,0.083,1.4228,1.6975,0.2747,0.1232,0.9818,0.8586,A,0.275
279,0.49799,0.1,2,0.32369,0.2656,0.48139,279,2.09986,0.06,0.0332,0.53119,5,1D2U,1.0,False,0.184,27,True,left,-0.249,1.1872,1.463,0.2757,0.312,0.8363,0.5242,A,0.275
280,0.49799,1.2,1,0.41499,0.30709,0.75529,280,2.52315,0.1,0.0498,0.54779,5,1D2U,2.0,False,0.237,28,True,right,0.083,0.2819,1.1056,0.8237,1.6901,999,997.3099,A,0.27
281,0.49799,1.2,1,0.31539,0.249,0.43989,281,2.17456,0.34,0.166,0.67229,5,2D1U,2.0,False,0.307,26,True,right,-0.249,0.1849,1.1336,0.9487,1.5672,2.0923,0.5251,A,0.27
282,0.49799,0.1,2,0.39009,0.31539,0.48139,282,2.37375,0.38,0.1909,0.68889,5,2D1U,1.0,False,0.417,26,False,left,0.083,1.4256,1.6999,0.2742,0.2171,1.0755,0.8583,A,0.275
283,0.49799,0.1,1,0.29879,0.30709,0.65569,283,2.30735,0.1,0.0498,0.54779,5,1D2U,2.0,False,0.133,28,True,right,-0.249,0.1652,0.9918,0.8267,1.6407,2.1653,0.5245,A,0.275
284,0.49799,1.2,2,0.42329,0.32369,0.74699,284,2.56465,0.14,0.0664,0.57269,5,1D2U,2.0,True,1.317,28,False,right,0.083,1.7235,1.999,0.2756,0.2486,1.1066,0.858,A,0.27
285,0.49799,1.2,2,0.41499,0.2573,0.45649,285,2.34056,0.42,0.2075,0.71379,5,2D1U,2.0,True,0.3,26,False,right,-0.249,1.257,1.5316,0.2746,0.4068,0.9317,0.5249,A,0.27
286,0.49799,0.1,1,0.2822,0.40669,0.74699,286,2.64766,0.42,0.2075,0.71379,5,2D1U,1.0,True,0.15,26,False,left,0.083,0.1472,1.1392,0.992,1.7138,2.5722,0.8584,A,0.275
287,0.49799,0.1,1,0.34029,0.30709,0.70549,287,2.39865,0.1,0.0498,0.54779,5,1D2U,1.0,True,0.342,29,True,left,-0.249,0.2045,1.0291,0.8246,1.729,2.2548,0.5258,A,0.275
288,0.49799,1.2,2,0.2324,0.39009,0.59759,288,2.40696,0.38,0.1909,0.68889,5,2D1U,2.0,True,0.874,27,True,right,0.083,1.386,1.6613,0.2752,0.061,0.9202,0.8592,A,0.27
289,0.49799,1.2,1,0.44819,0.31539,0.76359,289,2.71405,0.38,0.1909,0.68889,5,2D1U,1.0,True,0.256,27,True,left,-0.249,0.3176,1.2851,0.9675,2.0433,2.5681,0.5248,A,0.27
290,0.49799,0.1,2,0.2905,0.2656,0.61419,290,2.34057,0.34,0.166,0.67229,5,2D1U,1.0,False,0.349,27,False,left,0.083,1.4569,1.7307,0.2737,0.1137,0.9713,0.8576,A,0.275
291,0.49799,0.1,1,0.39839,0.249,0.68059,291,2.35716,0.06,0.0332,0.53119,5,1D2U,1.0,True,0.296,29,False,left,-0.249,0.2657,1.0751,0.8095,1.7516,2.2752,0.5236,A,0.275
292,0.49799,1.2,2,0.29879,0.33199,0.65569,292,2.29075,0.02,0.0083,0.50629,5,1D2U,1.0,False,0.534,29,False,left,0.083,1.5105,1.7851,0.2746,0.1263,0.9845,0.8582,A,0.27
293,0.49799,1.2,2,0.35689,0.32369,0.85489,293,2.53975,0.02,0.0083,0.50629,5,1D2U,2.0,True,0.64,29,False,right,-0.249,1.5963,1.8706,0.2743,0.3451,0.8711,0.526,A,0.27
294,0.49799,0.1,2,0.2739,0.2656,0.65569,294,2.18287,-0.02,-0.0083,0.48969,5,1D2U,1.0,True,0.369,29,False,left,0.083,1.4821,1.7572,0.2751,0.0991,0.9567,0.8576,A,0.275
295,0.49799,0.1,2,0.30709,0.2905,0.55609,295,2.34056,0.38,0.1909,0.68889,5,2D1U,2.0,True,0.209,28,True,right,-0.249,1.246,1.5206,0.2745,0.2957,0.8203,0.5246,A,0.275
296,0.49799,1.2,1,0.2739,0.2158,0.85489,296,2.33227,-0.02,-0.0083,0.48969,5,1D2U,2.0,True,0.23,29,False,right,0.083,0.1417,0.9074,0.7657,1.5913,999,997.4087,A,0.27
297,0.49799,1.2,2,0.43159,0.37349,0.58929,297,2.39865,0.02,0.0083,0.50629,5,1D2U,1.0,False,0.333,30,True,left,-0.249,1.4063,1.681,0.2748,0.4221,0.9477,0.5256,A,0.27
298,0.49799,0.1,2,0.37349,0.34029,0.44819,298,2.34885,0.38,0.1909,0.68889,5,2D1U,1.0,False,0.259,28,True,left,0.083,1.3738,1.6475,0.2737,0.1985,1.0562,0.8576,A,0.275
299,0.49799,0.1,2,0.42329,0.37349,0.63909,299,2.64765,0.42,0.2075,0.71379,5,2D1U,2.0,True,0.159,28,False,right,-0.249,1.4464,1.7227,0.2763,0.4133,0.9381,0.5248,A,0.275
300,0.49799,1.2,1,0.2656,0.2573,0.76359,300,2.29077,0.02,0.0083,0.50629,5,1D2U,2.0,False,0.327,30,True,right,0.083,0.1341,0.9167,0.7826,1.5084,999,997.4916,A,0.27
301,0.49799,1.2,2,0.37349,0.32369,0.77189,301,2.68085,0.42,0.2075,0.71379,5,2D1U,2.0,True,0.282,28,False,right,-0.249,1.5298,1.8051,0.2753,0.3635,0.8879,0.5244,A,0.27
302,0.49799,0.1,1,0.32369,0.34029,0.68889,302,2.38205,0.06,0.0332,0.53119,5,1D2U,2.0,False,0.234,30,False,right,0.083,0.1887,0.9961,0.8074,1.5136,2.3714,0.8577,A,0.275
303,0.49799,0.1,1,0.2075,0.2075,0.43989,303,2.04177,0.38,0.1909,0.68889,5,2D1U,2.0,False,0.291,29,True,right,-0.249,0.0713,1.0384,0.9671,1.4722,1.9984,0.5262,A,0.275
304,0.49799,1.2,1,0.40669,0.2324,0.72209,304,2.57296,0.42,0.2075,0.71379,5,2D1U,2.0,False,0.642,30,True,right,0.083,0.2749,1.2662,0.9913,1.8173,999,997.1827,A,0.27
305,0.49799,1.2,1,0.37349,0.38179,0.40669,305,2.19115,0.06,0.0332,0.53119,5,1D2U,1.0,True,0.393,30,False,left,-0.249,0.2434,1.0535,0.8101,1.4532,1.9783,0.5251,A,0.27
306,0.49799,0.1,1,0.39009,0.44819,0.59759,306,2.66425,0.46,0.2324,0.73039,5,2D1U,2.0,False,0.134,30,False,right,0.083,0.2596,1.2683,1.0087,1.6926,2.5514,0.8587,A,0.275
307,0.49799,0.1,1,0.41499,0.34029,0.74699,307,2.74725,0.5,0.249,0.74699,5,2D1U,1.0,True,0.114,30,False,left,-0.249,0.2824,1.3075,1.0252,2.0491,2.5735,0.5243,A,0.275
308,0.49799,1.2,1,0.43159,0.249,0.68059,308,2.60616,0.5,0.249,0.74699,5,2D1U,2.0,False,0.283,30,False,right,0.083,0.2968,1.3228,1.026,1.8315,999,997.1685,A,0.27
309,0.49799,1.2,1,0.2407,0.43989,0.45649,309,2.14136,0.02,0.0083,0.50629,5,1D2U,2.0,False,0.158,31,True,right,-0.249,0.1107,0.8953,0.7845,1.3445,1.8698,0.5252,A,0.27
310,0.49799,0.1,1,0.2407,0.37349,0.78849,310,2.67256,0.54,0.2739,0.77189,5,2D1U,1.0,True,0.226,30,False,left,0.083,0.1106,1.1608,1.0502,1.7766,2.6356,0.859,A,0.275
311,0.49799,0.1,2,0.39839,0.37349,0.61419,311,2.39035,0.02,0.0083,0.50629,5,1D2U,2.0,True,1.638,31,True,right,-0.249,1.3968,1.6719,0.275,0.3893,0.9135,0.5241,A,0.275
312,0.49799,1.2,1,0.34029,0.2324,0.89638,312,2.73895,0.54,0.2739,0.77189,5,2D1U,2.0,False,0.248,30,False,right,0.083,0.2046,1.2546,1.05,1.9793,999,997.0207,A,0.27
313,0.49799,1.2,2,0.2241,0.35689,0.57269,313,2.44016,0.58,0.2905,0.78849,5,2D1U,2.0,True,0.112,30,False,right,-0.249,1.1805,1.4561,0.2756,0.2137,0.7395,0.5258,A,0.27
314,0.49799,0.1,2,0.2656,0.43159,0.71379,314,2.69746,0.58,0.2905,0.78849,5,2D1U,2.0,True,0.108,30,False,right,0.083,1.5298,1.804,0.2741,0.0885,0.9462,0.8578,A,0.275
315,0.49799,0.1,2,0.2241,0.2075,0.46479,315,2.16627,0.54,0.2739,0.77189,5,2D1U,2.0,True,0.365,31,True,right,-0.249,1.0712,1.3456,0.2744,0.2128,0.7375,0.5247,A,0.275
316,0.49799,1.2,2,0.2656,0.43159,0.60589,316,2.29076,-0.02,-0.0083,0.48969,5,1D2U,1.0,True,0.367,31,False,left,0.083,1.4224,1.6974,0.2749,0.0877,0.947,0.8592,A,0.27
317,0.49799,1.2,2,0.2656,0.2324,0.80509,317,2.29077,-0.02,-0.0083,0.48969,5,1D2U,2.0,False,0.292,31,False,right,-0.249,1.4563,1.7314,0.2751,0.2566,0.7816,0.525,A,0.27
318,0.49799,0.1,1,0.41499,0.2656,0.73869,318,2.68916,0.54,0.2739,0.77189,5,2D1U,2.0,False,0.409,31,True,right,0.083,0.2856,1.3346,1.049,1.9011,999,997.0989,A,0.275
319,0.49799,0.1,1,0.2656,0.2407,0.39839,319,1.87577,-0.06,-0.0332,0.47309,5,1D2U,2.0,True,0.441,31,False,right,-0.249,0.1339,0.8843,0.7504,1.2758,1.8008,0.525,A,0.275
320,0.49799,1.2,1,0.29879,0.33199,0.74699,320,2.34885,-0.06,-0.0332,0.47309,5,1D2U,2.0,True,0.467,31,False,right,0.083,0.1662,0.9166,0.7504,1.4914,2.3495,0.8581,A,0.27
321,0.49799,1.2,1,0.2324,0.39009,0.56439,321,2.47336,0.58,0.2905,0.78849,5,2D1U,1.0,True,0.242,32,True,left,-0.249,0.1021,1.1688,1.0667,1.7271,2.2522,0.5252,A,0.27
322,0.49799,0.1,2,0.36519,0.2324,0.63909,322,2.52316,0.58,0.2905,0.78849,5,2D1U,2.0,True,0.3,32,True,right,0.083,1.5589,1.8338,0.275,0.1923,1.0514,0.8591,A,0.275
323,0.49799,0.1,1,0.33199,0.39839,0.72209,323,2.44015,-0.02,-0.0083,0.48969,5,1D2U,2.0,True,0.4,32,True,right,-0.249,0.1988,0.9656,0.7667,1.6819,2.2072,0.5253,A,0.275
324,0.49799,1.2,2,0.2324,0.249,0.52289,324,1.99197,-0.02,-0.0083,0.48969,5,1D2U,1.0,True,0.416,32,True,left,0.083,1.3091,1.584,0.2749,0.0589,0.9175,0.8586,A,0.27
325,0.49799,1.2,1,0.43159,0.39839,0.55609,325,2.65595,0.54,0.2739,0.77189,5,2D1U,1.0,True,0.435,33,True,left,-0.249,0.295,1.3451,1.0501,1.8958,2.4215,0.5258,A,0.27
326,0.49799,0.1,1,0.31539,0.39009,0.78849,326,2.49825,0.02,0.0083,0.50629,5,1D2U,2.0,False,0.201,32,False,right,0.083,0.1797,0.9632,0.7835,1.5799,2.4381,0.8582,A,0.275
327,0.49799,0.1,2,0.2324,0.2158,0.74699,327,2.46507,0.54,0.2739,0.77189,5,2D1U,2.0,True,0.4,33,True,right,-0.249,1.3647,1.6396,0.2749,0.2231,0.7482,0.5251,A,0.275
328,0.49799,1.2,1,0.1992,0.37349,0.78849,328,2.36546,0.02,0.0083,0.50629,5,1D2U,1.0,True,0.376,32,False,left,0.083,0.0639,0.8472,0.7833,1.464,2.3237,0.8597,A,0.27
329,0.49799,1.2,2,0.39009,0.2158,0.57269,329,2.42356,0.5,0.249,0.74699,5,2D1U,2.0,True,0.43,33,False,right,-0.249,1.3477,1.6241,0.2764,0.3814,0.9063,0.5249,A,0.27
330,0.49799,0.1,1,0.2905,0.2739,0.43159,330,1.98367,-0.02,-0.0083,0.48969,5,1D2U,1.0,False,0.397,33,True,left,0.083,0.1573,0.925,0.7677,1.1829,999,997.8171,A,0.275
331,0.49799,0.1,1,0.2905,0.36519,0.50629,331,2.40696,0.5,0.249,0.74699,5,2D1U,1.0,True,0.113,33,False,left,-0.249,0.1604,1.1857,1.0253,1.6858,2.2106,0.5248,A,0.275
332,0.49799,1.2,2,0.34029,0.44819,0.45649,332,2.21605,-0.06,-0.0332,0.47309,5,1D2U,1.0,True,0.262,33,False,left,0.083,1.3448,1.6202,0.2754,0.1618,1.0199,0.8581,A,0.27
333,0.49799,1.2,2,0.40669,0.38179,0.78019,333,2.53975,-0.06,-0.0332,0.47309,5,1D2U,2.0,False,0.601,33,False,right,-0.249,1.5773,1.8527,0.2754,0.4021,0.9269,0.5248,A,0.27
334,0.49799,0.1,2,0.37349,0.37349,0.70549,334,2.68085,0.46,0.2324,0.73039,5,2D1U,2.0,True,0.164,33,False,right,0.083,1.6307,1.9056,0.2749,0.1969,1.0557,0.8587,A,0.275
335,0.49799,0.1,1,0.2407,0.34029,0.52289,335,2.05006,-0.1,-0.0498,0.44819,5,1D2U,1.0,False,0.399,33,False,left,-0.249,0.1101,0.8355,0.7254,1.3517,1.8767,0.525,A,0.275
336,0.49799,1.2,2,0.2573,0.43989,0.80509,336,2.73066,0.46,0.2324,0.73039,5,2D1U,2.0,True,0.484,33,False,right,0.083,1.6192,1.8939,0.2747,0.0853,0.9436,0.8583,A,0.27
337,0.49799,1.2,1,0.2158,0.249,0.40669,337,2.08327,0.42,0.2075,0.71379,5,2D1U,1.0,True,0.309,33,False,left,-0.249,0.0832,1.0751,0.992,1.4745,1.9999,0.5254,A,0.27
338,0.49799,0.1,2,0.29879,0.39839,0.87979,338,2.78875,0.42,0.2075,0.71379,5,2D1U,2.0,True,0.732,33,False,right,0.083,1.7312,2.0062,0.275,0.123,0.9817,0.8587,A,0.275
339,0.49799,0.1,1,0.39009,0.249,0.80509,339,2.37376,-0.14,-0.0664,0.43159,5,1D2U,2.0,True,0.385,33,False,right,-0.249,0.2539,0.9622,0.7083,1.7623,2.2873,0.5249,A,0.275
340,0.49799,1.2,1,0.31539,0.39839,0.80509,340,2.70575,0.38,0.1909,0.68889,5,2D1U,1.0,True,0.239,33,False,left,0.083,0.1807,1.1469,0.9662,1.7809,2.6398,0.8589,A,0.27
341,0.49799,1.2,2,0.29879,0.2656,0.54779,341,2.04176,-0.14,-0.0664,0.43159,5,1D2U,1.0,True,0.346,33,False,left,-0.249,1.2308,1.5062,0.2754,0.2893,0.8151,0.5259,A,0.27
342,0.49799,0.1,1,0.249,0.33199,0.53949,342,2.06666,-0.1,-0.0498,0.44819,5,1D2U,2.0,True,0.243,34,True,right,0.083,0.1148,0.8392,0.7245,1.2066,2.0646,0.858,A,0.275
343,0.49799,0.1,2,0.2573,0.43989,0.65569,343,2.53976,0.38,0.1909,0.68889,5,2D1U,2.0,True,1.034,33,False,right,-0.249,1.2971,1.572,0.2748,0.2465,0.7713,0.5248,A,0.275
344,0.49799,1.2,2,0.34859,0.40669,0.71379,344,2.63935,0.34,0.166,0.67229,5,2D1U,2.0,True,0.26,33,False,right,0.083,1.6199,1.8943,0.2743,0.1784,1.0368,0.8584,A,0.27
345,0.49799,1.2,2,0.249,0.36519,0.59759,345,2.38206,0.34,0.166,0.67229,5,2D1U,2.0,True,0.274,33,False,right,-0.249,1.2363,1.5108,0.2746,0.2438,0.7691,0.5254,A,0.27
346,0.49799,0.1,2,0.41499,0.2241,0.53119,346,2.11646,-0.1,-0.0498,0.44819,5,1D2U,1.0,True,0.198,34,True,left,0.083,1.4973,1.7711,0.2738,0.238,1.097,0.859,A,0.275
347,0.49799,0.1,1,0.2739,0.33199,0.78019,347,2.53146,0.3,0.1494,0.64739,5,2D1U,1.0,True,0.448,33,False,left,-0.249,0.1397,1.0655,0.9257,1.841,2.3654,0.5245,A,0.275
348,0.49799,1.2,2,0.35689,0.43989,0.48969,348,2.43185,0.3,0.1494,0.64739,5,2D1U,2.0,True,0.351,33,False,right,0.083,1.397,1.6719,0.2749,0.1809,1.0385,0.8576,A,0.27
349,0.49799,1.2,2,0.34859,0.2407,0.45649,349,2.01686,-0.06,-0.0332,0.47309,5,1D2U,2.0,False,0.448,34,False,right,-0.249,1.19,1.4652,0.2752,0.3396,0.865,0.5254,A,0.27
350,0.49799,0.1,2,0.42329,0.2075,0.42329,350,2.00026,-0.1,-0.0498,0.44819,5,1D2U,1.0,True,0.691,35,True,left,0.083,1.3974,1.6724,0.275,0.2476,1.1059,0.8583,A,0.275
351,0.49799,0.1,2,0.34029,0.37349,0.73869,351,2.58125,0.26,0.1328,0.63079,5,2D1U,1.0,False,0.325,33,False,left,-0.249,1.4616,1.7365,0.2748,0.3281,0.8533,0.5252,A,0.275
352,0.49799,1.2,1,0.2075,0.30709,0.44819,352,2.10816,0.3,0.1494,0.64739,5,2D1U,2.0,False,0.401,34,True,right,0.083,0.072,0.9969,0.9249,1.272,999,997.728,A,0.27
353,0.49799,1.2,2,0.35689,0.39839,0.67229,353,2.59785,0.34,0.166,0.67229,5,2D1U,2.0,True,1.484,34,False,right,-0.249,1.4192,1.6949,0.2757,0.3535,0.8775,0.5239,A,0.27
354,0.49799,0.1,2,0.32369,0.40669,0.43989,354,2.11645,-0.1,-0.0498,0.44819,5,1D2U,1.0,True,0.867,35,True,left,0.083,1.3157,1.5893,0.2737,0.1479,1.0072,0.8592,A,0.275
355,0.49799,0.1,2,0.2241,0.35689,0.89638,355,2.44845,-0.06,-0.0332,0.47309,5,1D2U,1.0,True,0.366,36,True,left,-0.249,1.5074,1.7826,0.2752,0.2165,0.741,0.5245,A,0.275
356,0.49799,1.2,1,0.2656,0.2822,0.41499,356,1.93387,-0.06,-0.0332,0.47309,5,1D2U,2.0,True,0.332,36,True,right,0.083,0.1313,0.8812,0.7499,1.1226,999,997.8774,A,0.27
357,0.49799,1.2,1,0.2739,0.35689,0.73869,357,2.35716,-0.02,-0.0083,0.48969,5,1D2U,2.0,True,0.257,36,False,right,-0.249,0.1372,0.9037,0.7664,1.6371,2.1613,0.5242,A,0.27
358,0.49799,0.1,1,0.2075,0.40669,0.78019,358,2.56466,0.34,0.166,0.67229,5,2D1U,1.0,True,0.216,34,False,left,0.083,0.0796,1.0275,0.9479,1.637,2.4953,0.8583,A,0.275
359,0.49799,0.1,1,0.2822,0.40669,0.52289,359,2.19946,-0.02,-0.0083,0.48969,5,1D2U,1.0,False,0.476,36,False,left,-0.249,0.1514,0.9179,0.7665,1.4349,1.9595,0.5246,A,0.275
360,0.49799,1.2,1,0.31539,0.2241,0.58099,360,2.26586,0.3,0.1494,0.64739,5,2D1U,2.0,False,1.231,35,True,right,0.083,0.1797,1.1055,0.9259,1.5134,999,997.4866,A,0.27
361,0.49799,1.2,2,0.33199,0.2075,0.46479,361,2.17456,0.34,0.166,0.67229,5,2D1U,2.0,True,0.324,36,True,right,-0.249,1.1819,1.4568,0.2749,0.3239,0.849,0.525,A,0.27
362,0.49799,0.1,1,0.36519,0.34859,0.53119,362,2.21605,-0.06,-0.0332,0.47309,5,1D2U,1.0,False,0.357,37,True,left,0.083,0.2298,0.9798,0.75,1.338,2.1968,0.8588,A,0.275
363,0.49799,0.1,2,0.37349,0.2905,0.51459,363,2.12476,-0.1,-0.0498,0.44819,5,1D2U,1.0,True,0.528,37,False,left,-0.249,1.2705,1.545,0.2746,0.3627,0.8871,0.5244,A,0.275
364,0.49799,1.2,2,0.37349,0.31539,0.65569,364,2.51485,0.34,0.166,0.67229,5,2D1U,2.0,True,0.276,36,True,right,0.083,1.5828,1.8578,0.275,0.1995,1.0589,0.8594,A,0.27
365,0.49799,1.2,2,0.40669,0.249,0.84659,365,2.64766,0.3,0.1494,0.64739,5,2D1U,1.0,False,0.237,37,True,left,-0.249,1.6413,1.9157,0.2744,0.3989,0.925,0.5261,A,0.27
366,0.49799,0.1,2,0.2656,0.2656,0.71379,366,2.19117,-0.1,-0.0498,0.44819,5,1D2U,1.0,True,0.375,37,False,left,0.083,1.5361,1.8114,0.2752,0.0944,0.9532,0.8588,A,0.275
367,0.49799,0.1,1,0.36519,0.37349,0.79679,367,2.50655,-0.06,-0.0332,0.47309,5,1D2U,1.0,False,0.47,38,True,left,-0.249,0.2314,0.9808,0.7494,1.7728,2.2978,0.525,A,0.275
368,0.49799,1.2,1,0.2158,0.41499,0.52289,368,2.09986,-0.1,-0.0498,0.44819,5,1D2U,2.0,True,0.201,39,True,right,0.083,0.0818,0.8053,0.7236,1.1557,2.0137,0.858,A,0.27
369,0.49799,1.2,2,0.2656,0.34859,0.62249,369,2.18286,-0.1,-0.0498,0.44819,5,1D2U,1.0,True,0.307,39,True,left,-0.249,1.2742,1.5499,0.2757,0.2576,0.784,0.5265,A,0.27
370,0.49799,0.1,2,0.30709,0.35689,0.52289,370,2.35715,0.34,0.166,0.67229,5,2D1U,2.0,True,0.51,38,True,right,0.083,1.3797,1.6546,0.2749,0.1294,0.9877,0.8583,A,0.275
371,0.49799,0.1,1,0.40669,0.2075,0.59759,371,2.18286,-0.06,-0.0332,0.47309,5,1D2U,2.0,True,0.347,40,True,right,-0.249,0.2773,1.0275,0.7502,1.619,2.1441,0.5251,A,0.275
372,0.49799,1.2,2,0.39839,0.2324,0.67229,372,2.47336,0.34,0.166,0.67229,5,2D1U,1.0,False,0.284,38,True,left,0.083,1.627,1.9022,0.2752,0.2265,1.0852,0.8587,A,0.27
373,0.49799,1.2,2,0.36519,0.43159,0.82999,373,2.59785,-0.06,-0.0332,0.47309,5,1D2U,1.0,True,0.408,40,True,left,-0.249,1.5852,1.8594,0.2741,0.3592,0.8838,0.5246,A,0.27
374,0.49799,0.1,2,0.2656,0.2656,0.62249,374,2.34057,0.38,0.1909,0.68889,5,2D1U,2.0,True,0.3,38,False,right,0.083,1.4452,1.7197,0.2745,0.0951,0.9535,0.8584,A,0.275
375,0.49799,0.1,1,0.2573,0.39009,0.43159,375,2.06666,-0.02,-0.0083,0.48969,5,1D2U,1.0,False,0.11,40,False,left,-0.249,0.1221,0.8881,0.7661,1.313,1.8381,0.5251,A,0.275
376,0.49799,1.2,2,0.44819,0.34859,0.74699,376,2.51485,-0.06,-0.0332,0.47309,5,1D2U,1.0,True,0.449,41,True,left,0.083,1.752,2.027,0.275,0.2763,1.1355,0.8593,A,0.27
377,0.49799,1.2,2,0.39009,0.40669,0.62249,377,2.39035,-0.06,-0.0332,0.47309,5,1D2U,2.0,False,0.463,41,True,right,-0.249,1.3957,1.67,0.2743,0.3779,0.9035,0.5256,A,0.27
378,0.49799,0.1,1,0.2075,0.2822,0.42329,378,2.09987,0.38,0.1909,0.68889,5,2D1U,1.0,True,0.351,38,False,left,0.083,0.0734,1.0399,0.9665,1.2905,999,997.7095,A,0.275
379,0.49799,0.1,1,0.2407,0.40669,0.60589,379,2.42356,0.34,0.166,0.67229,5,2D1U,1.0,True,0.234,39,True,left,-0.249,0.1092,1.0594,0.9502,1.6592,2.1846,0.5253,A,0.275
380,0.49799,1.2,2,0.30709,0.2905,0.87979,380,2.42356,-0.1,-0.0498,0.44819,5,1D2U,1.0,True,0.517,41,False,left,0.083,1.7386,2.0137,0.2751,0.1302,0.9894,0.8592,A,0.27
381,0.49799,1.2,2,0.2905,0.39839,0.70549,381,2.56466,0.34,0.166,0.67229,5,2D1U,2.0,True,0.292,39,True,right,-0.249,1.3803,1.6555,0.2752,0.2812,0.8062,0.525,A,0.27
382,0.49799,0.1,1,0.2407,0.34029,0.80509,382,2.53146,0.3,0.1494,0.64739,5,2D1U,2.0,False,0.388,39,False,right,0.083,0.1104,1.0342,0.9239,1.6686,2.5271,0.8585,A,0.275
383,0.49799,0.1,1,0.36519,0.30709,0.71379,383,2.33225,-0.1,-0.0498,0.44819,5,1D2U,2.0,True,0.992,41,False,right,-0.249,0.2313,0.9571,0.7258,1.6657,2.1904,0.5247,A,0.275
384,0.49799,1.2,1,0.249,0.1992,0.73869,384,2.15797,-0.06,-0.0332,0.47309,5,1D2U,2.0,True,0.625,42,True,right,0.083,0.1205,0.8708,0.7503,1.4365,999,997.5635,A,0.27
385,0.49799,1.2,2,0.39009,0.2739,0.65569,385,2.48996,0.34,0.166,0.67229,5,2D1U,1.0,False,0.659,40,True,left,-0.249,1.4368,1.7113,0.2745,0.387,0.9111,0.5241,A,0.27
386,0.49799,0.1,1,0.2075,0.42329,0.81339,386,2.63106,0.38,0.1909,0.68889,5,2D1U,1.0,True,0.401,40,False,left,0.083,0.0757,1.0436,0.9679,1.6843,2.5421,0.8578,A,0.275
387,0.49799,0.1,1,0.32369,0.37349,0.67229,387,2.34055,-0.06,-0.0332,0.47309,5,1D2U,1.0,False,0.572,42,True,left,-0.249,0.1872,0.936,0.7488,1.6029,2.1287,0.5258,A,0.275
388,0.49799,1.2,1,0.2573,0.42329,0.86319,388,2.73066,0.38,0.1909,0.68889,5,2D1U,1.0,True,0.45,40,False,left,0.083,0.1278,1.0947,0.9669,1.7851,2.6435,0.8583,A,0.27
389,0.49799,1.2,2,0.42329,0.43159,0.80509,389,2.60615,-0.1,-0.0498,0.44819,5,1D2U,1.0,True,2.201,43,True,left,-0.249,1.6158,1.8909,0.2751,0.4162,0.9412,0.5251,A,0.27
390,0.49799,0.1,2,0.39839,0.2573,0.77189,390,2.59786,0.34,0.166,0.67229,5,2D1U,2.0,True,0.609,41,True,right,0.083,1.7233,1.9988,0.2755,0.2233,1.0818,0.8585,A,0.275
391,0.49799,0.1,2,0.2324,0.2324,0.82999,391,2.46507,0.34,0.166,0.67229,5,2D1U,1.0,False,0.359,41,True,left,-0.249,1.4529,1.7274,0.2745,0.2282,0.7525,0.5243,A,0.275
392,0.49799,1.2,1,0.44819,0.2075,0.62249,392,2.22436,-0.1,-0.0498,0.44819,5,1D2U,2.0,True,1.13,43,True,right,0.083,0.3206,1.0446,0.724,1.4949,999,997.5051,A,0.27
393,0.49799,1.2,2,0.42329,0.37349,0.61419,393,2.59785,0.38,0.1909,0.68889,5,2D1U,1.0,False,0.388,42,True,left,-0.249,1.4195,1.6946,0.2751,0.4111,0.9366,0.5255,A,0.27
394,0.49799,0.1,1,0.39009,0.2822,0.53949,394,2.42356,0.42,0.2075,0.71379,5,2D1U,1.0,True,0.387,42,False,left,0.083,0.2562,1.2478,0.9915,1.6153,999,997.3847,A,0.275
395,0.49799,0.1,2,0.2075,0.44819,0.79679,395,2.66426,0.42,0.2075,0.71379,5,2D1U,2.0,True,0.567,42,False,right,-0.249,1.3901,1.6651,0.275,0.1973,0.7226,0.5253,A,0.275
396,0.49799,1.2,2,0.30709,0.2905,0.74699,396,2.53146,0.38,0.1909,0.68889,5,2D1U,1.0,False,0.109,43,True,left,0.083,1.6055,1.8823,0.2768,0.131,0.9891,0.8581,A,0.27
397,0.49799,1.2,2,0.39009,0.39839,0.58099,397,2.34055,-0.06,-0.0332,0.47309,5,1D2U,1.0,True,0.275,44,True,left,-0.249,1.3621,1.6361,0.274,0.3859,0.91,0.5241,A,0.27
398,0.49799,0.1,1,0.38179,0.36519,0.59759,398,2.31565,-0.06,-0.0332,0.47309,5,1D2U,2.0,True,0.3,44,True,right,0.083,0.2516,1.0022,0.7506,1.4269,2.2856,0.8587,A,0.275
399,0.49799,0.1,2,0.35689,0.39009,0.87979,399,2.83855,0.42,0.2075,0.71379,5,2D1U,1.0,False,0.741,44,True,left,-0.249,1.6258,1.9003,0.2745,0.3511,0.8755,0.5243,A,0.275
400,0.49799,1.2,2,0.42329,0.37349,0.44819,400,2.23265,-0.02,-0.0083,0.48969,5,1D2U,2.0,False,0.296,44,False,right,0.083,1.4248,1.6998,0.275,0.249,1.1081,0.8591,A,0.27
401,0.49799,1.2,1,0.43989,0.40669,0.45649,401,2.53145,0.46,0.2324,0.73039,5,2D1U,2.0,False,0.275,44,False,right,-0.249,0.3107,1.3194,1.0087,1.7698,2.2948,0.525,A,0.27
402,0.49799,0.1,2,0.249,0.34029,0.63909,402,2.19946,-0.06,-0.0332,0.47309,5,1D2U,1.0,True,0.344,45,True,left,0.083,1.4367,1.7119,0.2752,0.0698,0.9281,0.8583,A,0.275
403,0.49799,0.1,2,0.42329,0.2739,0.47309,403,2.41526,0.5,0.249,0.74699,5,2D1U,2.0,True,0.292,44,False,right,-0.249,1.2819,1.5566,0.2746,0.4147,0.9396,0.5249,A,0.275
404,0.49799,1.2,2,0.34859,0.35689,0.49799,404,2.17455,-0.06,-0.0332,0.47309,5,1D2U,1.0,True,0.429,45,True,left,0.083,1.3969,1.6731,0.2762,0.1722,1.0309,0.8587,A,0.27
405,0.49799,1.2,2,0.32369,0.2075,0.49799,405,2.27416,0.5,0.249,0.74699,5,2D1U,2.0,True,0.408,44,False,right,-0.249,1.2059,1.481,0.2751,0.3145,0.8395,0.5249,A,0.27
406,0.49799,0.1,1,0.40669,0.2241,0.68889,406,2.54806,0.46,0.2324,0.73039,5,2D1U,1.0,True,0.377,45,True,left,0.083,0.2719,1.2795,1.0076,1.7968,999,997.2032,A,0.275
407,0.49799,0.1,2,0.2324,0.34859,0.68889,407,2.25756,-0.02,-0.0083,0.48969,5,1D2U,1.0,True,0.383,46,True,left,-0.249,1.3094,1.5853,0.2759,0.2269,0.7517,0.5248,A,0.275
408,0.49799,1.2,1,0.40669,0.1992,0.81339,408,2.64766,0.46,0.2324,0.73039,5,2D1U,1.0,True,0.4,45,True,left,0.083,0.2766,1.2833,1.0067,1.9256,999,997.0744,A,0.27
409,0.49799,1.2,2,0.43159,0.29879,0.63079,409,2.57295,0.42,0.2075,0.71379,5,2D1U,2.0,True,0.353,45,False,right,-0.249,1.4496,1.7241,0.2745,0.4246,0.9491,0.5244,A,0.27
410,0.49799,0.1,2,0.43989,0.37349,0.83829,410,2.63935,-0.02,-0.0083,0.48969,5,1D2U,1.0,True,0.312,46,True,left,0.083,1.8283,2.1038,0.2755,0.2619,1.1192,0.8573,A,0.275
411,0.49799,0.1,2,0.43159,0.39009,0.53949,411,2.57295,0.42,0.2075,0.71379,5,2D1U,2.0,True,0.675,45,False,right,-0.249,1.3556,1.6318,0.2761,0.4228,0.9476,0.5248,A,0.275
412,0.49799,1.2,1,0.2075,0.36519,0.50629,412,2.08326,0.02,0.0083,0.50629,5,1D2U,1.0,True,0.429,46,False,left,0.083,0.0766,0.8605,0.7839,1.194,2.0514,0.8574,A,0.27
413,0.49799,1.2,2,0.32369,0.43989,0.84659,413,2.59785,-0.02,-0.0083,0.48969,5,1D2U,2.0,False,0.358,47,True,right,-0.249,1.5567,1.8313,0.2747,0.314,0.8401,0.5261,A,0.27
414,0.49799,0.1,1,0.2075,0.2822,0.58929,414,2.26587,0.38,0.1909,0.68889,5,2D1U,2.0,False,0.301,45,False,right,0.083,0.0724,1.0401,0.9677,1.4558,999,997.5442,A,0.275
415,0.49799,0.1,2,0.249,0.43989,0.53949,415,2.44016,0.42,0.2075,0.71379,5,2D1U,2.0,True,0.526,46,True,right,-0.249,1.1775,1.4518,0.2743,0.2431,0.7678,0.5247,A,0.275
416,0.49799,1.2,1,0.39839,0.34029,0.59759,416,2.30735,-0.06,-0.0332,0.47309,5,1D2U,1.0,False,0.447,47,False,left,0.083,0.2638,1.0137,0.7499,1.4393,2.2972,0.8578,A,0.27
417,0.49799,1.2,2,0.43989,0.2241,0.81339,417,2.68916,0.42,0.2075,0.71379,5,2D1U,1.0,False,0.502,46,True,left,-0.249,1.6393,1.9144,0.2751,0.4305,0.956,0.5255,A,0.27
418,0.49799,0.1,1,0.40669,0.42329,0.41499,418,2.19115,-0.1,-0.0498,0.44819,5,1D2U,2.0,True,0.374,47,False,right,0.083,0.2773,1.0023,0.725,1.244,2.1021,0.8581,A,0.275
419,0.49799,0.1,1,0.32369,0.2905,0.43989,419,2.28246,0.46,0.2324,0.73039,5,2D1U,1.0,True,0.2,46,False,left,-0.249,0.1878,1.1955,1.0077,1.6288,2.154,0.5252,A,0.275
420,0.49799,1.2,2,0.2905,0.35689,0.48969,420,2.08326,-0.1,-0.0498,0.44819,5,1D2U,1.0,True,0.299,47,False,left,0.083,1.3319,1.6064,0.2745,0.1153,0.9746,0.8592,A,0.27
421,0.49799,1.2,2,0.35689,0.31539,0.64739,421,2.29075,-0.06,-0.0332,0.47309,5,1D2U,1.0,True,0.332,48,True,left,-0.249,1.388,1.6626,0.2746,0.3467,0.8708,0.5241,A,0.27
422,0.49799,0.1,1,0.34029,0.37349,0.76359,422,2.70575,0.46,0.2324,0.73039,5,2D1U,1.0,True,0.301,46,False,left,0.083,0.2068,1.2151,1.0084,1.8063,2.6646,0.8582,A,0.275
423,0.49799,0.1,2,0.31539,0.2905,0.43159,423,2.24926,0.42,0.2075,0.71379,5,2D1U,2.0,True,0.324,47,True,right,-0.249,1.1312,1.4055,0.2743,0.3064,0.8302,0.5238,A,0.275
424,0.49799,1.2,2,0.29879,0.34859,0.63079,424,2.24925,-0.06,-0.0332,0.47309,5,1D2U,1.0,True,1.357,48,True,left,0.083,1.4799,1.7547,0.2747,0.1216,0.9797,0.8581,A,0.27
425,0.49799,1.2,1,0.40669,0.43159,0.43159,425,2.48165,0.42,0.2075,0.71379,5,2D1U,1.0,True,0.284,47,True,left,-0.249,0.2766,1.2687,0.9921,1.6938,2.2187,0.525,A,0.27
426,0.49799,0.1,2,0.2822,0.36519,0.87979,426,2.71406,0.38,0.1909,0.68889,5,2D1U,1.0,False,0.283,47,False,left,0.083,1.7192,1.9935,0.2743,0.1107,0.9684,0.8576,A,0.275
427,0.49799,0.1,1,0.2324,0.2158,0.62249,427,2.05837,-0.02,-0.0083,0.48969,5,1D2U,2.0,True,0.432,48,False,right,-0.249,0.0984,0.8647,0.7664,1.4811,2.0068,0.5257,A,0.275
428,0.49799,1.2,2,0.38179,0.2075,0.75529,428,2.55636,0.42,0.2075,0.71379,5,2D1U,1.0,False,0.831,48,True,left,0.083,1.6908,1.9659,0.2751,0.2073,1.0659,0.8586,A,0.27
429,0.49799,1.2,1,0.38179,0.2407,0.71379,429,2.32396,-0.02,-0.0083,0.48969,5,1D2U,2.0,True,0.259,48,False,right,-0.249,0.2499,1.0166,0.7667,1.7251,2.2494,0.5243,A,0.27
430,0.49799,0.1,2,0.33199,0.33199,0.51459,430,2.18285,0.02,0.0083,0.50629,5,1D2U,1.0,False,0.283,48,False,left,0.083,1.4026,1.6784,0.2758,0.1617,1.0202,0.8585,A,0.275
431,0.49799,0.1,2,0.33199,0.43989,0.78849,431,2.56465,0.02,0.0083,0.50629,5,1D2U,1.0,False,0.301,48,False,left,-0.249,1.5055,1.7791,0.2735,0.3223,0.8457,0.5234,A,0.275
432,0.49799,1.2,1,0.43989,0.29879,0.70549,432,2.47335,0.06,0.0332,0.53119,5,1D2U,2.0,False,0.299,48,False,right,0.083,0.3041,1.1126,0.8086,1.6452,999,997.3548,A,0.27
433,0.49799,1.2,1,0.2573,0.2739,0.74699,433,2.50657,0.46,0.2324,0.73039,5,2D1U,1.0,True,0.484,48,False,left,-0.249,0.1271,1.1366,1.0095,1.8781,2.403,0.5249,A,0.27
434,0.49799,0.1,1,0.2656,0.35689,0.73039,434,2.38206,0.06,0.0332,0.53119,5,1D2U,2.0,False,0.268,48,False,right,0.083,0.1349,0.9424,0.8075,1.5007,2.3599,0.8591,A,0.275
435,0.49799,0.1,2,0.2739,0.30709,0.82169,435,2.63106,0.46,0.2324,0.73039,5,2D1U,1.0,False,0.114,48,False,left,-0.249,1.4809,1.7557,0.2748,0.2636,0.7887,0.5252,A,0.275
436,0.49799,1.2,2,0.38179,0.2158,0.51459,436,2.15796,0.1,0.0498,0.54779,5,1D2U,1.0,False,0.277,48,False,left,0.083,1.4502,1.7251,0.2749,0.2092,1.0672,0.858,A,0.27
437,0.49799,1.2,2,0.39009,0.39839,0.84659,437,2.88005,0.5,0.249,0.74699,5,2D1U,2.0,True,0.242,48,False,right,-0.249,1.626,1.9014,0.2754,0.3851,0.9101,0.525,A,0.27
438,0.49799,0.1,1,0.2739,0.34029,0.62249,438,2.48166,0.5,0.249,0.74699,5,2D1U,1.0,True,0.49,48,False,left,0.083,0.1366,1.1615,1.0249,1.612,2.4709,0.8589,A,0.275
439,0.49799,0.1,1,0.39839,0.2324,0.87149,439,2.54806,0.1,0.0498,0.54779,5,1D2U,1.0,True,0.384,48,False,left,-0.249,0.2617,1.0882,0.8264,1.9546,2.4789,0.5243,A,0.275
440,0.49799,1.2,2,0.33199,0.36519,0.85489,440,2.58125,0.06,0.0332,0.53119,5,1D2U,2.0,True,0.776,49,True,right,0.083,1.7423,2.0174,0.2752,0.158,1.0163,0.8583,A,0.27
441,0.49799,1.2,2,0.43159,0.42329,0.74699,441,2.60615,0.02,0.0083,0.50629,5,1D2U,1.0,False,0.594,49,False,left,-0.249,1.566,1.8405,0.2745,0.4242,0.9488,0.5246,A,0.27
442,0.49799,0.1,2,0.41499,0.1992,0.84659,442,2.68916,0.46,0.2324,0.73039,5,2D1U,2.0,True,0.309,49,True,right,0.083,1.819,2.094,0.275,0.2441,1.1021,0.858,A,0.275
443,0.49799,0.1,2,0.35689,0.30709,0.47309,443,2.14135,0.02,0.0083,0.50629,5,1D2U,2.0,True,0.349,49,False,right,-0.249,1.2119,1.4867,0.2748,0.3442,0.8707,0.5266,A,0.275
444,0.49799,1.2,2,0.32369,0.249,0.49799,444,2.05836,-0.02,-0.0083,0.48969,5,1D2U,1.0,True,0.603,49,False,left,0.083,1.3741,1.6492,0.2751,0.1491,1.0072,0.8581,A,0.27
445,0.49799,1.2,2,0.2324,0.43989,0.72209,445,2.62276,0.46,0.2324,0.73039,5,2D1U,2.0,True,1.031,49,True,right,-0.249,1.338,1.6141,0.2761,0.2216,0.7474,0.5258,A,0.27
446,0.49799,0.1,1,0.34029,0.2656,0.55609,446,2.37376,0.42,0.2075,0.71379,5,2D1U,1.0,True,0.326,49,False,left,0.083,0.2063,1.1982,0.9919,1.581,999,997.419,A,0.275
447,0.49799,0.1,2,0.34859,0.2407,0.81339,447,2.39036,-0.02,-0.0083,0.48969,5,1D2U,1.0,True,0.376,49,False,left,-0.249,1.5458,1.8207,0.2748,0.3374,0.8627,0.5253,A,0.275
448,0.49799,1.2,2,0.41499,0.43989,0.78019,448,2.63935,0.02,0.0083,0.50629,5,1D2U,1.0,False,0.287,50,True,left,0.083,1.7472,2.022,0.2748,0.2392,1.0967,0.8574,A,0.27
449,0.49799,1.2,2,0.43159,0.38179,0.42329,449,2.44845,0.42,0.2075,0.71379,5,2D1U,2.0,True,0.284,49,False,right,-0.249,1.2399,1.5145,0.2746,0.4229,0.9482,0.5252,A,0.27
450,0.49799,0.1,2,0.37349,0.2158,0.42329,450,2.19946,0.38,0.1909,0.68889,5,2D1U,2.0,True,2.425,49,False,right,0.083,1.3505,1.625,0.2745,0.2002,1.0592,0.859,A,0.275
451,0.49799,0.1,2,0.44819,0.2407,0.83829,451,2.53146,0.02,0.0083,0.50629,5,1D2U,1.0,False,0.272,50,True,left,-0.249,1.6727,1.9475,0.2748,0.439,0.9637,0.5247,A,0.275
452,0.49799,1.2,2,0.2407,0.43159,0.68889,452,2.39036,0.06,0.0332,0.53119,5,1D2U,1.0,False,0.316,50,False,left,0.083,1.4828,1.7577,0.2749,0.0661,0.925,0.859,A,0.27
453,0.49799,1.2,2,0.2075,0.2905,0.73869,453,2.26587,0.06,0.0332,0.53119,5,1D2U,1.0,False,0.216,50,False,left,-0.249,1.3348,1.6095,0.2747,0.2016,0.7258,0.5242,A,0.27
454,0.49799,0.1,2,0.2075,0.36519,0.78849,454,2.54806,0.38,0.1909,0.68889,5,2D1U,2.0,True,0.221,49,False,right,0.083,1.5486,1.8223,0.2737,0.0307,0.8898,0.8591,A,0.275
455,0.49799,0.1,2,0.2241,0.2656,0.52289,455,2.05837,0.1,0.0498,0.54779,5,1D2U,1.0,False,0.113,50,False,left,-0.249,1.1328,1.4076,0.2748,0.2148,0.7411,0.5263,A,0.275
456,0.49799,1.2,1,0.40669,0.33199,0.67229,456,2.58125,0.34,0.166,0.67229,5,2D1U,2.0,False,0.334,49,False,right,0.083,0.274,1.2239,0.9499,1.7242,2.5822,0.8581,A,0.27
457,0.49799,1.2,1,0.34859,0.2407,0.62249,457,2.25756,0.1,0.0498,0.54779,5,1D2U,1.0,True,0.215,50,False,left,-0.249,0.2115,1.0366,0.8251,1.6546,2.179,0.5244,A,0.27
458,0.49799,0.1,2,0.44819,0.2656,0.41499,458,2.31566,0.38,0.1909,0.68889,5,2D1U,2.0,True,0.274,50,True,right,0.083,1.4142,1.6895,0.2752,0.2725,1.1315,0.859,A,0.275
459,0.49799,0.1,2,0.36519,0.30709,0.68889,459,2.54805,0.38,0.1909,0.68889,5,2D1U,2.0,True,0.285,50,True,right,-0.249,1.4383,1.7131,0.2748,0.3546,0.8788,0.5242,A,0.275
460,0.49799,1.2,2,0.30709,0.38179,0.48139,460,2.19945,0.06,0.0332,0.53119,5,1D2U,2.0,True,0.275,51,True,right,0.083,1.3394,1.6151,0.2757,0.1305,0.9898,0.8594,A,0.27
461,0.49799,1.2,1,0.35689,0.2905,0.53119,461,2.34886,0.34,0.166,0.67229,5,2D1U,1.0,True,0.193,51,True,left,-0.249,0.2231,1.1729,0.9497,1.6978,2.2232,0.5254,A,0.27
462,0.49799,0.1,1,0.43989,0.1992,0.44819,462,2.25756,0.34,0.166,0.67229,5,2D1U,1.0,True,0.33,51,True,left,0.083,0.3049,1.2549,0.95,1.5298,999,997.4702,A,0.275
463,0.49799,0.1,2,0.43989,0.41499,0.82999,463,2.68915,0.02,0.0083,0.50629,5,1D2U,1.0,False,0.224,51,False,left,-0.249,1.6612,1.9365,0.2753,0.4366,0.9618,0.5252,A,0.275
464,0.49799,1.2,1,0.40669,0.34859,0.66399,464,2.42355,0.02,0.0083,0.50629,5,1D2U,2.0,False,0.248,51,False,right,0.083,0.2733,1.0569,0.7836,1.5482,2.4065,0.8582,A,0.27
465,0.49799,1.2,1,0.33199,0.42329,0.53119,465,2.43185,0.3,0.1494,0.64739,5,2D1U,2.0,False,0.305,51,False,right,-0.249,0.1969,1.1212,0.9243,1.6464,2.1715,0.5251,A,0.27
466,0.49799,0.1,1,0.31539,0.40669,0.62249,466,2.51485,0.34,0.166,0.67229,5,2D1U,1.0,True,0.258,52,True,left,0.083,0.1787,1.1289,0.9502,1.5795,2.4377,0.8583,A,0.275
467,0.49799,0.1,2,0.31539,0.33199,0.53119,467,2.20775,0.06,0.0332,0.53119,5,1D2U,2.0,True,0.261,52,True,right,-0.249,1.2351,1.5108,0.2757,0.3099,0.8351,0.5252,A,0.275
468,0.49799,1.2,1,0.43159,0.2656,0.68889,468,2.55636,0.34,0.166,0.67229,5,2D1U,2.0,False,0.429,52,True,right,0.083,0.2953,1.2454,0.9501,1.7616,999,997.2384,A,0.27
469,0.49799,1.2,1,0.39009,0.41499,0.58929,469,2.39865,0.02,0.0083,0.50629,5,1D2U,1.0,True,0.259,53,True,left,-0.249,0.2571,1.0409,0.7838,1.624,2.1491,0.5251,A,0.27
470,0.49799,0.1,1,0.33199,0.31539,0.78849,470,2.42355,-0.02,-0.0083,0.48969,5,1D2U,2.0,True,0.288,53,False,right,0.083,0.1955,0.9633,0.7677,1.5797,999,997.4203,A,0.275
471,0.49799,0.1,2,0.2075,0.34859,0.68889,471,2.23266,-0.02,-0.0083,0.48969,5,1D2U,1.0,True,0.45,53,False,left,-0.249,1.2856,1.5607,0.2752,0.2034,0.7276,0.5242,A,0.275
472,0.49799,1.2,2,0.2739,0.33199,0.45649,472,2.24926,0.38,0.1909,0.68889,5,2D1U,1.0,False,0.159,52,False,left,0.083,1.2811,1.5551,0.2741,0.0968,0.9554,0.8587,A,0.27
473,0.49799,1.2,2,0.43989,0.2407,0.86319,473,2.75556,0.42,0.2075,0.71379,5,2D1U,2.0,True,0.282,52,False,right,-0.249,1.6906,1.9651,0.2745,0.4317,0.957,0.5253,A,0.27
474,0.49799,0.1,1,0.2573,0.2324,0.68889,474,2.18287,0.02,0.0083,0.50629,5,1D2U,1.0,True,0.308,54,True,left,0.083,0.1215,0.9053,0.7838,1.4223,999,997.5777,A,0.275
475,0.49799,0.1,1,0.29879,0.2822,0.75529,475,2.54806,0.42,0.2075,0.71379,5,2D1U,1.0,True,0.501,52,False,left,-0.249,0.1701,1.1609,0.9908,1.9101,2.4348,0.5247,A,0.275
476,0.49799,1.2,2,0.33199,0.2822,0.47309,476,2.07496,-0.02,-0.0083,0.48969,5,1D2U,1.0,True,0.784,55,True,left,0.083,1.3607,1.6358,0.2751,0.1606,1.0197,0.8592,A,0.27
477,0.49799,1.2,1,0.1992,0.37349,0.54779,477,2.10816,-0.02,-0.0083,0.48969,5,1D2U,2.0,True,0.11,55,True,right,-0.249,0.0652,0.8322,0.767,1.373,1.8981,0.5251,A,0.27
478,0.49799,0.1,1,0.33199,0.2158,0.43989,478,2.17456,0.38,0.1909,0.68889,5,2D1U,1.0,True,0.225,53,True,left,0.083,0.1979,1.1647,0.9668,1.4313,999,997.5687,A,0.275
479,0.49799,0.1,1,0.40669,0.38179,0.43159,479,2.22435,0.02,0.0083,0.50629,5,1D2U,2.0,False,0.208,56,True,right,-0.249,0.2727,1.0558,0.7831,1.4807,2.0052,0.5245,A,0.275
480,0.49799,1.2,2,0.34859,0.2656,0.87149,480,2.67256,0.38,0.1909,0.68889,5,2D1U,2.0,True,0.279,53,True,right,0.083,1.7703,2.0461,0.2758,0.1712,1.0297,0.8585,A,0.27
481,0.49799,1.2,1,0.42329,0.33199,0.40669,481,2.16625,0.02,0.0083,0.50629,5,1D2U,1.0,True,0.165,56,True,left,-0.249,0.2923,1.0755,0.7832,1.4749,2.0006,0.5257,A,0.27
482,0.49799,0.1,1,0.39009,0.39009,0.46479,482,2.41525,0.34,0.166,0.67229,5,2D1U,1.0,True,0.196,53,False,left,0.083,0.2567,1.2069,0.9502,1.4986,2.3561,0.8575,A,0.275
483,0.49799,0.1,1,0.2739,0.43989,0.50629,483,2.39036,0.34,0.166,0.67229,5,2D1U,1.0,True,0.113,53,False,left,-0.249,0.1393,1.0889,0.9497,1.5889,2.1143,0.5254,A,0.275
484,0.49799,1.2,2,0.36519,0.2324,0.85489,484,2.44016,-0.02,-0.0083,0.48969,5,1D2U,1.0,True,0.342,57,True,left,0.083,1.7778,2.0536,0.2758,0.195,1.0541,0.8591,A,0.27
485,0.49799,1.2,2,0.43159,0.38179,0.42329,485,2.22435,-0.02,-0.0083,0.48969,5,1D2U,2.0,False,0.379,57,True,right,-0.249,1.2414,1.516,0.2746,0.4231,0.949,0.5258,A,0.27
486,0.49799,0.1,1,0.2241,0.2905,0.42329,486,2.08327,0.3,0.1494,0.64739,5,2D1U,2.0,False,0.321,53,False,right,0.083,0.0895,1.0142,0.9248,1.2644,999,997.7356,A,0.275
487,0.49799,0.1,2,0.38179,0.1992,0.68059,487,2.23266,-0.06,-0.0332,0.47309,5,1D2U,1.0,True,1.137,57,False,left,-0.249,1.4487,1.7236,0.2749,0.3739,0.8981,0.5242,A,0.275
488,0.49799,1.2,1,0.38179,0.2822,0.43989,488,2.07496,-0.06,-0.0332,0.47309,5,1D2U,2.0,True,0.282,57,False,right,0.083,0.2487,0.9978,0.7491,1.2654,999,997.7346,A,0.27
489,0.49799,1.2,1,0.2324,0.2324,0.75529,489,2.39037,0.34,0.166,0.67229,5,2D1U,2.0,False,0.532,54,True,right,-0.249,0.1006,1.0506,0.95,1.7999,2.3253,0.5254,A,0.27
490,0.49799,0.1,2,0.37349,0.2075,0.79679,490,2.36546,-0.02,-0.0083,0.48969,5,1D2U,2.0,False,0.367,58,True,right,0.083,1.7285,2.0014,0.2729,0.201,1.0598,0.8588,A,0.275
491,0.49799,0.1,2,0.35689,0.36519,0.68889,491,2.38205,-0.06,-0.0332,0.47309,5,1D2U,1.0,True,1.165,59,True,left,-0.249,1.4307,1.7057,0.275,0.3488,0.8729,0.524,A,0.275
492,0.49799,1.2,1,0.29879,0.36519,0.85489,492,2.70575,0.38,0.1909,0.68889,5,2D1U,2.0,False,0.35,54,False,right,0.083,0.1677,1.1349,0.9672,1.8178,2.677,0.8592,A,0.27
493,0.49799,1.2,2,0.2905,0.40669,0.47309,493,2.38206,0.42,0.2075,0.71379,5,2D1U,2.0,True,0.216,54,False,right,-0.249,1.1534,1.4292,0.2758,0.2858,0.8123,0.5264,A,0.27
494,0.49799,0.1,2,0.43989,0.2656,0.77189,494,2.68916,0.42,0.2075,0.71379,5,2D1U,1.0,False,0.534,54,False,left,0.083,1.7699,2.0455,0.2756,0.2695,1.1289,0.8594,A,0.275
495,0.49799,0.1,1,0.2075,0.2158,0.53119,495,2.18287,0.46,0.2324,0.73039,5,2D1U,1.0,True,0.356,54,False,left,-0.249,0.0722,1.081,1.0089,1.6061,2.1312,0.525,A,0.275
496,0.49799,1.2,2,0.34859,0.249,0.77189,496,2.34056,-0.06,-0.0332,0.47309,5,1D2U,1.0,True,0.284,59,True,left,0.083,1.6745,1.9487,0.2742,0.1743,1.0326,0.8583,A,0.27
497,0.49799,1.2,2,0.2407,0.31539,0.81339,497,2.59786,0.46,0.2324,0.73039,5,2D1U,2.0,True,0.145,54,False,right,-0.249,1.4405,1.7157,0.2752,0.2321,0.7574,0.5253,A,0.27
498,0.49799,0.1,1,0.39009,0.30709,0.66399,498,2.57295,0.42,0.2075,0.71379,5,2D1U,1.0,True,0.367,55,True,left,0.083,0.2564,1.2476,0.9912,1.7389,999,997.2611,A,0.275
499,0.49799,0.1,1,0.39009,0.36519,0.68889,499,2.43185,-0.02,-0.0083,0.48969,5,1D2U,2.0,True,0.113,60,True,right,-0.249,0.2602,1.0285,0.7683,1.7098,2.2354,0.5256,A,0.275
500,0.49799,1.2,1,0.39839,0.43159,0.69719,500,2.51485,-0.02,-0.0083,0.48969,5,1D2U,2.0,True,0.168,60,True,right,0.083,0.2632,1.0298,0.7666,1.5545,2.4124,0.8579,A,0.27
501,0.49799,1.2,2,0.37349,0.30709,0.48139,501,2.37375,0.42,0.2075,0.71379,5,2D1U,2.0,True,0.244,55,True,right,-0.249,1.2382,1.5129,0.2747,0.3624,0.8874,0.525,A,0.27
502,0.49799,0.1,1,0.32369,0.2075,0.73869,502,2.45676,0.38,0.1909,0.68889,5,2D1U,1.0,True,0.282,55,False,left,0.083,0.1931,1.1594,0.9663,1.7263,999,997.2737,A,0.275
503,0.49799,0.1,2,0.2656,0.41499,0.69719,503,2.56466,0.38,0.1909,0.68889,5,2D1U,2.0,True,0.215,55,False,right,-0.249,1.3478,1.6236,0.2758,0.2565,0.7814,0.5249,A,0.275
504,0.49799,1.2,2,0.35689,0.2573,0.78849,504,2.40696,0.02,0.0083,0.50629,5,1D2U,1.0,False,0.451,60,False,left,0.083,1.7016,1.9768,0.2753,0.1848,1.0428,0.858,A,0.27
505,0.49799,1.2,1,0.34859,0.2739,0.40669,505,2.03346,0.02,0.0083,0.50629,5,1D2U,1.0,True,0.353,60,False,left,-0.249,0.2135,0.9969,0.7835,1.3966,1.9218,0.5252,A,0.27
506,0.49799,0.1,2,0.2075,0.1992,0.87979,506,2.45677,0.34,0.166,0.67229,5,2D1U,2.0,True,0.374,55,False,right,0.083,1.7144,1.9891,0.2747,0.0315,0.9647,0.9333,A,0.275
507,0.49799,0.1,2,0.36519,0.43159,0.59759,507,2.38205,-0.02,-0.0083,0.48969,5,1D2U,1.0,True,0.284,61,True,left,-0.249,1.3455,1.6212,0.2757,0.3543,0.8794,0.5251,A,0.275
508,0.49799,1.2,1,0.2739,0.43159,0.74699,508,2.44016,-0.02,-0.0083,0.48969,5,1D2U,2.0,True,0.15,61,True,right,0.083,0.1385,0.9063,0.7677,1.4807,2.3388,0.8582,A,0.27
509,0.49799,1.2,1,0.41499,0.40669,0.43989,509,2.26585,0.02,0.0083,0.50629,5,1D2U,2.0,False,0.279,62,True,right,-0.249,0.2834,1.0667,0.7833,1.4997,2.0243,0.5245,A,0.27
510,0.49799,0.1,1,0.39839,0.2075,0.68889,510,2.29906,0.02,0.0083,0.50629,5,1D2U,1.0,True,0.359,62,True,left,0.083,0.2663,1.0504,0.784,1.5669,999,997.4331,A,0.275
511,0.49799,0.1,1,0.2656,0.249,0.55609,511,2.24097,0.34,0.166,0.67229,5,2D1U,1.0,True,0.209,55,False,left,-0.249,0.1365,1.0869,0.9503,1.6362,2.162,0.5259,A,0.275
512,0.49799,1.2,1,0.34859,0.2573,0.53119,512,2.28246,0.3,0.1494,0.64739,5,2D1U,2.0,False,0.241,55,False,right,0.083,0.2157,1.1408,0.925,1.5004,999,997.4996,A,0.27
513,0.49799,1.2,1,0.1992,0.38179,0.70549,513,2.45676,0.34,0.166,0.67229,5,2D1U,1.0,True,0.412,56,True,left,-0.249,0.0635,1.0134,0.9499,1.7126,2.2379,0.5254,A,0.27
514,0.49799,0.1,2,0.2407,0.2324,0.45649,514,1.91727,-0.02,-0.0083,0.48969,5,1D2U,1.0,True,0.338,63,True,left,0.083,1.2475,1.522,0.2745,0.0638,0.9224,0.8586,A,0.275
515,0.49799,0.1,2,0.36519,0.2573,0.69719,515,2.48996,0.34,0.166,0.67229,5,2D1U,1.0,False,0.316,56,True,left,-0.249,1.4458,1.721,0.2751,0.3543,0.8791,0.5248,A,0.275
516,0.49799,1.2,1,0.2324,0.31539,0.73869,516,2.47336,0.38,0.1909,0.68889,5,2D1U,2.0,False,0.25,56,False,right,0.083,0.0982,1.0648,0.9666,1.6319,999,997.3681,A,0.27
517,0.49799,1.2,1,0.2324,0.43989,0.66399,517,2.32396,-0.02,-0.0083,0.48969,5,1D2U,1.0,False,0.542,63,True,left,-0.249,0.0966,0.8635,0.7669,1.5213,2.047,0.5257,A,0.27
518,0.49799,0.1,2,0.36519,0.2573,0.52289,518,2.11646,-0.06,-0.0332,0.47309,5,1D2U,1.0,True,0.294,63,False,left,0.083,1.439,1.7146,0.2756,0.189,1.0476,0.8586,A,0.275
519,0.49799,0.1,1,0.42329,0.2241,0.43159,519,2.29076,0.42,0.2075,0.71379,5,2D1U,2.0,False,0.566,56,False,right,-0.249,0.2889,1.2814,0.9924,1.7061,2.2309,0.5248,A,0.275
520,0.49799,1.2,1,0.37349,0.37349,0.66399,520,2.63935,0.46,0.2324,0.73039,5,2D1U,2.0,False,0.208,56,False,right,0.083,0.2386,1.2471,1.0085,1.7387,2.5961,0.8575,A,0.27
521,0.49799,1.2,1,0.30709,0.38179,0.68889,521,2.62275,0.5,0.249,0.74699,5,2D1U,1.0,True,0.293,56,False,left,-0.249,0.1773,1.2028,1.0255,1.8863,2.4109,0.5246,A,0.27
522,0.49799,0.1,1,0.1992,0.40669,0.65569,522,2.50656,0.5,0.249,0.74699,5,2D1U,1.0,True,0.288,56,False,left,0.083,0.0646,1.09,1.0254,1.5737,2.4317,0.858,A,0.275
523,0.49799,0.1,1,0.2573,0.43989,0.73869,523,2.40696,-0.06,-0.0332,0.47309,5,1D2U,1.0,False,0.734,63,False,left,-0.249,0.1225,0.8732,0.7506,1.6069,2.1317,0.5248,A,0.275
524,0.49799,1.2,2,0.42329,0.2656,0.75529,524,2.67256,0.46,0.2324,0.73039,5,2D1U,2.0,True,0.416,57,True,right,0.083,1.7288,2.0046,0.2758,0.2457,1.1038,0.858,A,0.27
525,0.49799,1.2,1,0.2324,0.2324,0.87979,525,2.29077,-0.1,-0.0498,0.44819,5,1D2U,2.0,True,0.293,63,False,right,-0.249,0.0987,0.8238,0.725,1.6985,2.2236,0.5251,A,0.27
526,0.49799,0.1,1,0.35689,0.29879,0.75529,526,2.63935,0.46,0.2324,0.73039,5,2D1U,1.0,True,0.287,57,True,left,0.083,0.2233,1.2314,1.0082,1.815,999,997.185,A,0.275
527,0.49799,0.1,2,0.31539,0.44819,0.63909,527,2.61445,0.42,0.2075,0.71379,5,2D1U,2.0,True,0.205,57,False,right,-0.249,1.3371,1.6126,0.2755,0.3036,0.8292,0.5255,A,0.275
528,0.49799,1.2,2,0.30709,0.39839,0.53949,528,2.19115,-0.1,-0.0498,0.44819,5,1D2U,1.0,True,0.288,63,False,left,0.083,1.3989,1.6742,0.2753,0.1324,0.9901,0.8577,A,0.27
529,0.49799,1.2,1,0.43159,0.2573,0.79679,529,2.69746,0.42,0.2075,0.71379,5,2D1U,1.0,True,0.392,57,False,left,-0.249,0.303,1.2943,0.9913,2.0856,2.6111,0.5255,A,0.27
530,0.49799,0.1,1,0.35689,0.2573,0.83829,530,2.42356,-0.06,-0.0332,0.47309,5,1D2U,2.0,True,0.294,64,True,right,0.083,0.2237,0.9735,0.7498,1.64,999,997.36,A,0.275
531,0.49799,0.1,1,0.2739,0.43989,0.40669,531,2.30736,0.38,0.1909,0.68889,5,2D1U,1.0,True,1.129,57,False,left,-0.249,0.1414,1.1088,0.9674,1.5077,2.0337,0.526,A,0.275
532,0.49799,1.2,1,0.2075,0.37349,0.50629,532,2.05836,-0.06,-0.0332,0.47309,5,1D2U,2.0,True,0.509,64,True,right,0.083,0.0734,0.8237,0.7503,1.1569,2.0147,0.8578,A,0.27
533,0.49799,1.2,2,0.249,0.35689,0.81339,533,2.40696,-0.02,-0.0083,0.48969,5,1D2U,2.0,False,0.296,64,False,right,-0.249,1.4481,1.7227,0.2746,0.2394,0.7636,0.5241,A,0.27
534,0.49799,0.1,1,0.38179,0.44819,0.57269,534,2.58955,0.38,0.1909,0.68889,5,2D1U,1.0,True,0.167,57,False,left,0.083,0.2459,1.213,0.9671,1.6123,2.471,0.8588,A,0.275
535,0.49799,0.1,1,0.43989,0.32369,0.79679,535,2.53145,-0.06,-0.0332,0.47309,5,1D2U,2.0,True,0.208,65,True,right,-0.249,0.307,1.0568,0.7499,1.848,2.3737,0.5257,A,0.275
536,0.49799,1.2,2,0.30709,0.2324,0.70549,536,2.41526,0.34,0.166,0.67229,5,2D1U,1.0,False,0.958,57,False,left,0.083,1.5643,1.84,0.2756,0.1313,0.9891,0.8578,A,0.27
537,0.49799,1.2,1,0.41499,0.34859,0.63079,537,2.36545,-0.06,-0.0332,0.47309,5,1D2U,2.0,True,0.325,65,True,right,-0.249,0.2846,1.0351,0.7505,1.6606,2.1845,0.5239,A,0.27
538,0.49799,0.1,2,0.39839,0.36519,0.69719,538,2.44845,-0.02,-0.0083,0.48969,5,1D2U,1.0,True,0.325,66,True,left,0.083,1.6519,1.9268,0.2749,0.2262,1.0854,0.8592,A,0.275
539,0.49799,0.1,2,0.42329,0.37349,0.60589,539,2.39035,-0.02,-0.0083,0.48969,5,1D2U,2.0,False,0.442,66,True,right,-0.249,1.4152,1.6896,0.2744,0.4149,0.9394,0.5244,A,0.275
540,0.49799,1.2,1,0.2407,0.2656,0.40669,540,1.88407,-0.06,-0.0332,0.47309,5,1D2U,1.0,False,1.153,67,True,left,0.083,0.1069,0.8571,0.7502,1.091,999,997.909,A,0.27
541,0.49799,1.2,2,0.34029,0.29879,0.89638,541,2.72234,0.38,0.1909,0.68889,5,2D1U,2.0,True,0.292,58,True,right,-0.249,1.6237,1.8979,0.2742,0.3312,0.8563,0.5251,A,0.27
542,0.49799,0.1,2,0.37349,0.31539,0.55609,542,2.19115,-0.1,-0.0498,0.44819,5,1D2U,1.0,True,0.268,67,False,left,0.083,1.4813,1.7562,0.2749,0.1978,1.0562,0.8583,A,0.275
543,0.49799,0.1,2,0.249,0.44819,0.43159,543,2.31566,0.38,0.1909,0.68889,5,2D1U,2.0,True,0.153,58,True,right,-0.249,1.0682,1.3435,0.2753,0.2429,0.7683,0.5254,A,0.275
544,0.49799,1.2,1,0.1992,0.42329,0.72209,544,2.29076,-0.1,-0.0498,0.44819,5,1D2U,1.0,False,0.455,67,False,left,0.083,0.0621,0.7877,0.7257,1.3374,2.1951,0.8577,A,0.27
545,0.49799,1.2,2,0.2656,0.37349,0.67229,545,2.24096,-0.14,-0.0664,0.43159,5,1D2U,1.0,True,0.75,67,False,left,-0.249,1.3229,1.598,0.2751,0.2564,0.7818,0.5254,A,0.27
546,0.49799,0.1,2,0.2324,0.34859,0.89638,546,2.64765,0.34,0.166,0.67229,5,2D1U,2.0,True,0.358,59,True,right,0.083,1.6824,1.9576,0.2752,0.0577,0.9152,0.8575,A,0.275
547,0.49799,0.1,1,0.40669,0.2075,0.77189,547,2.55636,0.34,0.166,0.67229,5,2D1U,1.0,True,0.35,59,True,left,-0.249,0.2713,1.2208,0.9494,1.9873,2.5126,0.5253,A,0.275
548,0.49799,1.2,1,0.43989,0.40669,0.60589,548,2.38205,-0.14,-0.0664,0.43159,5,1D2U,1.0,False,0.193,67,False,left,0.083,0.3126,1.0205,0.7079,1.4532,2.3123,0.8591,A,0.27
549,0.49799,1.2,2,0.2822,0.41499,0.87979,549,2.72236,0.3,0.1494,0.64739,5,2D1U,2.0,True,0.4,59,False,right,-0.249,1.5482,1.8242,0.276,0.274,0.7991,0.5251,A,0.27
550,0.49799,0.1,2,0.2324,0.36519,0.72209,550,2.46506,0.3,0.1494,0.64739,5,2D1U,1.0,False,0.45,59,False,left,0.083,1.5061,1.7817,0.2756,0.0567,0.9155,0.8588,A,0.275
551,0.49799,0.1,1,0.43989,0.2739,0.61419,551,2.49826,0.34,0.166,0.67229,5,2D1U,1.0,True,0.442,60,True,left,-0.249,0.3036,1.2533,0.9497,1.8615,2.3869,0.5254,A,0.275
552,0.49799,1.2,1,0.32369,0.31539,0.76359,552,2.30735,-0.18,-0.0913,0.40669,5,1D2U,2.0,True,0.372,67,False,right,0.083,0.1899,0.8732,0.6833,1.4648,999,997.5352,A,0.27
553,0.49799,1.2,2,0.43159,0.42329,0.87979,553,2.63935,-0.18,-0.0913,0.40669,5,1D2U,1.0,True,0.404,67,False,left,-0.249,1.6973,1.9722,0.2749,0.4226,0.9474,0.5248,A,0.27
554,0.49799,0.1,1,0.2158,0.44819,0.51459,554,2.34886,0.34,0.166,0.67229,5,2D1U,1.0,True,0.159,60,True,left,0.083,0.0806,1.0308,0.9502,1.3724,2.2304,0.858,A,0.275
555,0.49799,0.1,2,0.36519,0.249,0.68059,555,2.44016,0.3,0.1494,0.64739,5,2D1U,1.0,False,0.924,61,True,left,-0.249,1.4307,1.7055,0.2748,0.3548,0.8805,0.5257,A,0.275
556,0.49799,1.2,1,0.33199,0.37349,0.69719,556,2.33225,-0.14,-0.0664,0.43159,5,1D2U,2.0,True,0.233,68,True,right,0.083,0.1981,0.906,0.708,1.4313,2.2899,0.8586,A,0.27
557,0.49799,1.2,1,0.35689,0.34859,0.86319,557,2.73895,0.34,0.166,0.67229,5,2D1U,1.0,True,0.283,62,True,left,-0.249,0.2268,1.1765,0.9497,2.0347,2.5591,0.5244,A,0.27
558,0.49799,0.1,1,0.31539,0.34859,0.86319,558,2.45675,-0.14,-0.0664,0.43159,5,1D2U,1.0,False,0.376,68,True,left,0.083,0.184,0.8934,0.7094,1.585,2.4424,0.8575,A,0.275
559,0.49799,0.1,2,0.30709,0.37349,0.55609,559,2.14135,-0.18,-0.0913,0.40669,5,1D2U,1.0,True,0.251,69,True,left,-0.249,1.2518,1.5277,0.2759,0.3022,0.8282,0.526,A,0.275
560,0.49799,1.2,2,0.38179,0.42329,0.81339,560,2.78875,0.34,0.166,0.67229,5,2D1U,2.0,True,0.749,62,True,right,0.083,1.7483,2.0228,0.2745,0.2058,1.0643,0.8585,A,0.27
561,0.49799,1.2,1,0.32369,0.43159,0.42329,561,2.32395,0.3,0.1494,0.64739,5,2D1U,1.0,True,0.303,63,True,left,-0.249,0.1879,1.1135,0.9256,1.5293,2.055,0.5257,A,0.27
562,0.49799,0.1,1,0.29879,0.35689,0.85489,562,2.41525,-0.18,-0.0913,0.40669,5,1D2U,2.0,True,0.233,69,True,right,0.083,0.1655,0.8485,0.683,1.5319,2.3905,0.8586,A,0.275
563,0.49799,0.1,1,0.2241,0.2656,0.80509,563,2.22437,-0.14,-0.0664,0.43159,5,1D2U,2.0,True,1.136,70,True,right,-0.249,0.0899,0.798,0.7081,1.5989,2.1243,0.5255,A,0.275
564,0.49799,1.2,1,0.30709,0.43159,0.52289,564,2.40695,0.3,0.1494,0.64739,5,2D1U,2.0,False,0.267,63,True,right,0.083,0.1771,1.1019,0.9248,1.4522,2.3109,0.8587,A,0.27
565,0.49799,1.2,2,0.29879,0.2822,0.40669,565,2.15796,0.34,0.166,0.67229,5,2D1U,2.0,True,0.294,64,True,right,-0.249,1.0873,1.3617,0.2743,0.287,0.8118,0.5248,A,0.27
566,0.49799,0.1,2,0.34029,0.30709,0.78849,566,2.60615,0.34,0.166,0.67229,5,2D1U,2.0,True,0.38,64,True,right,0.083,1.6828,1.9589,0.276,0.1667,1.0254,0.8586,A,0.275
567,0.49799,0.1,2,0.2573,0.1992,0.68059,567,2.28247,0.3,0.1494,0.64739,5,2D1U,1.0,False,0.4,65,True,left,-0.249,1.3244,1.5997,0.2753,0.2488,0.7748,0.5259,A,0.275
568,0.49799,1.2,2,0.35689,0.39839,0.78019,568,2.46505,-0.14,-0.0664,0.43159,5,1D2U,1.0,True,0.332,70,True,left,0.083,1.6911,1.966,0.2749,0.1821,1.0414,0.8593,A,0.27
569,0.49799,1.2,2,0.43989,0.2075,0.61419,569,2.20776,-0.1,-0.0498,0.44819,5,1D2U,1.0,True,0.476,70,False,left,-0.249,1.4434,1.7182,0.2749,0.4355,0.9593,0.5239,A,0.27
570,0.49799,0.1,1,0.37349,0.2324,0.57269,570,2.34886,0.34,0.166,0.67229,5,2D1U,1.0,True,0.301,66,True,left,0.083,0.2389,1.1891,0.9501,1.5892,999,997.4108,A,0.275
571,0.49799,0.1,2,0.29879,0.42329,0.73869,571,2.63105,0.34,0.166,0.67229,5,2D1U,1.0,False,0.3,66,True,left,-0.249,1.4264,1.7016,0.2752,0.293,0.8187,0.5257,A,0.275
572,0.49799,1.2,2,0.2324,0.34029,0.75529,572,2.51486,0.38,0.1909,0.68889,5,2D1U,2.0,True,0.344,66,False,right,0.083,1.5399,1.8148,0.2749,0.0569,0.9149,0.858,A,0.27
573,0.49799,1.2,1,0.2324,0.40669,0.77189,573,2.35716,-0.1,-0.0498,0.44819,5,1D2U,1.0,False,0.233,70,False,left,-0.249,0.101,0.8255,0.7245,1.5923,2.1171,0.5248,A,0.27
574,0.49799,0.1,2,0.39839,0.43159,0.88809,574,2.90495,0.38,0.1909,0.68889,5,2D1U,2.0,True,0.113,66,False,right,0.083,1.8374,2.1118,0.2744,0.2198,1.0794,0.8596,A,0.275
575,0.49799,0.1,1,0.39839,0.34029,0.73039,575,2.39865,-0.14,-0.0664,0.43159,5,1D2U,2.0,True,0.383,71,True,right,-0.249,0.2677,0.9761,0.7084,1.7015,2.2262,0.5247,A,0.275
576,0.49799,1.2,2,0.39839,0.31539,0.53949,576,2.18285,-0.14,-0.0664,0.43159,5,1D2U,1.0,True,0.375,71,True,left,0.083,1.4932,1.7685,0.2753,0.2268,1.085,0.8582,A,0.27
577,0.49799,1.2,2,0.2158,0.2573,0.85489,577,2.49827,0.34,0.166,0.67229,5,2D1U,2.0,True,0.31,67,True,right,-0.249,1.4542,1.7298,0.2756,0.2051,0.7293,0.5242,A,0.27
578,0.49799,0.1,1,0.37349,0.33199,0.60589,578,2.48165,0.34,0.166,0.67229,5,2D1U,1.0,True,0.25,67,True,left,0.083,0.2431,1.1936,0.9505,1.627,2.4852,0.8582,A,0.275
579,0.49799,0.1,1,0.2324,0.2822,0.41499,579,1.87577,-0.1,-0.0498,0.44819,5,1D2U,2.0,True,0.532,72,True,right,-0.249,0.0978,0.8229,0.7251,1.2315,1.7555,0.524,A,0.275
580,0.49799,1.2,2,0.38179,0.2241,0.88809,580,2.63936,0.3,0.1494,0.64739,5,2D1U,2.0,True,0.316,67,False,right,0.083,1.8259,2.1009,0.275,0.2096,1.0675,0.8578,A,0.27
581,0.49799,1.2,1,0.2158,0.39839,0.53119,581,2.29076,0.3,0.1494,0.64739,5,2D1U,1.0,True,0.373,67,False,left,-0.249,0.0845,1.0098,0.9254,1.5348,2.0588,0.524,A,0.27
582,0.49799,0.1,1,0.249,0.41499,0.71379,582,2.50656,0.26,0.1328,0.63079,5,2D1U,1.0,True,0.183,67,False,left,0.083,0.1148,1.0234,0.9086,1.5648,2.4233,0.8585,A,0.275
583,0.49799,0.1,1,0.40669,0.249,0.69719,583,2.29906,-0.1,-0.0498,0.44819,5,1D2U,2.0,True,0.244,72,True,right,-0.249,0.2743,0.9992,0.7249,1.6904,2.2162,0.5258,A,0.275
584,0.49799,1.2,1,0.37349,0.36519,0.78849,584,2.65595,0.26,0.1328,0.63079,5,2D1U,2.0,False,0.334,67,False,right,0.083,0.2403,1.1485,0.9082,1.7661,2.6225,0.8564,A,0.27
585,0.49799,1.2,1,0.2822,0.31539,0.82999,585,2.57296,0.3,0.1494,0.64739,5,2D1U,1.0,True,0.24,68,True,left,-0.249,0.1492,1.0743,0.9251,1.8993,2.4243,0.5249,A,0.27
586,0.49799,0.1,1,0.2573,0.2241,0.86319,586,2.31567,-0.06,-0.0332,0.47309,5,1D2U,1.0,False,0.9,72,False,left,0.083,0.1226,0.8724,0.7498,1.5647,999,997.4353,A,0.275
587,0.49799,0.1,2,0.2656,0.2905,0.69719,587,2.19947,-0.1,-0.0498,0.44819,5,1D2U,1.0,True,0.34,73,True,left,-0.249,1.3471,1.6227,0.2756,0.255,0.7809,0.5259,A,0.275
588,0.49799,1.2,1,0.38179,0.1992,0.81339,588,2.53976,0.3,0.1494,0.64739,5,2D1U,2.0,False,0.319,68,True,right,0.083,0.2454,1.1712,0.9258,1.8126,999,997.1874,A,0.27
589,0.49799,1.2,1,0.43159,0.44819,0.68889,589,2.73895,0.34,0.166,0.67229,5,2D1U,1.0,True,0.192,68,False,left,-0.249,0.303,1.2519,0.9489,1.9359,2.4603,0.5243,A,0.27
590,0.49799,0.1,2,0.42329,0.35689,0.50629,590,2.23265,-0.1,-0.0498,0.44819,5,1D2U,1.0,True,0.367,73,True,left,0.083,1.4846,1.7588,0.2742,0.2508,1.1091,0.8583,A,0.275
591,0.49799,0.1,2,0.39839,0.2822,0.68059,591,2.33226,-0.06,-0.0332,0.47309,5,1D2U,1.0,True,0.292,74,True,left,-0.249,1.4647,1.7393,0.2746,0.389,0.9146,0.5256,A,0.275
592,0.49799,1.2,2,0.39839,0.42329,0.68889,592,2.68085,0.34,0.166,0.67229,5,2D1U,2.0,True,0.322,68,False,right,0.083,1.6404,1.9158,0.2754,0.2247,1.0819,0.8572,A,0.27
593,0.49799,1.2,1,0.30709,0.43989,0.68059,593,2.57295,0.3,0.1494,0.64739,5,2D1U,1.0,True,0.256,69,True,left,-0.249,0.1728,1.0985,0.9258,1.7732,2.2981,0.5249,A,0.27
594,0.49799,0.1,1,0.40669,0.2905,0.49799,594,2.16626,-0.06,-0.0332,0.47309,5,1D2U,1.0,False,0.331,74,True,left,0.083,0.271,1.021,0.75,1.3457,999,997.6543,A,0.275
595,0.49799,0.1,2,0.31539,0.43989,0.47309,595,2.37375,0.3,0.1494,0.64739,5,2D1U,1.0,False,0.301,69,True,left,-0.249,1.1762,1.4512,0.275,0.3096,0.8339,0.5243,A,0.275
596,0.49799,1.2,1,0.35689,0.30709,0.87979,596,2.71405,0.34,0.166,0.67229,5,2D1U,2.0,False,0.271,70,True,right,0.083,0.2232,1.174,0.9508,1.8827,999,997.1173,A,0.27
597,0.49799,1.2,2,0.39839,0.2739,0.63909,597,2.25756,-0.1,-0.0498,0.44819,5,1D2U,1.0,True,0.373,75,True,left,-0.249,1.4201,1.695,0.2749,0.3869,0.9126,0.5257,A,0.27
598,0.49799,0.1,2,0.2158,0.2158,0.56439,598,2.18287,0.38,0.1909,0.68889,5,2D1U,1.0,False,0.375,70,False,left,0.083,1.3284,1.6031,0.2747,0.0364,0.896,0.8596,A,0.275
