,standardDur,audNoise,order,preDur,postDur,isiDur,trial_num,totalDur,delta_dur_percents,deltaDurS,testDurS,intensities,current_stair,responses,is_correct,response_rts,stair_num_reversal,stair_is_reversal,response_keys,conflictDur,recordedOnsetVisualTest,recordedOffsetVisualTest,recordedDurVisualTest,recordedOnsetVisualStandard,recordedOffsetVisualStandard,recordedDurVisualStandard,modalityCue,VisualPSE
0,0.49672,0.1,2,0.29803,0.26491,0.48016,0,1.58949,-0.9,-0.44704,0.04967,5,lapse_rate,1.0,True,0.427,0,False,left,0.16557,1.3733,1.5638,0.1905,0.0809,1.0226,0.9417,A,0.275
1,0.49672,1.2,2,0.35598,0.37254,0.43049,1,1.7054,-0.9,-0.44704,0.04967,5,1D2U,1.0,True,0.381,0,False,left,-0.08279,1.2587,1.4497,0.191,0.2666,0.9577,0.6911,A,0.27
2,0.49672,1.2,1,0.31459,0.38909,0.55467,2,1.80474,-0.9,-0.44704,0.04967,5,1D2U,2.0,True,0.333,0,False,right,0.16557,0.181,0.5059,0.3249,0.8469,1.7892,0.9424,A,0.27
3,0.49672,0.1,1,0.31459,0.27319,0.42221,3,2.45875,0.9,0.44704,0.95204,5,lapse_rate,1.0,True,0.276,0,False,left,-0.08279,0.1791,1.4124,1.2333,1.7449,2.4371,0.6922,A,0.275
4,0.49672,0.1,1,0.29803,0.32287,0.71196,4,1.87925,-0.9,-0.44704,0.04967,5,2D1U,2.0,True,0.309,0,False,right,0.16557,0.1649,0.4906,0.3257,0.9904,999,998.0096,A,0.275
5,0.49672,0.1,2,0.33942,0.33942,0.89409,5,2.20211,-0.74,-0.37254,0.13246,5,2D1U,1.0,True,0.375,0,False,left,-0.08279,1.7105,1.985,0.2745,0.2521,0.944,0.6919,A,0.275
6,0.49672,1.2,2,0.43877,0.27319,0.48016,6,1.8213,-0.74,-0.37254,0.13246,5,1D2U,1.0,True,0.823,0,False,left,0.16557,1.5165,1.7918,0.2753,0.2249,1.1669,0.9419,A,0.27
7,0.49672,1.2,2,0.36426,0.28147,0.62089,7,1.81301,-0.9,-0.44704,0.04967,5,lapse_rate,1.0,True,0.442,0,False,left,-0.08279,1.4611,1.6528,0.1916,0.2785,0.9703,0.6919,A,0.27
8,0.49672,0.1,1,0.27319,0.43877,0.54639,8,2.70711,0.9,0.44704,0.95204,5,lapse_rate,1.0,True,0.191,0,False,left,0.16557,0.1394,1.3728,1.2334,1.7062,2.6481,0.9419,A,0.275
9,0.49672,1.2,2,0.38082,0.26491,0.40565,9,1.68056,-0.74,-0.37254,0.13246,5,1D2U,1.0,True,1.363,0,False,left,-0.08279,1.2534,1.5292,0.2758,0.2875,0.9792,0.6917,A,0.27
10,0.49672,0.1,2,0.2318,0.24836,0.87753,10,2.06137,-0.58,-0.28975,0.20696,5,2D1U,1.0,True,0.471,0,False,left,0.16557,1.705,2.0554,0.3504,0.0134,0.9559,0.9424,A,0.275
11,0.49672,0.1,1,0.36426,0.38082,0.84442,11,2.37597,-0.42,-0.20696,0.28975,5,2D1U,2.0,True,0.334,0,False,right,-0.08279,0.2319,0.7992,0.5673,1.557,2.2484,0.6914,A,0.275
12,0.49672,0.1,2,0.43049,0.38082,0.47188,12,2.73195,0.9,0.44704,0.95204,5,lapse_rate,2.0,True,0.201,0,False,right,0.16557,1.4984,2.5982,1.0998,0.2152,1.1567,0.9415,A,0.275
13,0.49672,1.2,1,0.29803,0.44704,0.80302,13,2.25177,-0.58,-0.28975,0.20696,5,1D2U,1.0,False,0.368,0,False,left,-0.08279,0.1652,0.6473,0.4821,1.3648,2.058,0.6932,A,0.27
14,0.49672,1.2,2,0.21524,0.2318,0.72024,14,2.03654,-0.26,-0.13246,0.37254,5,2D1U,2.0,False,0.725,0,False,right,0.16557,1.5342,2.0593,0.5251,0.0026,0.9432,0.9405,A,0.27
15,0.49672,0.1,1,0.43049,0.32287,0.45532,15,2.65744,0.9,0.44704,0.95204,5,lapse_rate,1.0,True,0.301,0,False,left,-0.08279,0.2984,1.5321,1.2337,1.8992,2.5914,0.6921,A,0.275
16,0.49672,0.1,1,0.38909,0.2318,0.62917,16,1.92063,-0.66,-0.33114,0.17385,5,1D2U,2.0,True,0.406,1,True,right,0.16557,0.2561,0.7062,0.4501,1.1231,999,997.8769,A,0.275
17,0.49672,0.1,1,0.41393,0.2318,0.76163,17,2.07793,-0.66,-0.33114,0.17385,5,1D2U,2.0,True,0.559,1,True,right,-0.08279,0.2864,0.7367,0.4503,1.4121,999,997.5879,A,0.275
18,0.49672,1.2,2,0.28147,0.21524,0.8113,18,2.17727,-0.26,-0.13246,0.37254,5,2D1U,1.0,True,0.491,0,False,left,0.16557,1.692,999,997.308,0.067,1.0083,0.9413,A,0.27
19,0.49672,0.1,1,0.20696,0.27319,0.47188,19,1.49842,-0.9,-0.44704,0.04967,5,lapse_rate,2.0,True,0.385,0,False,right,-0.08279,0.0762,0.4013,0.3251,0.7846,1.4753,0.6907,A,0.275
20,0.49672,1.2,2,0.37254,0.38082,0.70368,20,2.4008,-0.1,-0.04967,0.44704,5,2D1U,1.0,True,0.417,0,False,left,0.16557,1.6713,2.2637,0.5924,0.1551,1.0969,0.9418,A,0.27
21,0.49672,0.1,1,0.22352,0.38082,0.72852,21,2.01999,-0.62,-0.30631,0.19041,5,1D2U,2.0,True,0.225,2,True,right,-0.08279,0.0884,0.5552,0.4668,1.1966,1.8879,0.6913,A,0.275
22,0.49672,0.1,2,0.41393,0.27319,0.5795,22,2.71538,0.9,0.44704,0.95204,5,lapse_rate,2.0,True,0.317,0,False,right,0.16557,1.5905,2.6906,1.1001,0.1995,1.1414,0.9419,A,0.275
23,0.49672,0.1,1,0.22352,0.3477,0.4636,23,1.72195,-0.62,-0.30631,0.19041,5,1D2U,2.0,True,0.634,2,True,right,-0.08279,0.089,0.5557,0.4667,0.9306,1.6229,0.6923,A,0.275
24,0.49672,1.2,1,0.26491,0.26491,0.57122,24,2.5498,0.9,0.44704,0.95204,5,lapse_rate,1.0,True,0.442,0,False,left,0.16557,0.1376,1.3705,1.2329,1.7284,999,997.2716,A,0.27
25,0.49672,1.2,2,0.33942,0.26491,0.59606,25,2.22694,0.06,0.03311,0.52983,5,2D1U,2.0,True,0.434,0,False,right,-0.08279,1.4061,2.081,0.6748,0.2479,0.9396,0.6917,A,0.27
26,0.49672,0.1,2,0.26491,0.43049,0.6954,26,2.83956,0.9,0.44704,0.95204,5,lapse_rate,2.0,True,0.201,0,False,right,0.16557,1.5537,2.6538,1.1001,0.0456,0.987,0.9414,A,0.275
27,0.49672,1.2,1,0.27319,0.35598,0.80302,27,2.45874,0.06,0.03311,0.52983,5,2D1U,2.0,False,0.808,0,False,right,-0.08279,0.1407,0.9492,0.8085,1.6654,2.3571,0.6917,A,0.27
28,0.49672,0.1,1,0.36426,0.40565,0.64573,28,2.11932,-0.58,-0.28975,0.20696,5,1D2U,2.0,True,0.225,2,False,right,0.16557,0.2319,0.715,0.4831,1.1491,2.0909,0.9419,A,0.275
29,0.49672,1.2,1,0.26491,0.37254,0.86925,29,2.05309,-0.9,-0.44704,0.04967,5,lapse_rate,2.0,True,0.307,0,False,right,-0.08279,0.131,0.4564,0.3254,1.2392,1.9311,0.6919,A,0.27
30,0.49672,0.1,1,0.37254,0.2318,0.59606,30,1.90408,-0.58,-0.28975,0.20696,5,1D2U,2.0,True,0.35,2,False,right,0.16557,0.2394,0.7226,0.4833,1.1061,999,997.8939,A,0.275
31,0.49672,1.2,1,0.26491,0.19869,0.76991,31,2.34285,0.22,0.10762,0.61262,5,2D1U,2.0,False,0.451,0,False,right,-0.08279,0.1335,1.025,0.8916,1.7085,999,997.2915,A,0.27
32,0.49672,1.2,1,0.38909,0.33114,0.60434,32,2.50841,0.38,0.19041,0.68712,5,2D1U,2.0,False,0.526,0,False,right,0.16557,0.2541,1.2213,0.9672,1.6127,999,997.3873,A,0.27
33,0.49672,0.1,2,0.22352,0.28975,0.45532,33,1.69711,-0.54,-0.27319,0.2318,5,1D2U,1.0,True,0.322,2,False,left,-0.08279,1.1489,1.5233,0.3744,0.132,0.8232,0.6913,A,0.275
34,0.49672,0.1,2,0.30631,0.35598,0.55467,34,2.66572,0.9,0.44704,0.95204,5,lapse_rate,2.0,True,0.191,0,False,right,0.16557,1.4554,2.5553,1.0999,0.0891,1.0308,0.9417,A,0.275
35,0.49672,0.1,2,0.24836,0.25664,0.81958,35,2.59121,0.54,0.27319,0.76991,5,2D1U,2.0,True,0.3,0,False,right,-0.08279,1.5421,2.4592,0.9171,0.1597,0.8505,0.6908,A,0.275
36,0.49672,1.2,1,0.29803,0.37254,0.61262,36,2.73195,0.9,0.44704,0.95204,5,lapse_rate,1.0,True,0.416,0,False,left,0.16557,0.165,1.3983,1.2332,1.7975,2.7398,0.9424,A,0.27
37,0.49672,1.2,1,0.44704,0.28147,0.60434,37,2.06137,-0.54,-0.27319,0.2318,5,1D2U,2.0,True,0.383,2,False,right,-0.08279,0.3199,0.828,0.5081,1.3451,2.0364,0.6913,A,0.27
38,0.49672,1.2,2,0.44704,0.25664,0.54639,38,1.99515,-0.5,-0.24836,0.24836,5,1D2U,1.0,True,0.625,2,False,left,0.16557,1.5929,1.984,0.3911,0.2346,1.1767,0.942,A,0.27
39,0.49672,0.1,1,0.39737,0.20696,0.88581,39,2.9389,0.9,0.44704,0.95204,5,lapse_rate,1.0,True,0.425,0,False,left,-0.08279,0.2672,1.5006,1.2334,2.3006,999,996.6994,A,0.275
40,0.49672,0.1,2,0.44704,0.25664,0.66229,40,2.6326,0.54,0.27319,0.76991,5,2D1U,2.0,True,0.302,0,False,right,0.16557,1.7054,2.6219,0.9165,0.2303,1.1715,0.9412,A,0.275
41,0.49672,0.1,2,0.2318,0.2318,0.59606,41,2.2849,0.46,0.2318,0.72852,5,2D1U,2.0,True,0.635,1,True,right,-0.08279,1.2973,2.1723,0.8749,0.139,0.8296,0.6906,A,0.275
42,0.49672,1.2,2,0.41393,0.29803,0.76991,42,2.22695,-0.5,-0.24836,0.24836,5,1D2U,1.0,True,0.431,2,False,left,0.16557,1.7821,2.1724,0.3904,0.1981,1.1403,0.9421,A,0.27
43,0.49672,0.1,1,0.19869,0.33942,0.6954,43,1.7799,-0.9,-0.44704,0.04967,5,lapse_rate,2.0,True,0.35,0,False,right,-0.08279,0.0693,0.3948,0.3256,1.0031,1.695,0.6919,A,0.275
44,0.49672,1.2,1,0.40565,0.33942,0.62917,44,2.823,0.9,0.44704,0.95204,5,lapse_rate,1.0,True,0.392,0,False,left,0.16557,0.2731,1.5061,1.233,1.9227,999,997.0773,A,0.27
45,0.49672,1.2,2,0.28975,0.39737,0.68712,45,2.14415,-0.46,-0.2318,0.27319,5,1D2U,1.0,True,0.383,2,False,left,-0.08279,1.4489,1.865,0.4161,0.1985,0.8908,0.6922,A,0.27
46,0.49672,0.1,1,0.39737,0.40565,0.89409,46,2.92235,0.46,0.2318,0.72852,5,2D1U,1.0,True,0.3,1,True,left,0.16557,0.2648,1.2727,1.008,1.9564,2.8986,0.9421,A,0.275
47,0.49672,0.1,1,0.43049,0.44704,0.45532,47,2.51669,0.38,0.19041,0.68712,5,2D1U,2.0,False,1.4,1,False,right,-0.08279,0.2988,1.2659,0.9671,1.6322,2.3236,0.6914,A,0.275
48,0.49672,1.2,1,0.38909,0.28147,0.78647,48,2.00342,-0.9,-0.44704,0.04967,5,lapse_rate,2.0,True,0.567,0,False,right,0.16557,0.2604,0.5851,0.3247,1.1606,999,997.8394,A,0.27
49,0.49672,1.2,1,0.43049,0.41393,0.75335,49,2.36768,-0.46,-0.2318,0.27319,5,1D2U,2.0,True,0.233,2,False,right,-0.08279,0.2955,0.8451,0.5497,1.512,2.204,0.692,A,0.27
50,0.49672,1.2,2,0.21524,0.39737,0.57122,50,2.39251,0.42,0.20696,0.71196,5,2D1U,2.0,True,0.358,2,True,right,0.16557,1.3808,2.2383,0.8575,0.0026,0.9387,0.936,A,0.27
51,0.49672,1.2,2,0.32287,0.28147,0.78647,51,2.83957,0.9,0.44704,0.95204,5,lapse_rate,1.0,False,0.383,0,False,left,-0.08279,1.5823,2.6821,1.0998,0.2319,0.9235,0.6916,A,0.27
52,0.49672,0.1,2,0.41393,0.22352,0.59606,52,2.01998,-0.42,-0.20696,0.28975,5,1D2U,1.0,True,0.474,2,False,left,0.16557,1.6031,999,997.3969,0.1948,1.1368,0.9421,A,0.275
53,0.49672,0.1,1,0.32287,0.43049,0.75335,53,2.71539,0.42,0.20696,0.71196,5,2D1U,1.0,True,0.241,2,True,left,-0.08279,0.194,1.1859,0.9919,1.8517,2.544,0.6923,A,0.275
54,0.49672,1.2,2,0.44704,0.38909,0.80302,54,2.42562,-0.42,-0.20696,0.28975,5,1D2U,1.0,True,0.376,2,False,left,0.16557,1.8536,2.287,0.4334,0.2373,1.1784,0.9412,A,0.27
55,0.49672,1.2,1,0.25664,0.19869,0.75335,55,2.65744,0.9,0.44704,0.95204,5,lapse_rate,1.0,True,0.375,0,False,left,-0.08279,0.1264,1.3599,1.2335,2.0263,999,996.9737,A,0.27
56,0.49672,0.1,2,0.37254,0.22352,0.60434,56,1.74679,-0.9,-0.44704,0.04967,5,lapse_rate,1.0,True,0.483,0,False,left,0.16557,1.5718,999,997.4282,0.154,1.0959,0.9419,A,0.275
57,0.49672,1.2,1,0.39737,0.39737,0.80302,57,2.7816,0.38,0.19041,0.68712,5,2D1U,1.0,True,0.501,3,True,left,-0.08279,0.264,1.2299,0.9659,1.9461,2.6388,0.6927,A,0.27
58,0.49672,0.1,1,0.22352,0.21524,0.53811,58,1.7799,-0.38,-0.19041,0.30631,5,1D2U,2.0,True,0.824,2,False,right,0.16557,0.0926,0.6765,0.5839,1.0011,999,997.9989,A,0.275
59,0.49672,1.2,2,0.33114,0.32287,0.82786,59,2.93063,0.9,0.44704,0.95204,5,lapse_rate,2.0,True,0.326,0,False,right,-0.08279,1.632,2.7324,1.1004,0.2408,0.9329,0.6922,A,0.27
60,0.49672,0.1,2,0.27319,0.21524,0.72852,60,2.40079,0.38,0.19041,0.68712,5,2D1U,2.0,True,0.325,3,True,right,0.16557,1.6032,999,997.3968,0.0613,1.0027,0.9414,A,0.275
61,0.49672,1.2,2,0.43049,0.27319,0.50499,61,2.0117,-0.38,-0.19041,0.30631,5,1D2U,1.0,True,0.367,2,False,left,-0.08279,1.4095,1.86,0.4505,0.3435,1.0355,0.692,A,0.27
62,0.49672,1.2,2,0.36426,0.33942,0.65401,62,2.52498,0.34,0.17385,0.67057,5,2D1U,2.0,True,0.275,3,False,right,0.16557,1.6195,2.4358,0.8162,0.153,1.0939,0.9409,A,0.27
63,0.49672,0.1,2,0.22352,0.28147,0.82786,63,1.87924,-0.9,-0.44704,0.04967,5,lapse_rate,1.0,True,0.421,0,False,left,-0.08279,1.5219,1.7129,0.191,0.1304,0.8217,0.6913,A,0.275
64,0.49672,0.1,2,0.27319,0.33942,0.89409,64,2.33456,-0.34,-0.17385,0.33114,5,1D2U,1.0,True,0.675,2,False,left,0.16557,1.7681,2.2432,0.4751,0.0597,1.0017,0.9419,A,0.275
65,0.49672,1.2,2,0.41393,0.24836,0.67884,65,2.78989,0.9,0.44704,0.95204,5,lapse_rate,2.0,True,0.35,0,False,right,-0.08279,1.5653,2.6644,1.0991,0.3228,1.0153,0.6925,A,0.27
66,0.49672,0.1,2,0.32287,0.35598,0.82786,66,2.33457,-0.34,-0.17385,0.33114,5,1D2U,1.0,True,0.376,2,False,left,0.16557,1.7466,2.2217,0.4751,0.1048,1.0468,0.9421,A,0.275
67,0.49672,1.2,2,0.41393,0.30631,0.77819,67,2.66572,0.34,0.17385,0.67057,5,2D1U,1.0,False,0.8,3,False,left,-0.08279,1.6645,2.4819,0.8174,0.3231,1.0153,0.6922,A,0.27
68,0.49672,1.2,2,0.35598,0.43049,0.71196,68,2.34285,-0.3,-0.14901,0.3477,5,1D2U,2.0,False,0.299,2,False,right,0.16557,1.663,2.155,0.492,0.1383,1.0801,0.9417,A,0.27
69,0.49672,0.1,2,0.25664,0.42221,0.5795,69,1.80474,-0.9,-0.44704,0.04967,5,lapse_rate,1.0,True,0.367,0,False,left,-0.08279,1.3062,1.4978,0.1917,0.1644,0.8569,0.6925,A,0.275
70,0.49672,0.1,1,0.38909,0.44704,0.75335,70,2.77332,0.38,0.19041,0.68712,5,2D1U,1.0,True,0.276,4,True,left,0.16557,0.2598,1.2268,0.967,1.7683,2.7105,0.9421,A,0.275
71,0.49672,0.1,1,0.3477,0.31459,0.6954,71,1.90408,-0.9,-0.44704,0.04967,5,lapse_rate,2.0,True,0.376,0,False,right,-0.08279,0.2154,0.5405,0.3251,1.1482,1.8396,0.6914,A,0.275
72,0.49672,0.1,1,0.24008,0.33114,0.56294,72,1.96202,-0.34,-0.17385,0.33114,5,1D2U,2.0,True,0.386,3,True,right,0.16557,0.1049,0.7128,0.6079,1.0633,999,997.9367,A,0.275
73,0.49672,1.2,1,0.22352,0.32287,0.49672,73,2.22695,0.38,0.19041,0.68712,5,2D1U,1.0,True,0.384,4,True,left,-0.08279,0.0906,1.0572,0.9666,1.4658,2.1576,0.6919,A,0.27
74,0.49672,1.2,1,0.43049,0.38909,0.64573,74,2.29317,-0.34,-0.17385,0.33114,5,1D2U,2.0,True,0.476,3,True,right,0.16557,0.2972,0.9053,0.6081,1.3398,2.2808,0.941,A,0.27
75,0.49672,0.1,2,0.44704,0.42221,0.64573,75,2.68227,0.34,0.17385,0.67057,5,2D1U,2.0,True,0.284,5,True,right,-0.08279,1.5647,2.3813,0.8166,0.3561,1.0475,0.6914,A,0.275
76,0.49672,1.2,1,0.20696,0.25664,0.44704,76,1.45703,-0.9,-0.44704,0.04967,5,lapse_rate,2.0,True,0.317,0,False,right,0.16557,0.073,0.3982,0.3252,0.6316,999,998.3684,A,0.27
77,0.49672,0.1,2,0.43049,0.35598,0.39737,77,2.35113,0.34,0.17385,0.67057,5,2D1U,2.0,True,0.542,5,True,right,-0.08279,1.3024,2.1191,0.8167,0.3437,1.0359,0.6921,A,0.275
78,0.49672,0.1,1,0.43877,0.2318,0.72024,78,1.9372,-0.9,-0.44704,0.04967,5,lapse_rate,2.0,True,0.275,0,False,right,0.16557,0.3042,0.6289,0.3247,1.1373,999,997.8627,A,0.275
79,0.49672,1.2,2,0.33942,0.2318,0.87753,79,2.29317,-0.3,-0.14901,0.3477,5,1D2U,1.0,True,0.409,4,True,left,-0.08279,1.6905,2.1822,0.4917,0.2491,0.9406,0.6915,A,0.27
80,0.49672,1.2,1,0.20696,0.32287,0.50499,80,2.18555,0.3,0.14901,0.65401,5,2D1U,1.0,True,0.5,5,False,left,0.16557,0.0713,1.0044,0.9331,1.2962,999,997.7038,A,0.27
81,0.49672,0.1,2,0.42221,0.36426,0.87753,81,2.50842,-0.3,-0.14901,0.3477,5,1D2U,1.0,True,0.291,4,True,left,-0.08279,1.7768,2.2682,0.4914,0.3344,1.0267,0.6923,A,0.275
82,0.49672,0.1,2,0.24836,0.40565,0.52155,82,1.72195,-0.9,-0.44704,0.04967,5,lapse_rate,1.0,True,0.434,0,False,left,0.16557,1.3697,1.5615,0.1918,0.037,0.9785,0.9416,A,0.275
83,0.49672,0.1,1,0.3477,0.30631,0.57122,83,2.37596,0.3,0.14901,0.65401,5,2D1U,1.0,True,0.468,5,False,left,-0.08279,0.2153,1.1484,0.9331,1.6315,2.324,0.6925,A,0.275
84,0.49672,1.2,2,0.27319,0.43877,0.86925,84,2.1276,-0.9,-0.44704,0.04967,5,lapse_rate,1.0,True,0.442,0,False,left,0.16557,1.7414,1.9329,0.1914,0.0581,0.9992,0.9411,A,0.27
85,0.49672,1.2,1,0.33114,0.28147,0.68712,85,2.16899,-0.26,-0.13246,0.37254,5,1D2U,2.0,True,0.375,4,False,right,-0.08279,0.2035,0.8527,0.6492,1.4536,2.1455,0.6919,A,0.27
86,0.49672,1.2,2,0.40565,0.44704,0.53811,86,2.51669,0.26,0.13246,0.62917,5,2D1U,1.0,False,0.291,5,False,left,0.16557,1.5441,2.3192,0.7752,0.1934,1.1363,0.9429,A,0.27
87,0.49672,1.2,2,0.35598,0.21524,0.80302,87,2.823,0.9,0.44704,0.95204,5,lapse_rate,2.0,True,0.326,0,False,right,-0.08279,1.6356,2.7365,1.1009,0.2695,0.962,0.6925,A,0.27
88,0.49672,0.1,1,0.36426,0.40565,0.64573,88,2.2849,-0.26,-0.13246,0.37254,5,1D2U,2.0,True,0.299,4,False,right,0.16557,0.2311,0.8802,0.6491,1.3141,2.2557,0.9415,A,0.275
89,0.49672,0.1,1,0.2318,0.43877,0.79474,89,2.61604,0.3,0.14901,0.65401,5,2D1U,1.0,True,0.217,6,True,left,-0.08279,0.1005,1.0333,0.9328,1.7427,2.4333,0.6906,A,0.275
90,0.49672,1.2,2,0.44704,0.41393,0.79474,90,3.10447,0.9,0.44704,0.95204,5,lapse_rate,2.0,True,0.233,0,False,right,0.16557,1.8388,2.9389,1.1,0.2301,1.1718,0.9417,A,0.27
91,0.49672,1.2,1,0.36426,0.29803,0.62917,91,2.17727,-0.22,-0.10762,0.38909,5,1D2U,1.0,False,0.242,4,False,left,-0.08279,0.2339,0.9002,0.6664,1.4424,2.134,0.6915,A,0.27
92,0.49672,1.2,1,0.33114,0.24836,0.76163,92,2.49186,0.3,0.14901,0.65401,5,2D1U,1.0,True,0.426,6,True,left,0.16557,0.2014,1.1343,0.9329,1.6848,999,997.3152,A,0.27
93,0.49672,1.2,2,0.3477,0.24008,0.48844,93,1.62261,-0.9,-0.44704,0.04967,5,lapse_rate,1.0,True,0.583,0,False,left,-0.08279,1.3068,1.4984,0.1916,0.2564,0.9485,0.6921,A,0.27
94,0.49672,0.1,1,0.33114,0.43049,0.52155,94,2.15244,-0.26,-0.13246,0.37254,5,1D2U,2.0,True,0.305,5,True,right,0.16557,0.1978,0.8483,0.6505,1.1566,2.0978,0.9412,A,0.275
95,0.49672,0.1,2,0.39737,0.35598,0.77819,95,2.4008,-0.26,-0.13246,0.37254,5,1D2U,1.0,True,0.3,5,True,left,-0.08279,1.6514,2.1676,0.5162,0.3097,1.0012,0.6916,A,0.275
96,0.49672,1.2,2,0.39737,0.38082,0.89409,96,2.79817,0.26,0.13246,0.62917,5,2D1U,2.0,True,0.283,7,True,right,0.16557,1.8894,2.6648,0.7754,0.181,1.1229,0.9419,A,0.27
97,0.49672,0.1,1,0.39737,0.43049,0.45532,97,2.73194,0.9,0.44704,0.95204,5,lapse_rate,1.0,True,0.113,0,False,left,-0.08279,0.2694,1.5027,1.2333,1.8695,2.5614,0.6918,A,0.275
98,0.49672,1.2,1,0.35598,0.35598,0.48016,98,2.31801,0.26,0.13246,0.62917,5,2D1U,1.0,True,0.384,7,True,left,0.16557,0.2227,1.1309,0.9082,1.3977,999,997.6023,A,0.27
99,0.49672,0.1,2,0.19869,0.28147,0.57122,99,1.93719,-0.22,-0.10762,0.38909,5,1D2U,1.0,True,0.361,6,True,left,-0.08279,1.2404,1.7732,0.5328,0.1066,0.7983,0.6917,A,0.275
100,0.49672,0.1,1,0.33942,0.43877,0.58778,100,1.91236,-0.9,-0.44704,0.04967,5,lapse_rate,2.0,True,0.233,0,False,right,0.16557,0.2083,0.5339,0.3256,0.9083,1.8512,0.9429,A,0.275
101,0.49672,0.1,1,0.41393,0.43877,0.53811,101,2.27662,-0.22,-0.10762,0.38909,5,1D2U,2.0,True,1.292,6,True,right,-0.08279,0.2865,0.9524,0.6659,1.403,2.0946,0.6916,A,0.275
102,0.49672,1.2,1,0.24836,0.33114,0.78647,102,2.81473,0.9,0.44704,0.95204,5,lapse_rate,1.0,True,0.385,0,False,left,0.16557,0.1116,1.3451,1.2335,1.9205,999,997.0795,A,0.27
103,0.49672,1.2,1,0.22352,0.36426,0.70368,103,2.4008,0.22,0.10762,0.61262,5,2D1U,2.0,False,0.259,7,False,right,-0.08279,0.0929,0.9842,0.8913,1.6006,2.2919,0.6913,A,0.27
104,0.49672,1.2,2,0.27319,0.21524,0.72852,104,2.66571,0.9,0.44704,0.95204,5,lapse_rate,2.0,True,0.284,0,False,right,0.16557,1.6027,999,997.3973,0.0617,1.0022,0.9406,A,0.27
105,0.49672,1.2,1,0.42221,0.2318,0.72024,105,2.50014,0.26,0.13246,0.62917,5,2D1U,1.0,True,0.275,8,True,left,-0.08279,0.2894,1.1981,0.9087,1.832,999,997.168,A,0.27
106,0.49672,0.1,1,0.33114,0.22352,0.43877,106,1.90408,-0.18,-0.09106,0.41393,5,1D2U,1.0,False,0.576,6,False,left,0.16557,0.1974,0.8892,0.6918,1.1149,999,997.8851,A,0.275
107,0.49672,0.1,1,0.24008,0.24008,0.57122,107,1.93719,-0.22,-0.10762,0.38909,5,1D2U,2.0,True,0.36,7,True,right,-0.08279,0.1076,0.7742,0.6666,1.2574,1.9549,0.6975,A,0.275
108,0.49672,1.2,2,0.20696,0.21524,0.43049,108,2.30145,0.9,0.44704,0.95204,5,lapse_rate,1.0,False,0.623,0,False,left,0.16557,1.2316,999,997.7684,999,0.9314,-998.0686,A,0.27
109,0.49672,1.2,2,0.24836,0.28147,0.58778,109,2.2435,0.26,0.13246,0.62917,5,2D1U,2.0,True,0.316,8,True,right,-0.08279,1.308,2.0829,0.7749,0.1584,0.85,0.6916,A,0.27
110,0.49672,1.2,1,0.36426,0.2318,0.63745,110,1.7799,-0.9,-0.44704,0.04967,5,lapse_rate,2.0,True,0.392,0,False,right,0.16557,0.2368,0.5623,0.3254,0.9868,999,998.0132,A,0.27
111,0.49672,1.2,1,0.42221,0.39737,0.58778,111,2.29317,-0.22,-0.10762,0.38909,5,1D2U,2.0,True,0.384,7,True,right,-0.08279,0.2928,0.9594,0.6665,1.46,2.1511,0.6912,A,0.27
112,0.49672,0.1,1,0.20696,0.33114,0.52155,112,2.16899,0.22,0.10762,0.61262,5,2D1U,1.0,True,0.275,9,True,left,0.16557,0.0731,0.965,0.8919,1.2734,999,997.7266,A,0.275
113,0.49672,0.1,1,0.38909,0.2318,0.8113,113,2.34284,-0.18,-0.09106,0.41393,5,1D2U,2.0,True,0.649,8,True,right,-0.08279,0.2556,0.9477,0.692,1.6727,999,997.3273,A,0.275
114,0.49672,0.1,1,0.31459,0.28147,0.86097,114,2.90579,0.9,0.44704,0.95204,5,lapse_rate,1.0,True,0.309,0,False,left,0.16557,0.1833,1.4163,1.233,2.0675,999,996.9325,A,0.275
115,0.49672,1.2,1,0.24008,0.27319,0.41393,115,2.03654,0.22,0.10762,0.61262,5,2D1U,2.0,False,0.383,9,True,right,-0.08279,0.1104,1.0022,0.8918,1.3264,2.0192,0.6928,A,0.27
116,0.49672,1.2,1,0.40565,0.22352,0.66229,116,2.41735,0.26,0.13246,0.62917,5,2D1U,2.0,False,0.309,10,True,right,0.16557,0.2734,1.1817,0.9083,1.6318,999,997.3682,A,0.27
117,0.49672,0.1,1,0.20696,0.26491,0.71196,117,2.63259,0.9,0.44704,0.95204,5,lapse_rate,1.0,True,0.818,0,False,left,-0.08279,0.0753,1.3089,1.2336,1.9324,2.6244,0.6919,A,0.275
118,0.49672,0.1,1,0.36426,0.25664,0.78647,118,2.31802,-0.18,-0.09106,0.41393,5,1D2U,1.0,False,0.4,8,True,left,0.16557,0.2371,0.9295,0.6924,1.5028,999,997.4972,A,0.275
119,0.49672,0.1,2,0.38909,0.2318,0.47188,119,1.97858,-0.22,-0.10762,0.38909,5,1D2U,2.0,False,0.518,9,True,right,-0.08279,1.3296,1.8629,0.5332,0.2961,0.9872,0.691,A,0.275
120,0.49672,1.2,2,0.33942,0.24836,0.86925,120,2.00342,-0.9,-0.44704,0.04967,5,lapse_rate,1.0,True,0.548,0,False,left,0.16557,1.8051,1.9969,0.1918,0.122,1.064,0.942,A,0.27
121,0.49672,1.2,2,0.24008,0.37254,0.55467,121,2.31802,0.3,0.14901,0.65401,5,2D1U,2.0,True,0.275,10,False,right,-0.08279,1.2666,2.067,0.8003,0.1493,0.8413,0.692,A,0.27
122,0.49672,1.2,1,0.33942,0.33114,0.4636,122,2.00342,-0.26,-0.13246,0.37254,5,1D2U,2.0,True,0.366,9,False,right,0.16557,0.2045,0.8547,0.6502,1.1047,999,997.8953,A,0.27
123,0.49672,1.2,2,0.33942,0.22352,0.67884,123,1.78817,-0.9,-0.44704,0.04967,5,lapse_rate,1.0,True,0.609,0,False,left,-0.08279,1.4941,1.6856,0.1914,0.2521,0.9439,0.6919,A,0.27
124,0.49672,0.1,1,0.30631,0.25664,0.72024,124,2.43392,0.3,0.14901,0.65401,5,2D1U,2.0,False,0.358,10,False,right,0.16557,0.1762,1.1094,0.9332,1.6171,999,997.3829,A,0.275
125,0.49672,1.2,2,0.32287,0.40565,0.89409,125,3.07137,0.9,0.44704,0.95204,5,lapse_rate,2.0,True,0.233,0,False,right,-0.08279,1.6936,2.7942,1.1006,0.2356,0.9277,0.6921,A,0.27
126,0.49672,0.1,2,0.25664,0.44704,0.42221,126,1.99515,-0.26,-0.13246,0.37254,5,1D2U,1.0,True,0.112,9,False,left,0.16557,1.2713,1.789,0.5177,0.0382,0.9804,0.9422,A,0.275
127,0.49672,1.2,1,0.43049,0.36426,0.73679,127,2.69883,0.34,0.17385,0.67057,5,2D1U,2.0,False,0.225,10,False,right,-0.08279,0.3037,1.2532,0.9495,1.9036,2.5944,0.6908,A,0.27
128,0.49672,1.2,2,0.31459,0.43049,0.58778,128,1.87925,-0.9,-0.44704,0.04967,5,lapse_rate,1.0,True,0.401,0,False,left,0.16557,1.5016,1.694,0.1924,0.1019,1.0439,0.942,A,0.27
129,0.49672,1.2,1,0.22352,0.2318,0.64573,129,1.98686,-0.22,-0.10762,0.38909,5,1D2U,2.0,True,0.326,10,True,right,-0.08279,0.0899,0.7563,0.6664,1.3145,999,997.6855,A,0.27
130,0.49672,0.1,1,0.31459,0.31459,0.43049,130,2.24351,0.38,0.19041,0.68712,5,2D1U,1.0,True,0.399,10,False,left,0.16557,0.1813,1.1474,0.966,1.3646,999,997.6354,A,0.275
131,0.49672,0.1,2,0.25664,0.31459,0.86925,131,2.62432,0.38,0.19041,0.68712,5,2D1U,2.0,True,0.268,10,False,right,-0.08279,1.5956,2.4286,0.833,0.1632,0.8539,0.6907,A,0.275
132,0.49672,1.2,2,0.26491,0.39737,0.84442,132,2.05309,-0.9,-0.44704,0.04967,5,lapse_rate,1.0,True,0.408,0,False,left,0.16557,1.7045,1.8964,0.1919,0.0464,0.988,0.9416,A,0.27
133,0.49672,1.2,2,0.24836,0.25664,0.57122,133,1.96203,-0.22,-0.10762,0.38909,5,1D2U,2.0,False,0.417,10,True,right,-0.08279,1.2932,1.8276,0.5344,0.1602,0.8524,0.6921,A,0.27
134,0.49672,1.2,1,0.43049,0.31459,0.61262,134,2.52499,0.34,0.17385,0.67057,5,2D1U,1.0,True,0.292,11,True,left,0.16557,0.3015,1.2519,0.9505,1.6516,999,997.3484,A,0.27
135,0.49672,1.2,1,0.27319,0.35598,0.43877,135,2.5167,0.9,0.44704,0.95204,5,lapse_rate,1.0,True,0.275,0,False,left,-0.08279,0.1415,1.3745,1.233,1.7248,2.416,0.6912,A,0.27
136,0.49672,0.1,2,0.2318,0.22352,0.84442,136,2.169,-0.26,-0.13246,0.37254,5,1D2U,1.0,True,0.433,11,True,left,0.16557,1.6762,999,997.3238,0.0182,0.9606,0.9424,A,0.275
137,0.49672,0.1,2,0.25664,0.30631,0.65401,137,2.66572,0.9,0.44704,0.95204,5,lapse_rate,2.0,True,0.326,0,False,right,-0.08279,1.3849,2.4845,1.0996,0.1682,0.8589,0.6907,A,0.275
138,0.49672,0.1,1,0.24008,0.21524,0.5795,138,1.90408,-0.26,-0.13246,0.37254,5,1D2U,1.0,False,0.384,11,True,left,0.16557,0.111,0.7608,0.6498,1.1265,999,997.8735,A,0.275
139,0.49672,1.2,1,0.30631,0.21524,0.44704,139,2.13588,0.34,0.17385,0.67057,5,2D1U,2.0,False,0.359,11,True,right,-0.08279,0.1718,1.1216,0.9498,1.4797,999,997.5203,A,0.27
140,0.49672,1.2,1,0.28147,0.38082,0.88581,140,2.73194,0.38,0.19041,0.68712,5,2D1U,1.0,True,0.751,12,True,left,0.16557,0.1486,1.1154,0.9668,1.7905,2.7318,0.9413,A,0.27
141,0.49672,0.1,1,0.29803,0.29803,0.85269,141,2.29317,-0.3,-0.14901,0.3477,5,1D2U,2.0,True,0.332,11,False,right,-0.08279,0.1644,0.7888,0.6245,1.5562,2.2475,0.6913,A,0.275
142,0.49672,0.1,1,0.31459,0.38909,0.87753,142,2.1276,-0.9,-0.44704,0.04967,5,lapse_rate,2.0,True,0.226,0,False,right,0.16557,0.1794,0.5044,0.325,1.1716,2.113,0.9414,A,0.275
143,0.49672,0.1,1,0.44704,0.20696,0.60434,143,2.44218,0.38,0.19041,0.68712,5,2D1U,1.0,True,0.342,12,True,left,-0.08279,0.3199,1.2863,0.9664,1.8031,999,997.1969,A,0.275
144,0.49672,0.1,1,0.35598,0.30631,0.44704,144,2.55809,0.9,0.44704,0.95204,5,lapse_rate,1.0,True,0.26,0,False,left,0.16557,0.2228,1.4561,1.2332,1.6901,999,997.3099,A,0.275
145,0.49672,1.2,2,0.22352,0.44704,0.87753,145,2.39251,-0.3,-0.14901,0.3477,5,1D2U,2.0,False,0.443,11,False,right,-0.08279,1.5733,2.0647,0.4913,0.1316,0.8232,0.6916,A,0.27
146,0.49672,1.2,2,0.40565,0.27319,0.52155,146,1.74678,-0.9,-0.44704,0.04967,5,lapse_rate,1.0,True,0.57,0,False,left,0.16557,1.5233,1.7146,0.1913,0.189,1.1315,0.9425,A,0.27
147,0.49672,1.2,2,0.3477,0.33114,0.81958,147,2.66571,0.34,0.17385,0.67057,5,2D1U,2.0,True,0.268,13,True,right,-0.08279,1.6399,2.456,0.8161,0.2561,0.9479,0.6918,A,0.27
148,0.49672,0.1,2,0.29803,0.27319,0.50499,148,1.90407,-0.34,-0.17385,0.33114,5,1D2U,1.0,True,0.3,11,False,left,0.16557,1.4,1.8747,0.4747,0.0833,1.0242,0.941,A,0.275
149,0.49672,0.1,1,0.24008,0.20696,0.67057,149,1.664,-0.9,-0.44704,0.04967,5,lapse_rate,2.0,True,0.272,0,False,right,-0.08279,0.1115,0.4364,0.3249,1.0197,999,997.9803,A,0.275
150,0.49672,0.1,2,0.39737,0.39737,0.84442,150,2.80645,0.34,0.17385,0.67057,5,2D1U,2.0,True,0.284,13,True,right,0.16557,1.8409,2.6578,0.8169,0.1817,1.1237,0.942,A,0.275
151,0.49672,1.2,2,0.37254,0.37254,0.52983,151,2.10277,-0.34,-0.17385,0.33114,5,1D2U,2.0,False,0.316,11,False,right,-0.08279,1.3713,1.8464,0.4751,0.2792,0.9714,0.6922,A,0.27
152,0.49672,1.2,1,0.2318,0.36426,0.76163,152,2.50842,0.3,0.14901,0.65401,5,2D1U,1.0,True,0.233,13,False,left,0.16557,0.0984,1.0318,0.9333,1.5819,2.5315,0.9496,A,0.27
153,0.49672,0.1,2,0.29803,0.41393,0.56294,153,1.82129,-0.9,-0.44704,0.04967,5,lapse_rate,1.0,True,0.301,0,False,left,-0.08279,1.3316,1.5231,0.1915,0.2066,0.8983,0.6917,A,0.275
154,0.49672,0.1,1,0.35598,0.29803,0.53811,154,1.99515,-0.38,-0.19041,0.30631,5,1D2U,2.0,True,0.234,11,False,right,0.16557,0.227,0.8101,0.5831,1.1354,999,997.8646,A,0.275
155,0.49672,0.1,2,0.22352,0.33114,0.59606,155,2.30145,0.3,0.14901,0.65401,5,2D1U,2.0,True,0.225,13,False,right,-0.08279,1.2923,2.0927,0.8004,0.1345,0.8256,0.6911,A,0.275
156,0.49672,1.2,1,0.38909,0.36426,0.76163,156,2.31801,-0.38,-0.19041,0.30631,5,1D2U,2.0,True,0.283,11,False,right,0.16557,0.2602,0.8429,0.5827,1.3931,2.3342,0.9411,A,0.27
157,0.49672,0.1,1,0.41393,0.26491,0.63745,157,1.86268,-0.9,-0.44704,0.04967,5,lapse_rate,2.0,True,0.23,0,False,right,-0.08279,0.2795,0.6045,0.3251,1.1544,1.8458,0.6914,A,0.275
158,0.49672,1.2,2,0.26491,0.28975,0.43049,158,1.53154,-0.9,-0.44704,0.04967,5,lapse_rate,1.0,True,0.517,0,False,left,0.16557,1.2895,1.481,0.1914,0.0477,0.9895,0.9418,A,0.27
159,0.49672,1.2,1,0.3477,0.38082,0.89409,159,2.45047,-0.34,-0.17385,0.33114,5,1D2U,2.0,True,0.276,12,True,right,-0.08279,0.2193,0.8277,0.6084,1.6349,2.3277,0.6928,A,0.27
160,0.49672,0.1,2,0.32287,0.32287,0.8113,160,2.58293,0.26,0.13246,0.62917,5,2D1U,2.0,True,0.352,13,False,right,0.16557,1.7322,2.5068,0.7746,0.1075,1.049,0.9416,A,0.275
161,0.49672,0.1,2,0.2318,0.44704,0.86925,161,2.37595,-0.34,-0.17385,0.33114,5,1D2U,1.0,True,0.184,12,True,left,-0.08279,1.5782,2.0532,0.475,0.1449,0.8367,0.6918,A,0.275
162,0.49672,0.1,1,0.31459,0.40565,0.71196,162,2.88096,0.9,0.44704,0.95204,5,lapse_rate,1.0,True,0.217,0,False,left,0.16557,0.1857,1.4188,1.2331,1.9185,2.8597,0.9412,A,0.275
163,0.49672,1.2,2,0.38082,0.43049,0.6954,163,2.6326,0.26,0.13246,0.62917,5,2D1U,1.0,False,0.541,13,False,left,-0.08279,1.5476,2.3231,0.7755,0.2898,0.9813,0.6914,A,0.27
164,0.49672,1.2,1,0.3477,0.27319,0.73679,164,2.50841,0.3,0.14901,0.65401,5,2D1U,2.0,False,0.324,14,True,right,0.16557,0.2192,1.1533,0.9341,1.6784,999,997.3216,A,0.27
165,0.49672,0.1,2,0.19869,0.22352,0.57122,165,1.83785,-0.3,-0.14901,0.3477,5,1D2U,1.0,True,0.429,12,False,left,-0.08279,1.2381,1.7306,0.4925,0.1057,0.7969,0.6912,A,0.275
166,0.49672,1.2,2,0.28975,0.24836,0.47188,166,1.55638,-0.9,-0.44704,0.04967,5,lapse_rate,1.0,True,0.439,0,False,left,0.16557,1.3583,1.5502,0.1919,0.0753,1.0165,0.9412,A,0.27
167,0.49672,0.1,1,0.39737,0.26491,0.76991,167,2.59948,0.34,0.17385,0.67057,5,2D1U,1.0,True,0.369,14,False,left,-0.08279,0.2633,1.2131,0.9499,1.8972,2.5883,0.6911,A,0.275
168,0.49672,1.2,1,0.20696,0.26491,0.80302,168,2.44218,0.34,0.17385,0.67057,5,2D1U,2.0,False,0.325,14,False,right,0.16557,0.0729,1.0229,0.95,1.615,999,997.385,A,0.27
169,0.49672,1.2,2,0.32287,0.38909,0.74507,169,2.30145,-0.3,-0.14901,0.3477,5,1D2U,1.0,True,0.282,12,False,left,-0.08279,1.54,2.032,0.4921,0.2316,0.9232,0.6915,A,0.27
170,0.49672,0.1,1,0.39737,0.28147,0.88581,170,2.74849,0.38,0.19041,0.68712,5,2D1U,2.0,False,0.3,14,False,right,0.16557,0.2638,1.2296,0.9658,1.9053,999,997.0947,A,0.275
171,0.49672,0.1,1,0.39737,0.41393,0.59606,171,2.61604,0.42,0.20696,0.71196,5,2D1U,1.0,True,0.242,14,False,left,-0.08279,0.264,1.2546,0.9906,1.7625,2.4546,0.6921,A,0.275
172,0.49672,1.2,2,0.37254,0.26491,0.45532,172,1.96203,-0.26,-0.13246,0.37254,5,1D2U,1.0,True,0.384,12,False,left,0.16557,1.4236,1.9396,0.516,0.1565,1.0981,0.9417,A,0.27
173,0.49672,1.2,1,0.31459,0.3477,0.53811,173,2.40908,0.42,0.20696,0.71196,5,2D1U,2.0,False,0.862,14,False,right,-0.08279,0.1791,1.1712,0.9921,1.6204,2.3125,0.6921,A,0.27
174,0.49672,0.1,1,0.29803,0.43877,0.67884,174,2.2849,-0.26,-0.13246,0.37254,5,1D2U,2.0,True,0.31,12,False,right,0.16557,0.1643,0.8139,0.6497,1.2812,2.2231,0.9419,A,0.275
175,0.49672,0.1,2,0.24836,0.33942,0.88581,175,2.3594,-0.22,-0.10762,0.38909,5,1D2U,1.0,True,0.394,12,False,left,-0.08279,1.6077,2.1405,0.5328,0.1581,0.8488,0.6907,A,0.275
176,0.49672,1.2,1,0.22352,0.3477,0.58778,176,2.04481,-0.22,-0.10762,0.38909,5,1D2U,2.0,True,0.783,12,False,right,0.16557,0.088,0.7541,0.6661,1.1285,999,997.8715,A,0.27
177,0.49672,1.2,2,0.31459,0.38909,0.44704,177,2.37596,0.46,0.2318,0.72852,5,2D1U,2.0,True,0.242,14,False,right,-0.08279,1.2323,2.1066,0.8744,0.2237,0.9143,0.6906,A,0.27
178,0.49672,0.1,2,0.21524,0.43877,0.53811,178,2.41736,0.46,0.2318,0.72852,5,2D1U,2.0,True,0.25,14,False,right,0.16557,1.3537,2.2282,0.8745,0.0027,0.9448,0.9422,A,0.275
179,0.49672,0.1,2,0.38909,0.33114,0.73679,179,2.6657,0.42,0.20696,0.71196,5,2D1U,1.0,False,0.343,15,True,left,-0.08279,1.5987,2.4573,0.8586,0.2987,0.9907,0.692,A,0.275
180,0.49672,1.2,1,0.22352,0.38082,0.45532,180,1.97031,-0.18,-0.09106,0.41393,5,1D2U,1.0,False,0.242,12,False,left,0.16557,0.0944,0.7863,0.6919,1.0276,1.9695,0.9419,A,0.27
181,0.49672,1.2,1,0.22352,0.43049,0.67057,181,2.54982,0.46,0.2318,0.72852,5,2D1U,1.0,True,0.283,16,True,left,-0.08279,0.0934,1.1018,1.0084,1.685,2.3757,0.6907,A,0.27
182,0.49672,0.1,2,0.33114,0.38909,0.49672,182,2.10276,-0.22,-0.10762,0.38909,5,1D2U,1.0,True,1.234,13,True,left,0.16557,1.428,1.9613,0.5333,0.1206,1.062,0.9414,A,0.275
183,0.49672,0.1,2,0.40565,0.37254,0.82786,183,2.49186,-0.22,-0.10762,0.38909,5,1D2U,2.0,False,0.218,13,True,right,-0.08279,1.708,2.2413,0.5333,0.3156,1.0079,0.6923,A,0.275
184,0.49672,1.2,2,0.31459,0.28147,0.53811,184,2.35941,0.46,0.2318,0.72852,5,2D1U,2.0,True,0.251,16,True,right,0.16557,1.4483,2.3237,0.8753,0.098,1.0407,0.9427,A,0.27
185,0.49672,1.2,1,0.31459,0.37254,0.60434,185,2.50015,0.42,0.20696,0.71196,5,2D1U,1.0,True,0.459,17,True,left,-0.08279,0.1808,1.1719,0.9912,1.6893,2.3808,0.6915,A,0.27
186,0.49672,0.1,2,0.38082,0.25664,0.52155,186,2.02827,-0.26,-0.13246,0.37254,5,1D2U,1.0,True,0.476,13,False,left,0.16557,1.4996,2.0163,0.5167,0.1663,1.108,0.9417,A,0.275
187,0.49672,0.1,2,0.24008,0.24008,0.52155,187,2.21039,0.42,0.20696,0.71196,5,2D1U,2.0,True,0.207,17,True,right,-0.08279,1.2312,2.0901,0.8589,0.1475,0.8402,0.6927,A,0.275
188,0.49672,1.2,2,0.31459,0.26491,0.61262,188,2.06138,-0.26,-0.13246,0.37254,5,1D2U,1.0,True,0.366,13,False,left,0.16557,1.5261,2.0426,0.5165,0.101,1.0427,0.9417,A,0.27
189,0.49672,1.2,1,0.43877,0.21524,0.72024,189,2.26006,-0.22,-0.10762,0.38909,5,1D2U,2.0,True,0.3,14,True,right,-0.08279,0.31,0.9759,0.666,1.6104,999,997.3896,A,0.27
190,0.49672,0.1,1,0.38082,0.25664,0.72852,190,2.54982,0.38,0.19041,0.68712,5,2D1U,2.0,False,0.458,17,False,right,0.16557,0.247,1.2143,0.9673,1.7311,999,997.2689,A,0.275
191,0.49672,0.1,1,0.20696,0.24008,0.74507,191,2.07792,-0.22,-0.10762,0.38909,5,1D2U,2.0,True,0.334,14,True,right,-0.08279,0.0796,0.7454,0.6658,1.4038,2.1,0.6962,A,0.275
192,0.49672,1.2,2,0.30631,0.26491,0.89409,192,2.67399,0.42,0.20696,0.71196,5,2D1U,2.0,True,0.392,18,True,right,0.16557,1.8018,2.6601,0.8583,0.094,1.0357,0.9417,A,0.27
193,0.49672,1.2,1,0.30631,0.39737,0.54639,193,2.45875,0.42,0.20696,0.71196,5,2D1U,1.0,True,0.335,18,True,left,-0.08279,0.178,1.1698,0.9918,1.6286,2.3203,0.6917,A,0.27
194,0.49672,0.1,1,0.35598,0.30631,0.41393,194,2.26006,0.38,0.19041,0.68712,5,2D1U,1.0,True,0.3,19,True,left,0.16557,0.2223,1.1893,0.9669,1.3893,999,997.6107,A,0.275
195,0.49672,0.1,2,0.25664,0.42221,0.81958,195,2.40908,-0.18,-0.09106,0.41393,5,1D2U,1.0,True,0.275,14,False,left,-0.08279,1.5465,2.1044,0.5579,0.1632,0.8542,0.691,A,0.275
196,0.49672,1.2,1,0.43049,0.26491,0.49672,196,2.10277,-0.18,-0.09106,0.41393,5,1D2U,2.0,True,0.275,14,False,right,0.16557,0.2972,0.9893,0.6921,1.2723,999,997.7277,A,0.27
197,0.49672,1.2,2,0.32287,0.32287,0.54639,197,2.11934,-0.14,-0.06623,0.43049,5,1D2U,2.0,False,0.301,14,False,right,-0.08279,1.3444,1.919,0.5746,0.2358,0.9275,0.6917,A,0.27
198,0.49672,0.1,2,0.20696,0.33114,0.53811,198,2.26005,0.38,0.19041,0.68712,5,2D1U,2.0,True,0.841,19,True,right,0.16557,1.3405,2.1736,0.8331,999,0.9313,-998.0687,A,0.275
199,0.49672,0.1,2,0.29803,0.44704,0.88581,199,2.54153,-0.18,-0.09106,0.41393,5,1D2U,1.0,True,0.401,15,True,left,-0.08279,1.6559,2.2146,0.5587,0.2069,0.8986,0.6916,A,0.275
200,0.49672,1.2,2,0.28975,0.40565,0.57122,200,2.43391,0.34,0.17385,0.67057,5,2D1U,2.0,True,0.292,19,False,right,0.16557,1.4599,2.2764,0.8165,0.0767,1.0185,0.9418,A,0.27
201,0.49672,1.2,2,0.28147,0.41393,0.56294,201,2.16899,-0.18,-0.09106,0.41393,5,1D2U,1.0,True,0.409,15,True,left,-0.08279,1.3203,1.879,0.5587,0.1952,0.8867,0.6915,A,0.27
202,0.49672,0.1,1,0.31459,0.28975,0.76991,202,2.54154,0.34,0.17385,0.67057,5,2D1U,1.0,True,0.301,19,False,left,0.16557,0.1783,1.1284,0.9501,1.6873,999,997.3127,A,0.275
203,0.49672,0.1,1,0.24008,0.3477,0.48844,203,2.00343,-0.14,-0.06623,0.43049,5,1D2U,2.0,True,0.215,16,True,right,-0.08279,0.1071,0.8152,0.7081,1.2152,1.907,0.6918,A,0.275
204,0.49672,1.2,1,0.24836,0.2318,0.45532,204,1.86269,-0.14,-0.06623,0.43049,5,1D2U,1.0,False,0.308,16,True,left,0.16557,0.1193,0.8269,0.7076,1.0692,999,997.9308,A,0.27
205,0.49672,1.2,1,0.28975,0.26491,0.80302,205,2.50841,0.3,0.14901,0.65401,5,2D1U,2.0,False,0.284,19,False,right,-0.08279,0.1559,1.089,0.9331,1.8062,2.4974,0.6912,A,0.27
206,0.49672,0.1,1,0.28147,0.26491,0.64573,206,2.10276,-0.18,-0.09106,0.41393,5,1D2U,2.0,True,0.916,17,True,right,0.16557,0.1486,0.8398,0.6912,1.2738,999,997.7262,A,0.275
207,0.49672,0.1,1,0.28147,0.41393,0.41393,207,2.01998,-0.18,-0.09106,0.41393,5,1D2U,1.0,False,0.166,17,True,left,-0.08279,0.1489,0.8406,0.6918,1.1655,1.858,0.6925,A,0.275
208,0.49672,1.2,1,0.43877,0.24836,0.5795,208,2.43392,0.34,0.17385,0.67057,5,2D1U,1.0,True,0.532,20,True,left,0.16557,0.3056,1.2561,0.9505,1.6225,999,997.3775,A,0.27
209,0.49672,1.2,1,0.43877,0.41393,0.51327,209,2.25178,-0.22,-0.10762,0.38909,5,1D2U,2.0,True,0.281,17,False,right,-0.08279,0.306,0.9724,0.6664,1.3977,2.0892,0.6914,A,0.27
210,0.49672,0.1,2,0.38909,0.43877,0.71196,210,2.70711,0.34,0.17385,0.67057,5,2D1U,2.0,True,0.113,20,True,right,0.16557,1.7016,2.5174,0.8157,0.1759,1.1177,0.9418,A,0.275
211,0.49672,0.1,2,0.24008,0.37254,0.6954,211,2.19383,-0.22,-0.10762,0.38909,5,1D2U,1.0,True,0.259,17,False,left,-0.08279,1.4065,1.9394,0.5329,0.1484,0.8395,0.6911,A,0.275
212,0.49672,1.2,2,0.36426,0.33942,0.67057,212,2.52498,0.3,0.14901,0.65401,5,2D1U,2.0,True,0.25,21,True,right,0.16557,1.63,2.4302,0.8002,0.1463,1.0881,0.9419,A,0.27
213,0.49672,1.2,2,0.28147,0.33114,0.54639,213,2.06965,-0.18,-0.09106,0.41393,5,1D2U,1.0,True,0.509,18,True,left,-0.08279,1.3013,1.8591,0.5578,0.1923,0.8847,0.6924,A,0.27
214,0.49672,0.1,1,0.3477,0.31459,0.55467,214,2.36769,0.3,0.14901,0.65401,5,2D1U,2.0,False,0.509,21,True,right,0.16557,0.217,1.1506,0.9336,1.4922,999,997.5078,A,0.275
215,0.49672,0.1,2,0.38082,0.42221,0.42221,215,2.39253,0.34,0.17385,0.67057,5,2D1U,2.0,True,0.334,22,True,right,-0.08279,1.2724,2.0884,0.816,0.2892,0.9817,0.6925,A,0.275
216,0.49672,1.2,2,0.25664,0.36426,0.89409,216,2.42564,-0.18,-0.09106,0.41393,5,1D2U,1.0,True,0.334,18,True,left,0.16557,1.7457,2.304,0.5584,0.037,0.9792,0.9422,A,0.27
217,0.49672,1.2,1,0.43877,0.38082,0.87753,217,2.62433,-0.14,-0.06623,0.43049,5,1D2U,2.0,True,0.359,18,False,right,-0.08279,0.3109,1.0191,0.7082,1.8113,2.5026,0.6913,A,0.27
218,0.49672,0.1,2,0.20696,0.31459,0.57122,218,2.26006,0.34,0.17385,0.67057,5,2D1U,2.0,True,0.384,22,True,right,0.16557,1.3779,2.1939,0.816,999,0.9361,-998.0639,A,0.275
219,0.49672,0.1,2,0.35598,0.19869,0.58778,219,2.06966,-0.14,-0.06623,0.43049,5,1D2U,1.0,True,0.409,18,False,left,-0.08279,1.4133,1.9879,0.5745,0.2637,0.9545,0.6908,A,0.275
220,0.49672,1.2,2,0.36426,0.43049,0.80302,220,2.54153,-0.1,-0.04967,0.44704,5,1D2U,1.0,True,0.292,18,False,left,0.16557,1.7682,2.3593,0.5911,0.151,1.0929,0.9419,A,0.27
221,0.49672,1.2,2,0.41393,0.25664,0.77819,221,2.59949,0.3,0.14901,0.65401,5,2D1U,2.0,True,0.225,23,True,right,-0.08279,1.6683,2.4683,0.8,0.3266,1.0183,0.6917,A,0.27
222,0.49672,0.1,1,0.29803,0.25664,0.41393,222,1.91236,-0.1,-0.04967,0.44704,5,1D2U,2.0,True,2.084,18,False,right,0.16557,0.1693,0.894,0.7247,1.0935,999,997.9065,A,0.275
223,0.49672,0.1,2,0.2318,0.43049,0.42221,223,2.23523,0.3,0.14901,0.65401,5,2D1U,2.0,True,0.251,23,True,right,-0.08279,1.1238,1.9238,0.8,0.1405,0.8314,0.6909,A,0.275
224,0.49672,1.2,1,0.35598,0.32287,0.76163,224,2.56637,0.26,0.13246,0.62917,5,2D1U,1.0,True,0.267,23,False,left,0.16557,0.2202,1.1288,0.9086,1.6789,999,997.3211,A,0.27
225,0.49672,1.2,1,0.27319,0.42221,0.76163,225,2.58292,0.26,0.13246,0.62917,5,2D1U,1.0,True,0.234,23,False,left,-0.08279,0.1371,1.0459,0.9087,1.7206,2.4122,0.6916,A,0.27
226,0.49672,0.1,1,0.36426,0.27319,0.70368,226,2.30973,-0.06,-0.03311,0.47188,5,1D2U,2.0,True,0.35,18,False,right,0.16557,0.2315,0.9808,0.7494,1.4724,999,997.5276,A,0.275
227,0.49672,0.1,1,0.26491,0.27319,0.60434,227,2.11104,-0.06,-0.03311,0.47188,5,1D2U,2.0,True,0.242,18,False,right,-0.08279,0.1326,0.8821,0.7495,1.3988,2.0907,0.6919,A,0.275
228,0.49672,1.2,2,0.31459,0.28147,0.42221,228,2.00343,-0.02,-0.00828,0.48844,5,1D2U,1.0,True,0.3,18,False,left,0.16557,1.3304,1.9637,0.6334,0.097,1.039,0.942,A,0.27
229,0.49672,1.2,1,0.31459,0.29803,0.55467,229,2.27663,0.22,0.10762,0.61262,5,2D1U,2.0,False,0.284,23,False,right,-0.08279,0.1827,1.0735,0.8908,1.5406,2.2323,0.6916,A,0.27
230,0.49672,0.1,1,0.33114,0.43049,0.78647,230,2.53326,-0.02,-0.00828,0.48844,5,1D2U,1.0,False,0.243,18,False,left,0.16557,0.1982,0.9646,0.7664,1.5393,2.4814,0.9421,A,0.275
231,0.49672,0.1,1,0.20696,0.27319,0.68712,231,2.29316,0.26,0.13246,0.62917,5,2D1U,1.0,True,0.272,24,True,left,-0.08279,0.0725,0.981,0.9085,1.5802,2.2728,0.6926,A,0.275
232,0.49672,1.2,1,0.28147,0.36426,0.5795,232,2.19383,-0.06,-0.03311,0.47188,5,1D2U,2.0,True,0.317,19,True,right,0.16557,0.1501,0.9005,0.7504,1.2677,2.2124,0.9447,A,0.27
233,0.49672,1.2,1,0.30631,0.41393,0.6954,233,2.38424,-0.06,-0.03311,0.47188,5,1D2U,2.0,True,0.891,19,True,right,-0.08279,0.1754,0.9248,0.7494,1.5335,2.2255,0.692,A,0.27
234,0.49672,0.1,1,0.36426,0.26491,0.71196,234,2.46702,0.26,0.13246,0.62917,5,2D1U,1.0,True,0.276,24,True,left,0.16557,0.2347,1.1433,0.9087,1.6435,999,997.3565,A,0.275
235,0.49672,0.1,1,0.24008,0.32287,0.65401,235,2.20212,-0.02,-0.00828,0.48844,5,1D2U,2.0,True,0.343,20,True,right,-0.08279,0.1071,0.8733,0.7661,1.4403,2.1326,0.6923,A,0.275
236,0.49672,1.2,1,0.39737,0.27319,0.84442,236,2.50014,-0.02,-0.00828,0.48844,5,1D2U,2.0,True,0.358,20,True,right,0.16557,0.2646,1.0307,0.7661,1.6639,999,997.3361,A,0.27
237,0.49672,1.2,2,0.28147,0.30631,0.82786,237,2.52498,0.22,0.10762,0.61262,5,2D1U,2.0,True,0.33,25,True,right,-0.08279,1.579,2.3377,0.7586,0.1877,0.8788,0.691,A,0.27
238,0.49672,0.1,1,0.22352,0.43877,0.77819,238,2.54982,0.22,0.10762,0.61262,5,2D1U,1.0,True,0.225,25,True,left,0.16557,0.0865,0.9784,0.8919,1.545,2.4872,0.9422,A,0.275
239,0.49672,0.1,1,0.26491,0.24008,0.83614,239,2.42563,0.18,0.09106,0.58778,5,2D1U,1.0,True,0.325,25,False,left,-0.08279,0.1359,1.0022,0.8663,1.7525,2.4521,0.6996,A,0.275
240,0.49672,1.2,1,0.42221,0.2318,0.58778,240,2.25178,0.02,0.00828,0.51327,5,1D2U,2.0,False,0.375,20,False,right,0.16557,0.2935,1.085,0.7915,1.4598,999,997.5402,A,0.27
241,0.49672,1.2,1,0.30631,0.41393,0.72024,241,2.45047,0.02,0.00828,0.51327,5,1D2U,1.0,True,0.467,20,False,left,-0.08279,0.172,0.9635,0.7914,1.5969,2.289,0.6921,A,0.27
242,0.49672,0.1,2,0.24008,0.28147,0.58778,242,2.19383,0.18,0.09106,0.58778,5,2D1U,2.0,True,0.564,25,False,right,0.16557,1.4233,2.1562,0.7329,0.0234,0.9645,0.9412,A,0.275
243,0.49672,0.1,2,0.42221,0.44704,0.4636,243,2.40079,0.14,0.06623,0.57122,5,2D1U,2.0,True,0.226,25,False,right,-0.08279,1.3604,2.0777,0.7173,0.3353,1.0273,0.692,A,0.275
244,0.49672,1.2,2,0.40565,0.24836,0.76163,244,2.4008,-0.02,-0.00828,0.48844,5,1D2U,2.0,False,0.533,21,True,right,0.16557,1.7652,2.3992,0.634,0.1907,1.1317,0.941,A,0.27
245,0.49672,1.2,2,0.42221,0.28975,0.67884,245,2.45874,0.14,0.06623,0.57122,5,2D1U,2.0,True,0.209,25,False,right,-0.08279,1.5717,2.2884,0.7168,0.33,1.0219,0.6919,A,0.27
246,0.49672,0.1,2,0.43877,0.25664,0.57122,246,2.23523,-0.06,-0.03311,0.47188,5,1D2U,1.0,True,0.466,21,False,left,0.16557,1.6081,2.2245,0.6164,0.2245,1.1655,0.941,A,0.275
247,0.49672,0.1,1,0.20696,0.19869,0.42221,247,1.79646,-0.06,-0.03311,0.47188,5,1D2U,2.0,True,0.365,21,False,right,-0.08279,0.0711,0.8207,0.7496,1.154,999,997.846,A,0.275
248,0.49672,1.2,2,0.29803,0.25664,0.66229,248,2.20212,-0.02,-0.00828,0.48844,5,1D2U,2.0,False,0.384,22,True,right,0.16557,1.5609,2.1948,0.6339,0.0867,1.0276,0.9409,A,0.27
249,0.49672,1.2,1,0.29803,0.24836,0.88581,249,2.4008,-0.06,-0.03311,0.47188,5,1D2U,2.0,True,0.275,23,True,right,-0.08279,0.1615,0.9115,0.75,1.7115,2.403,0.6915,A,0.27
250,0.49672,0.1,2,0.28147,0.29803,0.60434,250,2.22695,0.1,0.04967,0.54639,5,2D1U,1.0,False,0.416,25,False,left,0.16557,1.4847,2.1761,0.6914,0.0675,1.0096,0.9421,A,0.275
251,0.49672,0.1,1,0.41393,0.33114,0.65401,251,2.46702,0.14,0.06623,0.57122,5,2D1U,1.0,True,0.25,26,True,left,-0.08279,0.2826,1.1333,0.8507,1.6997,2.3915,0.6918,A,0.275
252,0.49672,1.2,2,0.26491,0.33942,0.41393,252,1.98686,-0.06,-0.03311,0.47188,5,1D2U,1.0,True,0.409,23,True,left,0.16557,1.2737,1.8903,0.6167,0.0489,0.9901,0.9411,A,0.27
253,0.49672,1.2,2,0.40565,0.21524,0.45532,253,2.14415,0.14,0.06623,0.57122,5,2D1U,2.0,True,0.258,26,True,right,-0.08279,1.3296,2.0461,0.7165,0.3122,1.0043,0.6921,A,0.27
254,0.49672,0.1,2,0.33942,0.41393,0.58778,254,2.32629,-0.02,-0.00828,0.48844,5,1D2U,2.0,False,0.559,24,True,right,0.16557,1.5282,2.1617,0.6335,0.1283,1.0696,0.9413,A,0.275
255,0.49672,0.1,1,0.31459,0.43877,0.74507,255,2.54154,0.1,0.04967,0.54639,5,2D1U,2.0,False,0.309,27,True,right,-0.08279,0.1852,1.01,0.8248,1.6687,2.36,0.6913,A,0.275
256,0.49672,1.2,2,0.33114,0.44704,0.62089,256,2.36767,-0.06,-0.03311,0.47188,5,1D2U,1.0,True,0.292,25,True,left,0.16557,1.5531,2.1695,0.6164,0.1194,1.0611,0.9417,A,0.27
257,0.49672,1.2,2,0.21524,0.20696,0.80302,257,2.29316,0.14,0.06623,0.57122,5,2D1U,2.0,True,0.375,28,True,right,-0.08279,1.4945,2.2108,0.7164,0.1275,0.8184,0.6909,A,0.27
258,0.49672,0.1,2,0.19869,0.37254,0.55467,258,2.0945,-0.06,-0.03311,0.47188,5,1D2U,2.0,False,0.559,25,True,right,0.16557,1.3476,1.9647,0.617,999,0.9228,-998.0772,A,0.275
259,0.49672,0.1,1,0.28975,0.2318,0.48016,259,2.06965,0.14,0.06623,0.57122,5,2D1U,2.0,False,0.625,28,True,right,-0.08279,0.1594,1.01,0.8506,1.4014,999,997.5986,A,0.275
260,0.49672,1.2,1,0.21524,0.26491,0.50499,260,1.9289,-0.1,-0.04967,0.44704,5,1D2U,1.0,False,0.326,25,False,left,0.16557,0.086,0.8105,0.7244,1.1027,999,997.8973,A,0.27
261,0.49672,1.2,1,0.28975,0.29803,0.71196,261,2.38424,0.18,0.09106,0.58778,5,2D1U,2.0,False,0.35,28,False,right,-0.08279,0.1544,1.0211,0.8668,1.6457,2.3379,0.6922,A,0.27
262,0.49672,0.1,1,0.32287,0.22352,0.39737,262,1.87097,-0.14,-0.06623,0.43049,5,1D2U,1.0,False,0.4,25,False,left,0.16557,0.1932,0.9019,0.7087,1.0845,999,997.9155,A,0.275
263,0.49672,0.1,1,0.38082,0.31459,0.78647,263,2.39253,-0.18,-0.09106,0.41393,5,1D2U,2.0,True,0.325,25,False,right,-0.08279,0.2509,0.9434,0.6925,1.6432,2.3352,0.692,A,0.275
264,0.49672,1.2,1,0.43877,0.31459,0.41393,264,2.07794,-0.18,-0.09106,0.41393,5,1D2U,2.0,True,0.3,25,False,right,0.16557,0.306,0.998,0.692,1.1975,999,997.8025,A,0.27
265,0.49672,1.2,2,0.42221,0.19869,0.75335,265,2.48359,0.22,0.10762,0.61262,5,2D1U,2.0,True,0.376,28,False,right,-0.08279,1.648,2.4063,0.7583,0.331,1.0228,0.6918,A,0.27
266,0.49672,0.1,2,0.36426,0.38909,0.84442,266,2.70711,0.22,0.10762,0.61262,5,2D1U,2.0,True,0.2,28,False,right,0.16557,1.8063,2.5642,0.7579,0.1471,1.0888,0.9417,A,0.275
267,0.49672,0.1,2,0.39737,0.33114,0.65401,267,2.46702,0.18,0.09106,0.58778,5,2D1U,1.0,False,0.443,29,True,left,-0.08279,1.5207,2.2539,0.7332,0.3037,0.9951,0.6913,A,0.275
268,0.49672,1.2,1,0.3477,0.37254,0.76163,268,2.40908,-0.14,-0.06623,0.43049,5,1D2U,2.0,True,0.376,26,True,right,0.16557,0.2138,0.923,0.7092,1.4729,2.4151,0.9422,A,0.27
269,0.49672,1.2,1,0.37254,0.28975,0.4636,269,2.0531,-0.14,-0.06623,0.43049,5,1D2U,2.0,True,0.332,26,True,right,-0.08279,0.2405,0.9493,0.7088,1.3238,2.015,0.6913,A,0.27
270,0.49672,0.1,1,0.28147,0.32287,0.55467,270,2.26835,0.22,0.10762,0.61262,5,2D1U,1.0,True,0.841,30,True,left,0.16557,0.1533,1.0446,0.8914,1.3862,999,997.6138,A,0.275
271,0.49672,0.1,2,0.33942,0.36426,0.87753,271,2.52497,-0.1,-0.04967,0.44704,5,1D2U,1.0,True,0.275,26,False,left,-0.08279,1.6898,2.2811,0.5913,0.2469,0.9399,0.693,A,0.275
272,0.49672,1.2,2,0.26491,0.37254,0.6954,272,2.27661,-0.1,-0.04967,0.44704,5,1D2U,2.0,False,0.3,26,False,right,0.16557,1.558,2.1503,0.5923,0.0502,0.9919,0.9417,A,0.27
273,0.49672,1.2,2,0.43049,0.21524,0.8113,273,2.56637,0.22,0.10762,0.61262,5,2D1U,2.0,True,0.191,30,True,right,-0.08279,1.7133,2.4708,0.7575,0.3392,1.0291,0.6899,A,0.27
274,0.49672,0.1,1,0.3477,0.39737,0.66229,274,2.49186,0.18,0.09106,0.58778,5,2D1U,1.0,True,0.242,31,True,left,0.16557,0.2146,1.0807,0.8661,1.5316,2.4729,0.9413,A,0.275
275,0.49672,0.1,1,0.41393,0.43049,0.74507,275,2.5167,-0.14,-0.06623,0.43049,5,1D2U,1.0,False,0.509,27,True,left,-0.08279,0.2812,0.9885,0.7074,1.6475,2.3391,0.6916,A,0.275
276,0.49672,1.2,2,0.37254,0.25664,0.62917,276,2.169,-0.18,-0.09106,0.41393,5,1D2U,2.0,False,0.366,27,False,right,0.16557,1.5994,2.1578,0.5583,0.1577,1.0993,0.9416,A,0.27
277,0.49672,1.2,1,0.29803,0.39737,0.86097,277,2.64087,0.18,0.09106,0.58778,5,2D1U,2.0,False,0.209,31,True,right,-0.08279,0.1673,1.0337,0.8664,1.8081,2.4998,0.6917,A,0.27
278,0.49672,0.1,2,0.30631,0.36426,0.81958,278,2.59949,0.22,0.10762,0.61262,5,2D1U,1.0,False,0.258,32,True,left,0.16557,1.7216,2.4796,0.758,0.0887,1.0299,0.9412,A,0.275
279,0.49672,0.1,1,0.32287,0.29803,0.55467,279,2.06138,-0.22,-0.10762,0.38909,5,1D2U,1.0,False,0.293,27,False,left,-0.08279,0.193,0.8592,0.6662,1.3263,2.0171,0.6909,A,0.275
280,0.49672,1.2,1,0.43049,0.41393,0.72852,280,2.4422,-0.26,-0.13246,0.37254,5,1D2U,2.0,True,0.3,27,False,right,0.16557,0.2989,0.9485,0.6495,1.4647,2.4063,0.9416,A,0.27
281,0.49672,1.2,1,0.39737,0.25664,0.87753,281,2.65743,0.26,0.13246,0.62917,5,2D1U,1.0,True,0.284,32,False,left,-0.08279,0.2695,1.1779,0.9084,1.9696,2.661,0.6914,A,0.27
282,0.49672,0.1,1,0.21524,0.43049,0.67884,282,2.45046,0.26,0.13246,0.62917,5,2D1U,1.0,True,0.276,32,False,left,0.16557,0.0812,0.9901,0.9089,1.4562,2.3986,0.9424,A,0.275
283,0.49672,0.1,2,0.22352,0.30631,0.55467,283,1.95376,-0.26,-0.13246,0.37254,5,1D2U,1.0,True,0.396,27,False,left,-0.08279,1.2473,1.764,0.5167,0.1313,0.8224,0.6911,A,0.275
284,0.49672,1.2,1,0.33942,0.29803,0.48844,284,2.0117,-0.22,-0.10762,0.38909,5,1D2U,2.0,True,0.293,28,True,right,0.16557,0.2113,0.8777,0.6663,1.1533,999,997.8467,A,0.27
285,0.49672,1.2,2,0.31459,0.40565,0.53811,285,2.36769,0.22,0.10762,0.61262,5,2D1U,2.0,True,0.309,33,True,right,-0.08279,1.3227,2.081,0.7583,0.2229,0.9148,0.6919,A,0.27
286,0.49672,0.1,1,0.39737,0.39737,0.72024,286,2.62432,0.22,0.10762,0.61262,5,2D1U,2.0,False,0.242,33,True,right,0.16557,0.2637,1.1549,0.8912,1.6631,2.6048,0.9417,A,0.275
287,0.49672,0.1,2,0.41393,0.24836,0.76163,287,2.54981,0.26,0.13246,0.62917,5,2D1U,1.0,False,0.333,34,True,left,-0.08279,1.6473,2.4232,0.7759,0.3234,1.0141,0.6907,A,0.275
288,0.49672,1.2,2,0.30631,0.40565,0.82786,288,2.42563,-0.22,-0.10762,0.38909,5,1D2U,1.0,True,0.409,28,True,left,0.16557,1.7331,2.2663,0.5332,0.0904,1.0319,0.9416,A,0.27
289,0.49672,1.2,2,0.43877,0.25664,0.82786,289,2.43392,-0.18,-0.09106,0.41393,5,1D2U,2.0,False,0.334,28,False,right,-0.08279,1.7429,2.3013,0.5584,0.3516,1.0434,0.6918,A,0.27
290,0.49672,0.1,1,0.33942,0.43049,0.52155,290,2.17727,-0.22,-0.10762,0.38909,5,1D2U,1.0,False,0.238,29,True,left,0.16557,0.2054,0.8721,0.6667,1.1809,2.1227,0.9419,A,0.275
291,0.49672,0.1,1,0.39737,0.37254,0.40565,291,2.32629,0.3,0.14901,0.65401,5,2D1U,1.0,True,0.208,34,False,left,-0.08279,0.2694,1.2034,0.934,1.5188,2.2112,0.6924,A,0.275
292,0.49672,1.2,2,0.25664,0.21524,0.67884,292,2.30145,0.3,0.14901,0.65401,5,2D1U,2.0,True,0.351,34,False,right,0.16557,1.5361,999,997.4639,0.0441,0.9857,0.9417,A,0.27
293,0.49672,1.2,1,0.28147,0.20696,0.66229,293,2.27661,0.26,0.13246,0.62917,5,2D1U,2.0,False,0.3,35,True,right,-0.08279,0.1482,1.0572,0.909,1.6314,999,997.3686,A,0.27
294,0.49672,0.1,2,0.37254,0.42221,0.59606,294,2.26007,-0.26,-0.13246,0.37254,5,1D2U,1.0,True,0.342,29,False,left,0.16557,1.5643,2.081,0.5167,0.1559,1.0974,0.9416,A,0.275
295,0.49672,0.1,2,0.29803,0.30631,0.52155,295,2.27662,0.3,0.14901,0.65401,5,2D1U,2.0,True,0.225,36,True,right,-0.08279,1.2947,2.0938,0.7991,0.2111,0.9021,0.691,A,0.275
296,0.49672,1.2,1,0.42221,0.21524,0.8113,296,2.31801,-0.26,-0.13246,0.37254,5,1D2U,2.0,True,0.318,29,False,right,0.16557,0.2875,0.9376,0.6501,1.5376,999,997.4624,A,0.27
297,0.49672,1.2,2,0.24008,0.41393,0.89409,297,2.43391,-0.22,-0.10762,0.38909,5,1D2U,1.0,True,0.443,30,True,left,-0.08279,1.607,2.1401,0.5331,0.1485,0.8397,0.6913,A,0.27
298,0.49672,0.1,2,0.32287,0.32287,0.81958,298,2.61605,0.3,0.14901,0.65401,5,2D1U,2.0,True,0.243,36,True,right,0.16557,1.7401,2.54,0.7999,0.1062,1.0483,0.9421,A,0.275
299,0.49672,0.1,1,0.27319,0.33114,0.87753,299,2.60775,0.26,0.13246,0.62917,5,2D1U,1.0,True,0.25,37,True,left,-0.08279,0.1396,1.0476,0.908,1.84,2.5311,0.6911,A,0.275
300,0.49672,1.2,2,0.41393,0.32287,0.54639,300,2.169,-0.22,-0.10762,0.38909,5,1D2U,1.0,True,0.292,30,True,left,0.16557,1.5563,2.0904,0.5341,0.1978,1.14,0.9422,A,0.27
301,0.49672,1.2,2,0.22352,0.3477,0.74507,301,2.44218,0.26,0.13246,0.62917,5,2D1U,2.0,True,0.584,37,True,right,-0.08279,1.4388,2.2143,0.7755,0.1306,0.8219,0.6913,A,0.27
302,0.49672,0.1,2,0.24008,0.30631,0.62089,302,2.27662,0.22,0.10762,0.61262,5,2D1U,2.0,True,0.242,37,False,right,0.16557,1.4572,2.2154,0.7583,0.0234,0.9659,0.9425,A,0.275
303,0.49672,0.1,1,0.31459,0.43877,0.45532,303,2.11933,-0.18,-0.09106,0.41393,5,1D2U,1.0,False,0.112,30,False,left,-0.08279,0.1853,0.8776,0.6923,1.2437,1.9356,0.6918,A,0.275
304,0.49672,1.2,2,0.32287,0.43049,0.63745,304,2.27662,-0.22,-0.10762,0.38909,5,1D2U,2.0,False,0.342,31,True,right,0.16557,1.5611,2.0947,0.5336,0.111,1.0525,0.9416,A,0.27
305,0.49672,1.2,1,0.41393,0.2318,0.52983,305,2.2849,0.22,0.10762,0.61262,5,2D1U,1.0,True,0.272,37,False,left,-0.08279,0.2786,1.1705,0.8919,1.6122,999,997.3878,A,0.27
306,0.49672,0.1,1,0.32287,0.30631,0.56294,306,2.06138,-0.26,-0.13246,0.37254,5,1D2U,2.0,True,0.499,31,False,right,0.16557,0.1901,0.8407,0.6506,1.1907,999,997.8093,A,0.275
307,0.49672,0.1,2,0.24836,0.31459,0.8113,307,2.45875,0.18,0.09106,0.58778,5,2D1U,1.0,False,0.376,37,False,left,-0.08279,1.5306,2.2632,0.7325,0.1569,0.847,0.69,A,0.275
308,0.49672,1.2,1,0.25664,0.22352,0.86097,308,2.21039,-0.26,-0.13246,0.37254,5,1D2U,2.0,True,0.325,31,False,right,0.16557,0.128,0.7775,0.6495,1.427,999,997.573,A,0.27
309,0.49672,1.2,1,0.28975,0.3477,0.40565,309,2.15244,0.22,0.10762,0.61262,5,2D1U,1.0,True,0.334,38,True,left,-0.08279,0.1612,1.0523,0.8911,1.3692,2.0601,0.691,A,0.27
310,0.49672,0.1,2,0.33942,0.22352,0.87753,310,2.32628,-0.22,-0.10762,0.38909,5,1D2U,1.0,True,0.493,32,True,left,0.16557,1.813,999,997.187,0.1207,1.0633,0.9427,A,0.275
311,0.49672,0.1,2,0.33114,0.28147,0.67884,311,2.40079,0.22,0.10762,0.61262,5,2D1U,2.0,True,0.358,38,True,right,-0.08279,1.4844,2.2428,0.7584,0.2429,0.9345,0.6916,A,0.275
312,0.49672,1.2,1,0.38909,0.33114,0.55467,312,2.3594,0.18,0.09106,0.58778,5,2D1U,1.0,True,0.317,39,True,left,0.16557,0.2576,1.124,0.8664,1.4652,999,997.5348,A,0.27
313,0.49672,1.2,2,0.24008,0.20696,0.88581,313,2.21866,-0.22,-0.10762,0.38909,5,1D2U,2.0,False,0.392,32,True,right,-0.08279,1.6015,2.1352,0.5338,0.1521,0.8429,0.6908,A,0.27
314,0.49672,0.1,2,0.26491,0.30631,0.77819,314,2.21867,-0.26,-0.13246,0.37254,5,1D2U,1.0,True,0.509,33,True,left,0.16557,1.6381,2.1551,0.517,0.0467,0.9883,0.9416,A,0.275
315,0.49672,0.1,2,0.25664,0.38909,0.68712,315,2.20211,-0.26,-0.13246,0.37254,5,1D2U,1.0,True,0.334,33,True,left,-0.08279,1.418,1.9346,0.5166,0.1682,0.8599,0.6916,A,0.275
316,0.49672,1.2,1,0.42221,0.42221,0.72024,316,2.64916,0.18,0.09106,0.58778,5,2D1U,2.0,False,0.292,39,True,right,0.16557,0.2893,1.1559,0.8665,1.6643,2.6059,0.9416,A,0.27
317,0.49672,1.2,1,0.38909,0.37254,0.82786,317,2.69883,0.22,0.10762,0.61262,5,2D1U,1.0,True,0.192,40,True,left,-0.08279,0.2597,1.1511,0.8914,1.8931,2.5839,0.6908,A,0.27
318,0.49672,0.1,2,0.43877,0.26491,0.67884,318,2.26833,-0.22,-0.10762,0.38909,5,1D2U,1.0,True,0.326,34,True,left,0.16557,1.7138,2.2475,0.5337,0.2225,1.1644,0.9418,A,0.275
319,0.49672,0.1,1,0.2318,0.37254,0.4636,319,2.17728,0.22,0.10762,0.61262,5,2D1U,1.0,True,0.234,40,True,left,-0.08279,0.0972,0.9892,0.892,1.3647,2.0561,0.6914,A,0.275
320,0.49672,1.2,2,0.21524,0.2318,0.86097,320,2.39251,0.18,0.09106,0.58778,5,2D1U,1.0,False,0.692,41,True,left,0.16557,1.6749,2.4131,0.7382,0.0014,0.9414,0.9399,A,0.27
321,0.49672,1.2,2,0.40565,0.24836,0.45532,321,1.99514,-0.22,-0.10762,0.38909,5,1D2U,1.0,True,0.472,34,True,left,-0.08279,1.3292,1.8619,0.5326,0.3128,1.0042,0.6914,A,0.27
322,0.49672,0.1,2,0.36426,0.3477,0.43877,322,2.26007,0.22,0.10762,0.61262,5,2D1U,2.0,True,0.208,42,True,right,0.16557,1.3992,2.1579,0.7587,0.1501,1.0915,0.9414,A,0.275
323,0.49672,0.1,2,0.32287,0.2318,0.71196,323,2.17728,-0.18,-0.09106,0.41393,5,1D2U,1.0,True,0.285,34,False,left,-0.08279,1.5059,2.0644,0.5584,0.2311,0.9226,0.6915,A,0.275
324,0.49672,1.2,2,0.38082,0.31459,0.5795,324,2.38425,0.22,0.10762,0.61262,5,2D1U,2.0,True,0.283,42,True,right,0.16557,1.5545,2.3137,0.7592,0.1636,1.1046,0.941,A,0.27
325,0.49672,1.2,1,0.38909,0.35598,0.76163,325,2.41735,-0.18,-0.09106,0.41393,5,1D2U,2.0,True,0.408,34,False,right,-0.08279,0.2581,0.9497,0.6917,1.6241,2.3156,0.6915,A,0.27
326,0.49672,0.1,1,0.33942,0.28147,0.81958,326,2.52497,0.18,0.09106,0.58778,5,2D1U,1.0,True,0.306,43,True,left,0.16557,0.2049,1.0721,0.8672,1.6807,999,997.3193,A,0.275
327,0.49672,0.1,1,0.43877,0.36426,0.6954,327,2.58293,0.18,0.09106,0.58778,5,2D1U,1.0,True,0.292,43,True,left,-0.08279,0.306,1.1725,0.8665,1.7816,2.4726,0.691,A,0.275
328,0.49672,1.2,1,0.22352,0.27319,0.70368,328,2.1276,-0.14,-0.06623,0.43049,5,1D2U,2.0,True,0.333,34,False,right,0.16557,0.0903,0.7984,0.708,1.29,999,997.71,A,0.27
329,0.49672,1.2,1,0.33942,0.39737,0.8113,329,2.4753,-0.14,-0.06623,0.43049,5,1D2U,2.0,True,0.45,34,False,right,-0.08279,0.2051,0.9132,0.7082,1.6382,2.33,0.6918,A,0.27
330,0.49672,0.1,2,0.38082,0.29803,0.57122,330,2.31801,0.14,0.06623,0.57122,5,2D1U,2.0,True,0.352,43,False,right,0.16557,1.5478,2.2647,0.7169,0.1648,1.1063,0.9415,A,0.275
331,0.49672,0.1,1,0.19869,0.25664,0.41393,331,1.81302,-0.1,-0.04967,0.44704,5,1D2U,1.0,False,0.317,34,False,left,-0.08279,0.0646,0.7898,0.7252,1.1142,1.8064,0.6923,A,0.275
332,0.49672,1.2,1,0.28147,0.3477,0.64573,332,2.20211,-0.14,-0.06623,0.43049,5,1D2U,2.0,True,0.242,35,True,right,0.16557,0.1453,0.8542,0.7089,1.2875,999,997.7125,A,0.27
333,0.49672,1.2,1,0.29803,0.3477,0.45532,333,2.16899,0.14,0.06623,0.57122,5,2D1U,2.0,False,0.25,43,False,right,-0.08279,0.1686,1.0188,0.8502,1.3848,2.077,0.6922,A,0.27
334,0.49672,0.1,1,0.27319,0.35598,0.63745,334,2.35112,0.18,0.09106,0.58778,5,2D1U,1.0,True,0.309,44,True,left,0.16557,0.1417,1.0078,0.8661,1.4332,999,997.5668,A,0.275
335,0.49672,0.1,2,0.29803,0.28147,0.48016,335,2.14416,0.18,0.09106,0.58778,5,2D1U,2.0,True,0.21,44,True,right,-0.08279,1.2482,1.9811,0.7328,0.2068,0.898,0.6912,A,0.275
336,0.49672,1.2,1,0.37254,0.38909,0.42221,336,2.11105,-0.14,-0.06623,0.43049,5,1D2U,2.0,True,0.242,35,True,right,0.16557,0.2414,0.9488,0.7074,1.1573,2.0994,0.9421,A,0.27
337,0.49672,1.2,2,0.41393,0.38909,0.67057,337,2.41735,-0.1,-0.04967,0.44704,5,1D2U,1.0,True,0.392,36,True,left,-0.08279,1.5597,2.1521,0.5924,0.3273,1.0185,0.6912,A,0.27
338,0.49672,0.1,1,0.38909,0.28975,0.65401,338,2.27661,-0.1,-0.04967,0.44704,5,1D2U,1.0,False,0.266,36,True,left,0.16557,0.2551,0.9802,0.7251,1.4209,999,997.5791,A,0.275
339,0.49672,0.1,1,0.20696,0.44704,0.43877,339,2.01998,-0.14,-0.06623,0.43049,5,1D2U,2.0,True,0.209,37,True,right,-0.08279,0.0746,0.7824,0.7078,1.1327,1.8239,0.6912,A,0.275
340,0.49672,1.2,1,0.29803,0.24836,0.65401,340,2.26834,0.14,0.06623,0.57122,5,2D1U,2.0,False,0.3,45,True,right,0.16557,0.1645,1.0145,0.85,1.4565,999,997.5435,A,0.27
341,0.49672,1.2,2,0.40565,0.22352,0.58778,341,2.14416,-0.14,-0.06623,0.43049,5,1D2U,1.0,True,0.542,37,True,left,-0.08279,1.4696,2.0447,0.5751,0.3186,1.0117,0.6932,A,0.27
342,0.49672,0.1,2,0.31459,0.40565,0.75335,342,2.41735,-0.1,-0.04967,0.44704,5,1D2U,1.0,True,0.275,38,True,left,0.16557,1.662,2.2542,0.5922,0.096,1.0373,0.9413,A,0.275
343,0.49672,0.1,1,0.40565,0.40565,0.52155,343,2.41735,0.18,0.09106,0.58778,5,2D1U,1.0,True,0.283,46,True,left,-0.08279,0.2726,1.1394,0.8668,1.5733,2.2649,0.6915,A,0.275
344,0.49672,1.2,1,0.39737,0.35598,0.57122,344,2.26833,-0.1,-0.04967,0.44704,5,1D2U,2.0,True,0.425,38,True,right,0.16557,0.2656,0.9901,0.7245,1.3485,999,997.6515,A,0.27
345,0.49672,1.2,2,0.41393,0.43877,0.52983,345,2.46703,0.18,0.09106,0.58778,5,2D1U,2.0,True,0.258,46,True,right,-0.08279,1.4152,2.1484,0.7333,0.3236,1.0148,0.6912,A,0.27
346,0.49672,0.1,1,0.39737,0.29803,0.59606,346,2.3594,0.14,0.06623,0.57122,5,2D1U,2.0,False,0.4,47,True,right,0.16557,0.2644,1.1143,0.8499,1.4984,999,997.5016,A,0.275
347,0.49672,0.1,2,0.38909,0.38082,0.57122,347,2.30973,-0.06,-0.03311,0.47188,5,1D2U,2.0,False,0.383,38,False,right,-0.08279,1.436,2.053,0.6171,0.3027,0.9943,0.6917,A,0.275
348,0.49672,1.2,2,0.38909,0.40565,0.5795,348,2.45874,0.18,0.09106,0.58778,5,2D1U,1.0,False,0.259,48,True,left,0.16557,1.5677,2.3015,0.7338,0.1753,1.1178,0.9425,A,0.27
349,0.49672,1.2,2,0.2318,0.20696,0.75335,349,2.13587,-0.1,-0.04967,0.44704,5,1D2U,1.0,True,0.376,39,True,left,-0.08279,1.4603,2.052,0.5917,0.1444,0.8359,0.6916,A,0.27
350,0.49672,0.1,1,0.28147,0.37254,0.72852,350,2.49187,0.22,0.10762,0.61262,5,2D1U,2.0,False,0.376,48,False,right,0.16557,0.1476,1.0399,0.8923,1.556,2.4981,0.9421,A,0.275
351,0.49672,0.1,2,0.39737,0.44704,0.49672,351,2.46702,0.26,0.13246,0.62917,5,2D1U,2.0,True,0.334,48,False,right,-0.08279,1.3692,2.1446,0.7754,0.3117,1.003,0.6913,A,0.275
352,0.49672,1.2,1,0.37254,0.43877,0.49672,352,2.25179,-0.1,-0.04967,0.44704,5,1D2U,1.0,False,0.568,39,True,left,0.16557,0.2386,0.9643,0.7257,1.248,2.1894,0.9415,A,0.27
353,0.49672,1.2,1,0.39737,0.2318,0.6954,353,2.45046,0.26,0.13246,0.62917,5,2D1U,1.0,True,0.3,48,False,left,-0.08279,0.2668,1.1754,0.9087,1.7837,999,997.2163,A,0.27
354,0.49672,0.1,1,0.28147,0.2318,0.52983,354,1.97031,-0.14,-0.06623,0.43049,5,1D2U,2.0,True,0.282,39,False,right,0.16557,0.1482,0.8559,0.7077,1.1727,999,997.8273,A,0.275
355,0.49672,0.1,2,0.3477,0.37254,0.43877,355,2.26835,0.22,0.10762,0.61262,5,2D1U,1.0,False,0.285,49,True,left,-0.08279,1.2537,2.012,0.7582,0.2538,0.9455,0.6917,A,0.275
356,0.49672,1.2,2,0.44704,0.37254,0.40565,356,2.15244,-0.14,-0.06623,0.43049,5,1D2U,2.0,False,1.126,39,False,right,0.16557,1.4484,2.0235,0.5751,0.2313,1.1739,0.9426,A,0.27
357,0.49672,1.2,1,0.31459,0.3477,0.74507,357,2.53325,0.26,0.13246,0.62917,5,2D1U,1.0,True,0.601,50,True,left,-0.08279,0.182,1.0904,0.9084,1.7483,2.4401,0.6919,A,0.27
358,0.49672,0.1,1,0.40565,0.41393,0.62089,358,2.35112,-0.18,-0.09106,0.41393,5,1D2U,2.0,True,0.284,39,False,right,0.16557,0.2724,0.9647,0.6923,1.3717,2.3141,0.9424,A,0.275
359,0.49672,0.1,2,0.29803,0.26491,0.83614,359,2.52497,0.26,0.13246,0.62917,5,2D1U,1.0,False,0.434,50,True,left,-0.08279,1.6051,2.3799,0.7747,0.2049,0.8964,0.6915,A,0.275
360,0.49672,1.2,1,0.27319,0.24836,0.40565,360,1.83785,-0.18,-0.09106,0.41393,5,1D2U,1.0,False,0.516,39,False,left,0.16557,0.1426,0.8339,0.6913,1.0254,999,997.9746,A,0.27
361,0.49672,1.2,1,0.20696,0.30631,0.73679,361,2.40079,0.3,0.14901,0.65401,5,2D1U,2.0,False,0.575,50,False,right,-0.08279,0.074,1.0073,0.9333,1.6573,2.3496,0.6924,A,0.27
362,0.49672,0.1,2,0.31459,0.21524,0.79474,362,2.49186,0.34,0.17385,0.67057,5,2D1U,2.0,True,0.334,50,False,right,0.16557,1.7051,999,997.2949,0.0963,1.0384,0.9421,A,0.275
363,0.49672,0.1,1,0.35598,0.33942,0.47188,363,2.05309,-0.22,-0.10762,0.38909,5,1D2U,1.0,False,0.29,39,False,left,-0.08279,0.2209,0.8887,0.6678,1.2714,1.9631,0.6916,A,0.275
364,0.49672,1.2,1,0.38082,0.30631,0.74507,364,2.30146,-0.26,-0.13246,0.37254,5,1D2U,2.0,True,0.416,39,False,right,0.16557,0.2519,0.9026,0.6507,1.4371,999,997.5629,A,0.27
365,0.49672,1.2,2,0.43049,0.35598,0.76991,365,2.42564,-0.26,-0.13246,0.37254,5,1D2U,2.0,False,0.374,39,False,right,-0.08279,1.6748,2.1916,0.5168,0.3416,1.0334,0.6918,A,0.27
366,0.49672,0.1,1,0.38082,0.30631,0.5795,366,2.11105,-0.3,-0.14901,0.3477,5,1D2U,2.0,True,0.298,39,False,right,0.16557,0.2467,0.8718,0.6251,1.2392,999,997.7608,A,0.275
367,0.49672,0.1,1,0.25664,0.22352,0.70368,367,2.35113,0.34,0.17385,0.67057,5,2D1U,1.0,True,0.372,50,False,left,-0.08279,0.1197,1.0699,0.9502,1.6866,999,997.3134,A,0.275
368,0.49672,1.2,1,0.27319,0.21524,0.61262,368,2.25178,0.3,0.14901,0.65401,5,2D1U,2.0,False,0.342,51,True,right,0.16557,0.143,1.0768,0.9338,1.4763,999,997.5237,A,0.27
369,0.49672,1.2,2,0.30631,0.40565,0.85269,369,2.40907,-0.3,-0.14901,0.3477,5,1D2U,1.0,True,0.301,39,False,left,-0.08279,1.6293,2.1205,0.4912,0.2137,0.9044,0.6907,A,0.27
370,0.49672,0.1,2,0.2318,0.40565,0.82786,370,2.33457,-0.26,-0.13246,0.37254,5,1D2U,1.0,True,0.292,40,True,left,0.16557,1.6591,2.1765,0.5174,0.0184,0.9601,0.9416,A,0.275
371,0.49672,0.1,1,0.39737,0.3477,0.8113,371,2.72366,0.34,0.17385,0.67057,5,2D1U,1.0,True,0.251,52,True,left,-0.08279,0.2681,1.2175,0.9494,1.9432,2.6343,0.6912,A,0.275
372,0.49672,1.2,2,0.31459,0.44704,0.44704,372,2.37596,0.34,0.17385,0.67057,5,2D1U,2.0,True,0.572,52,True,right,0.16557,1.3535,2.1708,0.8173,0.0955,1.0376,0.9421,A,0.27
373,0.49672,1.2,2,0.24008,0.28975,0.4636,373,1.86269,-0.26,-0.13246,0.37254,5,1D2U,1.0,True,0.4,40,True,left,-0.08279,1.1737,1.6899,0.5162,0.1493,0.8397,0.6904,A,0.27
374,0.49672,0.1,1,0.37254,0.43049,0.6954,374,2.38424,-0.22,-0.10762,0.38909,5,1D2U,2.0,True,0.358,40,False,right,0.16557,0.2446,0.9104,0.6658,1.3944,2.3353,0.941,A,0.275
375,0.49672,0.1,1,0.30631,0.39737,0.66229,375,2.25178,-0.22,-0.10762,0.38909,5,1D2U,2.0,True,0.263,40,False,right,-0.08279,0.1706,0.837,0.6665,1.4118,2.1033,0.6915,A,0.275
376,0.49672,1.2,2,0.42221,0.28147,0.44704,376,2.30145,0.3,0.14901,0.65401,5,2D1U,2.0,True,0.309,53,True,right,0.16557,1.4676,2.2685,0.8008,0.2092,1.1506,0.9414,A,0.27
377,0.49672,1.2,1,0.33114,0.44704,0.68712,377,2.37595,-0.18,-0.09106,0.41393,5,1D2U,2.0,True,0.167,40,False,right,-0.08279,0.2002,0.8917,0.6916,1.4917,2.1835,0.6918,A,0.27
378,0.49672,0.1,1,0.35598,0.24836,0.83614,378,2.59121,0.3,0.14901,0.65401,5,2D1U,1.0,True,0.318,53,True,left,0.16557,0.2271,1.1596,0.9325,1.785,999,997.215,A,0.275
379,0.49672,0.1,1,0.41393,0.38909,0.59606,379,2.30973,-0.18,-0.09106,0.41393,5,1D2U,2.0,True,0.208,40,False,right,-0.08279,0.2815,0.9736,0.6921,1.4815,2.1728,0.6913,A,0.275
380,0.49672,1.2,2,0.30631,0.21524,0.66229,380,2.11105,-0.14,-0.06623,0.43049,5,1D2U,1.0,True,0.372,40,False,left,0.16557,1.5649,999,997.4351,0.0905,1.032,0.9415,A,0.27
381,0.49672,1.2,2,0.20696,0.35598,0.64573,381,2.33456,0.26,0.13246,0.62917,5,2D1U,2.0,True,0.134,53,False,right,-0.08279,1.3229,2.098,0.7751,0.115,0.8066,0.6916,A,0.27
382,0.49672,0.1,1,0.26491,0.39737,0.57122,382,2.16071,-0.14,-0.06623,0.43049,5,1D2U,2.0,True,0.334,40,False,right,0.16557,0.1292,0.8381,0.7089,1.1965,2.1382,0.9416,A,0.275
383,0.49672,0.1,2,0.28147,0.28147,0.49672,383,2.18555,0.26,0.13246,0.62917,5,2D1U,2.0,True,0.383,53,False,right,-0.08279,1.2472,2.0224,0.7752,0.1884,0.8806,0.6922,A,0.275
384,0.49672,1.2,1,0.33114,0.32287,0.86925,384,2.6326,0.22,0.10762,0.61262,5,2D1U,1.0,True,0.275,53,False,left,0.16557,0.1959,1.087,0.8911,1.7459,999,997.2541,A,0.27
385,0.49672,1.2,2,0.3477,0.33942,0.63745,385,2.26833,-0.1,-0.04967,0.44704,5,1D2U,2.0,False,0.45,40,False,right,-0.08279,1.4596,2.0519,0.5923,0.2587,0.9515,0.6929,A,0.27
386,0.49672,0.1,1,0.40565,0.29803,0.8113,386,2.62432,0.22,0.10762,0.61262,5,2D1U,1.0,True,0.374,53,False,left,0.16557,0.2743,1.1662,0.8919,1.766,999,997.234,A,0.275
387,0.49672,0.1,1,0.38082,0.20696,0.60434,387,2.11933,-0.14,-0.06623,0.43049,5,1D2U,1.0,False,0.617,41,True,left,-0.08279,0.252,0.9609,0.7088,1.4774,999,997.5226,A,0.275
388,0.49672,1.2,2,0.22352,0.27319,0.82786,388,2.40907,0.18,0.09106,0.58778,5,2D1U,2.0,True,0.235,53,False,right,0.16557,1.6465,2.3802,0.7337,0.0059,0.947,0.941,A,0.27
389,0.49672,1.2,2,0.37254,0.43877,0.63745,389,2.35941,-0.18,-0.09106,0.41393,5,1D2U,1.0,True,0.292,41,False,left,-0.08279,1.4842,2.0422,0.558,0.2849,0.976,0.691,A,0.27
390,0.49672,0.1,2,0.25664,0.26491,0.86097,390,2.46702,0.18,0.09106,0.58778,5,2D1U,2.0,True,1.1,53,False,right,0.16557,1.7106,2.4443,0.7337,0.0362,0.9777,0.9415,A,0.275
391,0.49672,0.1,2,0.28975,0.35598,0.55467,391,2.26834,0.14,0.06623,0.57122,5,2D1U,2.0,True,0.267,53,False,right,-0.08279,1.3189,2.0354,0.7166,0.2024,0.8939,0.6915,A,0.275
392,0.49672,1.2,1,0.30631,0.40565,0.81958,392,2.59948,0.14,0.06623,0.57122,5,2D1U,2.0,False,0.409,53,False,right,0.16557,0.1732,1.0234,0.8502,1.6317,2.5735,0.9417,A,0.27
393,0.49672,1.2,2,0.38082,0.24836,0.80302,393,2.5167,0.18,0.09106,0.58778,5,2D1U,1.0,False,0.258,54,True,left,-0.08279,1.66,2.3933,0.7333,0.293,0.985,0.692,A,0.27
394,0.49672,0.1,2,0.20696,0.36426,0.89409,394,2.37596,-0.18,-0.09106,0.41393,5,1D2U,1.0,True,0.383,41,False,left,0.16557,1.6972,2.2555,0.5583,999,0.9305,-998.0695,A,0.275
395,0.49672,0.1,2,0.28147,0.44704,0.41393,395,2.25178,0.22,0.10762,0.61262,5,2D1U,2.0,True,0.111,54,False,right,-0.08279,1.1621,1.9208,0.7587,0.1874,0.8789,0.6915,A,0.275
396,0.49672,1.2,1,0.19869,0.33942,0.86097,396,2.32629,-0.14,-0.06623,0.43049,5,1D2U,1.0,False,0.342,42,True,left,0.16557,0.0673,0.7758,0.7085,1.4256,999,997.5744,A,0.27
397,0.49672,1.2,1,0.35598,0.37254,0.66229,397,2.50015,0.22,0.10762,0.61262,5,2D1U,2.0,False,0.342,54,False,right,-0.08279,0.2226,1.1145,0.8918,1.6896,2.3806,0.691,A,0.27
398,0.49672,0.1,2,0.20696,0.38909,0.41393,398,1.92063,-0.18,-0.09106,0.41393,5,1D2U,1.0,True,0.36,43,True,left,0.16557,1.2195,1.7773,0.5578,999,0.9356,-998.0644,A,0.275
399,0.49672,0.1,1,0.24008,0.28147,0.49672,399,2.14416,0.26,0.13246,0.62917,5,2D1U,1.0,True,0.323,54,False,left,-0.08279,0.1062,1.0143,0.9081,1.423,2.1144,0.6915,A,0.275
400,0.49672,1.2,2,0.39737,0.41393,0.80302,400,2.74021,0.26,0.13246,0.62917,5,2D1U,2.0,True,0.225,54,False,right,0.16557,1.7972,2.5722,0.775,0.1812,1.1222,0.941,A,0.27
401,0.49672,1.2,2,0.24008,0.32287,0.4636,401,1.9372,-0.18,-0.09106,0.41393,5,1D2U,1.0,True,0.351,43,True,left,-0.08279,1.1764,1.7349,0.5585,0.1522,0.8439,0.6917,A,0.27
402,0.49672,0.1,1,0.39737,0.38082,0.8113,402,2.69883,0.22,0.10762,0.61262,5,2D1U,1.0,True,0.275,55,True,left,0.16557,0.2649,1.1567,0.8919,1.7573,2.6987,0.9414,A,0.275
403,0.49672,0.1,2,0.19869,0.33114,0.56294,403,2.01998,-0.14,-0.06623,0.43049,5,1D2U,1.0,True,0.352,44,True,left,-0.08279,1.2315,1.8072,0.5757,0.107,0.7988,0.6917,A,0.275
404,0.49672,1.2,2,0.28975,0.33114,0.57122,404,2.11932,-0.14,-0.06623,0.43049,5,1D2U,2.0,False,0.334,44,True,right,0.16557,1.4549,2.0297,0.5749,0.0707,1.0128,0.942,A,0.27
405,0.49672,1.2,1,0.21524,0.31459,0.4636,405,2.10277,0.22,0.10762,0.61262,5,2D1U,2.0,False,0.367,55,True,right,-0.08279,0.0816,0.9731,0.8916,1.3483,2.0396,0.6913,A,0.27
406,0.49672,0.1,1,0.42221,0.3477,0.50499,406,2.18555,-0.18,-0.09106,0.41393,5,1D2U,2.0,True,0.475,45,True,right,0.16557,0.2952,0.986,0.6908,1.2784,999,997.7216,A,0.275
407,0.49672,0.1,1,0.28975,0.41393,0.59606,407,2.21039,-0.18,-0.09106,0.41393,5,1D2U,1.0,False,0.276,45,True,left,-0.08279,0.1557,0.8477,0.692,1.3562,2.0483,0.6921,A,0.275
408,0.49672,1.2,2,0.35598,0.38082,0.58778,408,2.45047,0.26,0.13246,0.62917,5,2D1U,2.0,True,0.226,56,True,right,0.16557,1.5395,2.3146,0.7752,0.1394,1.0809,0.9415,A,0.27
409,0.49672,1.2,2,0.44704,0.43049,0.70368,409,2.7071,0.26,0.13246,0.62917,5,2D1U,2.0,True,0.375,56,True,right,-0.08279,1.6246,2.3993,0.7747,0.3582,1.0496,0.6913,A,0.27
410,0.49672,0.1,1,0.25664,0.24008,0.56294,410,1.94547,-0.22,-0.10762,0.38909,5,1D2U,2.0,True,0.416,45,False,right,0.16557,0.123,0.7889,0.6659,1.1396,999,997.8604,A,0.275
411,0.49672,0.1,2,0.39737,0.37254,0.70368,411,2.3594,-0.22,-0.10762,0.38909,5,1D2U,1.0,True,0.333,45,False,left,-0.08279,1.5724,2.106,0.5336,0.3055,0.997,0.6914,A,0.275
412,0.49672,1.2,1,0.21524,0.43877,0.82786,412,2.59121,0.22,0.10762,0.61262,5,2D1U,1.0,True,0.276,57,True,left,0.16557,0.0856,0.9772,0.8916,1.5945,2.5358,0.9413,A,0.27
413,0.49672,1.2,1,0.25664,0.21524,0.86925,413,2.45047,0.22,0.10762,0.61262,5,2D1U,1.0,True,0.734,57,True,left,-0.08279,0.1256,1.017,0.8914,1.8012,999,997.1988,A,0.27
414,0.49672,0.1,2,0.25664,0.25664,0.56294,414,2.16072,0.18,0.09106,0.58778,5,2D1U,1.0,False,0.907,57,False,left,0.16557,1.4153,2.1491,0.7338,0.0406,0.9825,0.9419,A,0.275
415,0.49672,0.1,2,0.22352,0.30631,0.90237,415,2.34285,-0.18,-0.09106,0.41393,5,1D2U,2.0,False,0.392,46,True,right,-0.08279,1.6026,2.1613,0.5587,0.1356,0.8279,0.6923,A,0.275
416,0.49672,1.2,1,0.2318,0.29803,0.72024,416,2.35941,0.22,0.10762,0.61262,5,2D1U,2.0,False,0.333,58,True,right,0.16557,0.0999,0.9915,0.8916,1.4994,999,997.5006,A,0.27
417,0.49672,1.2,1,0.2318,0.38909,0.85269,417,2.35939,-0.22,-0.10762,0.38909,5,1D2U,1.0,False,0.341,47,True,left,-0.08279,0.0984,0.7649,0.6664,1.5321,2.2233,0.6912,A,0.27
418,0.49672,0.1,1,0.33942,0.24008,0.79474,418,2.2435,-0.26,-0.13246,0.37254,5,1D2U,2.0,True,0.475,47,False,right,0.16557,0.209,0.859,0.65,1.4418,999,997.5582,A,0.275
419,0.49672,0.1,2,0.3477,0.31459,0.8113,419,2.59948,0.26,0.13246,0.62917,5,2D1U,2.0,True,0.426,58,False,right,-0.08279,1.6309,2.4063,0.7753,0.2563,0.948,0.6917,A,0.275
420,0.49672,1.2,2,0.3477,0.41393,0.76163,420,2.39252,-0.26,-0.13246,0.37254,5,1D2U,1.0,True,0.442,47,False,left,0.16557,1.709,2.2256,0.5166,0.1349,1.0765,0.9416,A,0.27
421,0.49672,1.2,1,0.41393,0.39737,0.54639,421,2.2435,-0.22,-0.10762,0.38909,5,1D2U,2.0,True,0.234,48,True,right,-0.08279,0.2796,0.9469,0.6673,1.4056,2.0967,0.6911,A,0.27
422,0.49672,0.1,1,0.37254,0.25664,0.78647,422,2.54154,0.26,0.13246,0.62917,5,2D1U,1.0,True,0.351,58,False,left,0.16557,0.2407,1.1489,0.9082,1.7234,999,997.2766,A,0.275
423,0.49672,0.1,1,0.22352,0.30631,0.45532,423,1.87096,-0.22,-0.10762,0.38909,5,1D2U,2.0,True,0.492,48,True,right,-0.08279,0.0951,0.7622,0.6671,1.1289,1.8203,0.6914,A,0.275
424,0.49672,1.2,2,0.28975,0.38909,0.51327,424,2.10276,-0.18,-0.09106,0.41393,5,1D2U,2.0,False,0.291,48,False,right,0.16557,1.3997,1.9581,0.5583,0.0746,1.0161,0.9414,A,0.27
425,0.49672,1.2,1,0.26491,0.20696,0.44704,425,2.02825,0.22,0.10762,0.61262,5,2D1U,1.0,True,0.496,59,True,left,-0.08279,0.1291,1.02,0.8909,1.3781,999,997.6219,A,0.27
426,0.49672,0.1,1,0.35598,0.43877,0.51327,426,2.19383,-0.22,-0.10762,0.38909,5,1D2U,2.0,True,0.192,49,True,right,0.16557,0.2247,0.8923,0.6676,1.1923,2.1339,0.9416,A,0.275
427,0.49672,0.1,1,0.35598,0.31459,0.88581,427,2.66572,0.22,0.10762,0.61262,5,2D1U,1.0,True,0.218,59,True,left,-0.08279,0.2226,1.1147,0.8921,1.9142,2.6059,0.6916,A,0.275
428,0.49672,1.2,2,0.26491,0.22352,0.72024,428,2.29317,0.18,0.09106,0.58778,5,2D1U,2.0,True,0.34,59,False,right,0.16557,1.574,2.307,0.733,0.0499,0.9904,0.9405,A,0.27
429,0.49672,1.2,1,0.26491,0.21524,0.85269,429,2.21865,-0.22,-0.10762,0.38909,5,1D2U,1.0,False,0.276,49,True,left,-0.08279,0.1293,0.7966,0.6673,1.5634,999,997.4366,A,0.27
430,0.49672,0.1,1,0.29803,0.44704,0.76163,430,2.5912,0.18,0.09106,0.58778,5,2D1U,2.0,False,0.467,59,False,right,0.16557,0.1626,1.0285,0.866,1.5786,2.52,0.9414,A,0.275
431,0.49672,0.1,2,0.40565,0.26491,0.72852,431,2.26834,-0.26,-0.13246,0.37254,5,1D2U,1.0,True,0.309,49,False,left,-0.08279,1.6065,2.1235,0.517,0.3156,1.007,0.6914,A,0.275
432,0.49672,1.2,1,0.44704,0.37254,0.72852,432,2.41736,-0.26,-0.13246,0.37254,5,1D2U,2.0,True,0.284,49,False,right,0.16557,0.3185,0.9693,0.6508,1.4853,2.4342,0.9489,A,0.27
433,0.49672,1.2,2,0.24836,0.29803,0.83614,433,2.49187,0.22,0.10762,0.61262,5,2D1U,2.0,True,0.325,60,True,right,-0.08279,1.5601,2.3188,0.7587,0.1598,0.8514,0.6916,A,0.27
434,0.49672,0.1,1,0.41393,0.25664,0.85269,434,2.40907,-0.22,-0.10762,0.38909,5,1D2U,2.0,True,0.325,50,True,right,0.16557,0.2837,0.951,0.6673,1.593,999,997.407,A,0.275
435,0.49672,0.1,2,0.3477,0.24008,0.54639,435,2.24351,0.22,0.10762,0.61262,5,2D1U,2.0,True,0.4,60,True,right,-0.08279,1.3643,2.1226,0.7584,0.2552,0.9469,0.6916,A,0.275
436,0.49672,1.2,1,0.33942,0.20696,0.81958,436,2.25177,-0.22,-0.10762,0.38909,5,1D2U,2.0,True,0.417,50,True,right,0.16557,0.2054,0.8718,0.6664,1.4802,999,997.5198,A,0.27
437,0.49672,1.2,1,0.42221,0.21524,0.68712,437,2.40907,0.18,0.09106,0.58778,5,2D1U,2.0,False,0.518,61,True,right,-0.08279,0.29,1.1576,0.8676,1.7571,999,997.2429,A,0.27
438,0.49672,0.1,2,0.24008,0.28147,0.70368,438,2.33457,0.22,0.10762,0.61262,5,2D1U,2.0,True,0.4,62,True,right,0.16557,1.5392,2.2979,0.7586,0.0222,0.9647,0.9425,A,0.275
439,0.49672,0.1,2,0.3477,0.24008,0.78647,439,2.2849,-0.18,-0.09106,0.41393,5,1D2U,1.0,True,0.376,50,False,left,-0.08279,1.6083,2.1671,0.5588,0.2577,0.9502,0.6926,A,0.275
440,0.49672,1.2,1,0.32287,0.26491,0.4636,440,2.16072,0.22,0.10762,0.61262,5,2D1U,2.0,False,0.616,62,True,right,0.16557,0.1935,1.0849,0.8914,1.3347,999,997.6653,A,0.27
441,0.49672,1.2,2,0.31459,0.38082,0.62089,441,2.22695,-0.18,-0.09106,0.41393,5,1D2U,2.0,False,0.509,50,False,right,-0.08279,1.409,1.9673,0.5584,0.2244,0.917,0.6927,A,0.27
442,0.49672,0.1,1,0.29803,0.22352,0.74507,442,2.39251,0.26,0.13246,0.62917,5,2D1U,1.0,True,0.384,62,False,left,0.16557,0.1691,1.0767,0.9076,1.6109,999,997.3891,A,0.275
443,0.49672,0.1,1,0.3477,0.28975,0.43877,443,1.96203,-0.22,-0.10762,0.38909,5,1D2U,2.0,True,0.264,51,True,right,-0.08279,0.2144,0.882,0.6676,1.2313,1.9232,0.6919,A,0.275
444,0.49672,1.2,2,0.25664,0.27319,0.67884,444,2.33456,0.26,0.13246,0.62917,5,2D1U,2.0,True,0.29,62,False,right,0.16557,1.5298,2.3053,0.7755,0.0382,0.9808,0.9427,A,0.27
445,0.49672,1.2,2,0.30631,0.26491,0.74507,445,2.2021,-0.22,-0.10762,0.38909,5,1D2U,1.0,True,0.375,51,True,left,-0.08279,1.5267,2.0603,0.5335,0.2184,0.9101,0.6917,A,0.27
446,0.49672,0.1,2,0.27319,0.42221,0.54639,446,2.35113,0.22,0.10762,0.61262,5,2D1U,2.0,True,0.292,63,True,right,0.16557,1.4156,2.1738,0.7582,0.0577,0.9985,0.9408,A,0.275
447,0.49672,0.1,2,0.43049,0.24008,0.85269,447,2.6326,0.22,0.10762,0.61262,5,2D1U,2.0,True,0.524,63,True,right,-0.08279,1.7598,2.5179,0.7581,0.3422,1.0347,0.6925,A,0.275
448,0.49672,1.2,1,0.2318,0.29803,0.87753,448,2.31801,-0.18,-0.09106,0.41393,5,1D2U,2.0,True,0.3,52,True,right,0.16557,0.0959,0.7874,0.6915,1.4543,999,997.5457,A,0.27
449,0.49672,1.2,1,0.38082,0.29803,0.83614,449,2.42564,-0.18,-0.09106,0.41393,5,1D2U,2.0,True,0.364,52,True,right,-0.08279,0.2466,0.9382,0.6916,1.6878,2.3794,0.6916,A,0.27
450,0.49672,0.1,1,0.24836,0.35598,0.41393,450,1.94548,-0.14,-0.06623,0.43049,5,1D2U,1.0,False,0.383,52,False,left,0.16557,0.1121,0.8209,0.7088,1.0198,999,997.9802,A,0.275
451,0.49672,0.1,2,0.3477,0.24008,0.81958,451,2.49186,0.18,0.09106,0.58778,5,2D1U,2.0,True,0.242,63,False,right,-0.08279,1.6396,2.3741,0.7344,0.2569,0.9485,0.6916,A,0.275
452,0.49672,1.2,1,0.41393,0.42221,0.4636,452,2.38424,0.18,0.09106,0.58778,5,2D1U,2.0,False,0.284,63,False,right,0.16557,0.2826,1.1489,0.8663,1.3988,2.3408,0.942,A,0.27
453,0.49672,1.2,1,0.36426,0.3477,0.51327,453,2.33457,0.22,0.10762,0.61262,5,2D1U,2.0,False,0.293,64,True,right,-0.08279,0.231,1.1223,0.8914,1.5479,2.2404,0.6925,A,0.27
454,0.49672,0.1,1,0.22352,0.22352,0.43049,454,1.78818,-0.18,-0.09106,0.41393,5,1D2U,1.0,False,0.326,53,True,left,0.16557,0.088,0.779,0.691,0.9961,999,998.0039,A,0.275
455,0.49672,0.1,2,0.38909,0.33942,0.66229,455,2.27661,-0.22,-0.10762,0.38909,5,1D2U,1.0,True,0.358,53,False,left,-0.08279,1.5285,2.0611,0.5326,0.302,0.9944,0.6924,A,0.275
456,0.49672,1.2,1,0.24008,0.31459,0.43049,456,2.11105,0.26,0.13246,0.62917,5,2D1U,2.0,False,0.426,64,False,right,0.16557,0.1111,1.0195,0.9084,1.2361,999,997.7639,A,0.27
457,0.49672,1.2,2,0.38082,0.27319,0.42221,457,1.96203,-0.22,-0.10762,0.38909,5,1D2U,1.0,True,0.341,53,False,left,-0.08279,1.2789,1.8109,0.532,0.2943,0.9871,0.6928,A,0.27
458,0.49672,0.1,1,0.24008,0.33114,0.52983,458,2.25178,0.3,0.14901,0.65401,5,2D1U,1.0,True,0.36,64,False,left,0.16557,0.1104,1.0442,0.9337,1.361,999,997.639,A,0.275
459,0.49672,0.1,1,0.28147,0.42221,0.57122,459,2.18555,-0.18,-0.09106,0.41393,5,1D2U,2.0,True,0.209,54,True,right,-0.08279,0.1477,0.8394,0.6917,1.3229,2.0142,0.6914,A,0.275
460,0.49672,1.2,2,0.33114,0.29803,0.71196,460,2.25178,-0.18,-0.09106,0.41393,5,1D2U,1.0,True,0.363,54,True,left,0.16557,1.6388,2.1964,0.5576,0.1136,1.0558,0.9422,A,0.27
461,0.49672,1.2,1,0.21524,0.31459,0.67884,461,2.3594,0.3,0.14901,0.65401,5,2D1U,2.0,False,0.258,64,False,right,-0.08279,0.0804,1.0136,0.9332,1.6055,2.2962,0.6907,A,0.27
462,0.49672,0.1,2,0.24836,0.43877,0.64573,462,2.26007,-0.14,-0.06623,0.43049,5,1D2U,2.0,False,0.442,54,False,right,0.16557,1.4935,2.0683,0.5748,0.0351,0.9759,0.9408,A,0.275
463,0.49672,0.1,2,0.26491,0.29803,0.83614,463,2.30973,-0.18,-0.09106,0.41393,5,1D2U,1.0,True,0.209,55,True,left,-0.08279,1.5726,2.1312,0.5586,0.1729,0.8644,0.6915,A,0.275
464,0.49672,1.2,1,0.26491,0.3477,0.79474,464,2.57464,0.34,0.17385,0.67057,5,2D1U,2.0,False,0.275,64,False,right,0.16557,0.1362,1.0858,0.9495,1.669,999,997.331,A,0.27
465,0.49672,1.2,1,0.2318,0.32287,0.61262,465,2.07794,-0.18,-0.09106,0.41393,5,1D2U,2.0,True,0.36,55,True,right,-0.08279,0.0976,0.7892,0.6916,1.3144,2.0061,0.6917,A,0.27
466,0.49672,0.1,2,0.21524,0.39737,0.79474,466,2.59119,0.38,0.19041,0.68712,5,2D1U,2.0,True,0.225,64,False,right,0.16557,1.6066,2.4399,0.8333,0.0016,0.9402,0.9386,A,0.275
467,0.49672,0.1,1,0.2318,0.2318,0.89409,467,2.54153,0.38,0.19041,0.68712,5,2D1U,1.0,True,0.466,64,False,left,-0.08279,0.0983,1.0647,0.9664,1.873,999,997.127,A,0.275
468,0.49672,1.2,2,0.42221,0.33942,0.71196,468,2.4008,-0.14,-0.06623,0.43049,5,1D2U,1.0,True,0.425,56,True,left,0.16557,1.7319,2.3065,0.5746,0.2066,1.1486,0.942,A,0.27
469,0.49672,1.2,1,0.2318,0.43877,0.5795,469,2.17728,-0.14,-0.06623,0.43049,5,1D2U,2.0,True,0.208,56,True,right,-0.08279,0.0957,0.8038,0.7081,1.2952,1.9875,0.6923,A,0.27
470,0.49672,0.1,1,0.27319,0.33114,0.43877,470,2.21039,0.34,0.17385,0.67057,5,2D1U,1.0,True,0.351,65,True,left,0.16557,0.14,1.0901,0.9501,1.3152,999,997.6848,A,0.275
471,0.49672,0.1,1,0.28975,0.42221,0.72852,471,2.38424,-0.1,-0.04967,0.44704,5,1D2U,2.0,True,0.217,56,False,right,-0.08279,0.1538,0.8795,0.7257,1.5206,2.2125,0.6919,A,0.275
472,0.49672,1.2,1,0.29803,0.32287,0.41393,472,1.97859,-0.1,-0.04967,0.44704,5,1D2U,1.0,False,0.325,56,False,left,0.16557,0.1682,0.8935,0.7254,1.0933,999,997.9067,A,0.27
473,0.49672,1.2,1,0.41393,0.44704,0.53811,473,2.32629,-0.14,-0.06623,0.43049,5,1D2U,1.0,False,0.2,57,True,left,-0.08279,0.2799,0.9884,0.7086,1.4378,2.1298,0.692,A,0.27
474,0.49672,0.1,2,0.25664,0.38082,0.49672,474,2.30147,0.34,0.17385,0.67057,5,2D1U,2.0,True,0.284,65,True,right,0.16557,1.3511,2.1675,0.8164,0.0425,0.9849,0.9424,A,0.275
475,0.49672,0.1,2,0.44704,0.22352,0.59606,475,2.41735,0.3,0.14901,0.65401,5,2D1U,2.0,True,0.292,65,False,right,-0.08279,1.5192,2.3191,0.7999,0.3607,1.0525,0.6918,A,0.275
476,0.49672,1.2,2,0.38909,0.28975,0.55467,476,2.14416,-0.18,-0.09106,0.41393,5,1D2U,1.0,True,0.339,57,False,left,0.16557,1.5377,2.0964,0.5587,0.171,1.1128,0.9418,A,0.27
477,0.49672,1.2,1,0.38909,0.33942,0.89409,477,2.53325,-0.18,-0.09106,0.41393,5,1D2U,2.0,True,0.351,57,False,right,-0.08279,0.2572,0.9486,0.6913,1.757,2.4485,0.6916,A,0.27
478,0.49672,0.1,1,0.29803,0.31459,0.53811,478,2.30146,0.3,0.14901,0.65401,5,2D1U,1.0,True,0.334,65,False,left,0.16557,0.1636,1.0974,0.9338,1.4228,999,997.5772,A,0.275
479,0.49672,0.1,2,0.28147,0.38909,0.47188,479,2.06965,-0.14,-0.06623,0.43049,5,1D2U,1.0,True,0.258,58,True,left,-0.08279,1.2251,1.8002,0.5751,0.192,0.8836,0.6917,A,0.275
480,0.49672,1.2,2,0.38082,0.37254,0.42221,480,2.30146,0.26,0.13246,0.62917,5,2D1U,2.0,True,0.401,65,False,right,0.16557,1.3955,2.1707,0.7752,0.1628,1.1036,0.9408,A,0.27
481,0.49672,1.2,1,0.35598,0.29803,0.80302,481,2.38424,-0.14,-0.06623,0.43049,5,1D2U,2.0,True,0.309,58,True,right,-0.08279,0.2211,0.9288,0.7077,1.6459,2.3376,0.6916,A,0.27
482,0.49672,0.1,2,0.36426,0.28147,0.8113,482,2.40079,-0.1,-0.04967,0.44704,5,1D2U,1.0,True,0.333,58,False,left,0.16557,1.7736,2.365,0.5915,0.1488,1.0895,0.9407,A,0.275
483,0.49672,0.1,2,0.27319,0.20696,0.43049,483,2.03653,0.26,0.13246,0.62917,5,2D1U,2.0,True,0.326,65,False,right,-0.08279,1.1771,1.9518,0.7747,0.1854,0.8774,0.6919,A,0.275
484,0.49672,1.2,1,0.39737,0.38909,0.71196,484,2.44218,-0.1,-0.04967,0.44704,5,1D2U,2.0,True,0.333,58,False,right,0.16557,0.266,0.9906,0.7246,1.4901,2.4323,0.9421,A,0.27
485,0.49672,1.2,1,0.40565,0.38082,0.65401,485,2.54982,0.22,0.10762,0.61262,5,2D1U,2.0,False,0.251,65,False,right,-0.08279,0.2723,1.1633,0.891,1.7301,2.4218,0.6918,A,0.27
486,0.49672,0.1,2,0.37254,0.38082,0.62089,486,2.50014,0.26,0.13246,0.62917,5,2D1U,2.0,True,0.15,66,True,right,0.16557,1.5942,2.3693,0.7751,0.1611,1.103,0.9419,A,0.275
487,0.49672,0.1,1,0.28975,0.41393,0.41393,487,2.08621,-0.06,-0.03311,0.47188,5,1D2U,1.0,False,0.14,58,False,left,-0.08279,0.1557,0.906,0.7503,1.2313,1.9234,0.6921,A,0.275
488,0.49672,1.2,1,0.24836,0.27319,0.4636,488,1.92891,-0.1,-0.04967,0.44704,5,1D2U,1.0,False,0.284,59,True,left,0.16557,0.1191,0.8441,0.725,1.0946,999,997.9054,A,0.27
489,0.49672,1.2,2,0.29803,0.42221,0.45532,489,2.30145,0.26,0.13246,0.62917,5,2D1U,2.0,True,0.275,66,True,right,-0.08279,1.2235,1.9975,0.774,0.2065,0.8978,0.6913,A,0.27
490,0.49672,0.1,1,0.38909,0.30631,0.45532,490,2.07793,-0.14,-0.06623,0.43049,5,1D2U,2.0,True,0.408,59,False,right,0.16557,0.2589,0.9668,0.7079,1.2087,999,997.7913,A,0.275
491,0.49672,0.1,1,0.30631,0.35598,0.6954,491,2.2849,-0.14,-0.06623,0.43049,5,1D2U,1.0,False,0.793,59,False,left,-0.08279,0.1712,0.8793,0.7081,1.4873,2.1795,0.6921,A,0.275
492,0.49672,1.2,1,0.35598,0.40565,0.89409,492,2.56637,-0.18,-0.09106,0.41393,5,1D2U,2.0,True,0.342,59,False,right,0.16557,0.2286,0.9203,0.6917,1.6036,2.5449,0.9414,A,0.27
493,0.49672,1.2,2,0.30631,0.22352,0.49672,493,2.13589,0.22,0.10762,0.61262,5,2D1U,2.0,True,0.3,67,True,right,-0.08279,1.2777,2.0363,0.7586,0.2203,0.9117,0.6914,A,0.27
494,0.49672,0.1,2,0.2318,0.29803,0.58778,494,2.02826,-0.18,-0.09106,0.41393,5,1D2U,1.0,True,0.309,59,False,left,0.16557,1.4195,1.9777,0.5582,0.0196,0.961,0.9414,A,0.275
495,0.49672,0.1,2,0.31459,0.24836,0.61262,495,2.10278,-0.14,-0.06623,0.43049,5,1D2U,1.0,True,0.44,60,True,left,-0.08279,1.3989,1.9736,0.5747,0.2238,0.9153,0.6916,A,0.275
496,0.49672,1.2,1,0.27319,0.43049,0.48016,496,2.29318,0.22,0.10762,0.61262,5,2D1U,1.0,True,0.326,67,True,left,0.16557,0.1436,1.0338,0.8902,1.3008,2.2431,0.9423,A,0.27
497,0.49672,1.2,1,0.31459,0.40565,0.84442,497,2.49187,-0.14,-0.06623,0.43049,5,1D2U,2.0,True,0.241,60,True,right,-0.08279,0.1809,0.8892,0.7083,1.6475,2.3391,0.6916,A,0.27
498,0.49672,0.1,1,0.2318,0.28147,0.58778,498,2.18555,0.18,0.09106,0.58778,5,2D1U,1.0,True,0.322,67,False,left,0.16557,0.0967,0.9638,0.8671,1.3382,999,997.6618,A,0.275
499,0.49672,0.1,1,0.36426,0.19869,0.49672,499,2.00343,-0.1,-0.04967,0.44704,5,1D2U,1.0,False,0.476,60,False,left,-0.08279,0.2342,0.959,0.7248,1.3676,999,997.6324,A,0.275
500,0.49672,1.2,2,0.39737,0.37254,0.75335,500,2.45047,-0.14,-0.06623,0.43049,5,1D2U,2.0,False,0.216,61,True,right,0.16557,1.749,2.324,0.575,0.1825,1.1239,0.9413,A,0.27
501,0.49672,1.2,2,0.33114,0.36426,0.60434,501,2.38424,0.18,0.09106,0.58778,5,2D1U,2.0,True,0.167,67,False,right,-0.08279,1.4097,2.1431,0.7334,0.2429,0.935,0.6921,A,0.27
502,0.49672,0.1,1,0.25664,0.30631,0.74507,502,2.37596,0.14,0.06623,0.57122,5,2D1U,2.0,False,0.276,67,False,right,0.16557,0.1217,0.9719,0.8501,1.5049,999,997.4951,A,0.275
503,0.49672,0.1,1,0.42221,0.31459,0.86097,503,2.50842,-0.18,-0.09106,0.41393,5,1D2U,2.0,True,0.408,61,False,right,-0.08279,0.2876,0.9789,0.6913,1.7539,2.4454,0.6915,A,0.275
504,0.49672,1.2,2,0.28975,0.3477,0.82786,504,2.54981,0.18,0.09106,0.58778,5,2D1U,1.0,False,0.418,68,True,left,0.16557,1.7153,2.4485,0.7332,0.0743,1.0159,0.9416,A,0.27
505,0.49672,1.2,2,0.37254,0.20696,0.45532,505,2.14416,0.22,0.10762,0.61262,5,2D1U,2.0,True,0.376,68,False,right,-0.08279,1.3027,2.0606,0.7579,0.2859,0.9773,0.6914,A,0.27
506,0.49672,0.1,1,0.25664,0.42221,0.86925,506,2.65744,0.22,0.10762,0.61262,5,2D1U,2.0,False,0.409,68,False,right,0.16557,0.127,1.019,0.892,1.677,2.6185,0.9416,A,0.275
507,0.49672,0.1,1,0.22352,0.44704,0.86097,507,2.44218,-0.18,-0.09106,0.41393,5,1D2U,2.0,True,0.298,61,False,right,-0.08279,0.0876,0.7794,0.6918,1.5546,2.2465,0.6919,A,0.275
508,0.49672,1.2,1,0.28147,0.44704,0.87753,508,2.73193,0.26,0.13246,0.62917,5,2D1U,1.0,True,0.276,68,False,left,0.16557,0.1484,1.0563,0.9079,1.7234,2.6656,0.9422,A,0.27
509,0.49672,1.2,2,0.35598,0.38909,0.67884,509,2.5498,0.26,0.13246,0.62917,5,2D1U,2.0,True,0.283,68,False,right,-0.08279,1.507,2.2812,0.7743,0.265,0.9573,0.6923,A,0.27
510,0.49672,0.1,2,0.25664,0.44704,0.81958,510,2.45047,-0.14,-0.06623,0.43049,5,1D2U,1.0,True,0.392,62,True,left,0.16557,1.6729,2.2479,0.5749,0.0399,0.9817,0.9418,A,0.275
511,0.49672,0.1,2,0.36426,0.33942,0.77819,511,2.59121,0.22,0.10762,0.61262,5,2D1U,2.0,True,0.384,69,True,right,-0.08279,1.6185,2.3769,0.7584,0.2766,0.9683,0.6917,A,0.275
512,0.49672,1.2,2,0.29803,0.39737,0.88581,512,2.69055,0.22,0.10762,0.61262,5,2D1U,1.0,False,0.334,69,True,left,0.16557,1.7818,2.5401,0.7583,0.0821,1.0231,0.941,A,0.27
513,0.49672,1.2,2,0.21524,0.20696,0.72852,513,2.07793,-0.14,-0.06623,0.43049,5,1D2U,2.0,False,0.309,62,True,right,-0.08279,1.415,1.9904,0.5753,0.1233,0.8148,0.6915,A,0.27
514,0.49672,0.1,1,0.43877,0.42221,0.79474,514,2.78161,0.26,0.13246,0.62917,5,2D1U,1.0,True,0.217,70,True,left,0.16557,0.3125,1.2201,0.9076,1.8036,2.7456,0.942,A,0.275
515,0.49672,0.1,1,0.26491,0.43877,0.60434,515,2.43391,0.26,0.13246,0.62917,5,2D1U,1.0,True,0.284,70,True,left,-0.08279,0.13,1.0376,0.9076,1.5551,2.2465,0.6914,A,0.275
516,0.49672,1.2,1,0.28147,0.38909,0.68712,516,2.26833,-0.18,-0.09106,0.41393,5,1D2U,2.0,True,0.286,63,True,right,0.16557,0.1466,0.8382,0.6916,1.3129,2.2547,0.9418,A,0.27
517,0.49672,1.2,1,0.30631,0.42221,0.85269,517,2.69055,0.22,0.10762,0.61262,5,2D1U,2.0,False,0.467,71,True,right,-0.08279,0.1727,1.0645,0.8918,1.8302,2.5223,0.6921,A,0.27
518,0.49672,0.1,1,0.35598,0.38082,0.48844,518,2.13589,-0.18,-0.09106,0.41393,5,1D2U,1.0,False,0.458,63,True,left,0.16557,0.2222,0.9152,0.6929,1.1899,2.1319,0.942,A,0.275
519,0.49672,0.1,2,0.43877,0.30631,0.55467,519,2.18556,-0.22,-0.10762,0.38909,5,1D2U,1.0,True,0.392,63,False,left,-0.08279,1.463,1.9963,0.5333,0.3462,1.0383,0.6921,A,0.275
520,0.49672,1.2,2,0.35598,0.37254,0.62089,520,2.4753,0.26,0.13246,0.62917,5,2D1U,2.0,True,0.258,72,True,right,0.16557,1.5726,2.3474,0.7748,0.1392,1.0808,0.9417,A,0.27
521,0.49672,1.2,2,0.43877,0.43877,0.55467,521,2.5581,0.26,0.13246,0.62917,5,2D1U,2.0,True,0.199,72,True,right,-0.08279,1.4646,2.2394,0.7747,0.3478,1.0397,0.692,A,0.27
522,0.49672,0.1,1,0.39737,0.22352,0.68712,522,2.19382,-0.22,-0.10762,0.38909,5,1D2U,2.0,True,0.385,63,False,right,0.16557,0.2684,0.9352,0.6668,1.4104,999,997.5896,A,0.275
523,0.49672,0.1,2,0.30631,0.43877,0.50499,523,2.35941,0.22,0.10762,0.61262,5,2D1U,2.0,True,0.113,73,True,right,-0.08279,1.2846,2.0434,0.7588,0.218,0.91,0.692,A,0.275
524,0.49672,1.2,2,0.33942,0.41393,0.64573,524,2.50842,0.22,0.10762,0.61262,5,2D1U,1.0,False,0.424,73,True,left,0.16557,1.5808,2.3397,0.7589,0.1219,1.0642,0.9423,A,0.27
525,0.49672,1.2,1,0.22352,0.40565,0.86925,525,2.62431,0.26,0.13246,0.62917,5,2D1U,1.0,True,0.434,74,True,left,-0.08279,0.0889,0.9969,0.908,1.7807,2.4723,0.6917,A,0.27
526,0.49672,0.1,1,0.38909,0.39737,0.52983,526,2.22694,-0.18,-0.09106,0.41393,5,1D2U,2.0,True,0.399,64,True,right,0.16557,0.2552,0.9469,0.6917,1.2635,2.2052,0.9418,A,0.275
527,0.49672,0.1,1,0.40565,0.21524,0.48844,527,2.23522,0.26,0.13246,0.62917,5,2D1U,1.0,True,0.442,74,True,left,-0.08279,0.2698,1.1791,0.9092,1.5793,999,997.4207,A,0.275
528,0.49672,1.2,2,0.40565,0.20696,0.52155,528,2.2435,0.22,0.10762,0.61262,5,2D1U,2.0,True,0.533,75,True,right,0.16557,1.5254,999,997.4746,0.1923,1.1336,0.9413,A,0.27
529,0.49672,1.2,2,0.32287,0.44704,0.80302,529,2.48358,-0.18,-0.09106,0.41393,5,1D2U,1.0,True,0.292,64,True,left,-0.08279,1.5965,2.1553,0.5588,0.2299,0.9211,0.6912,A,0.27
530,0.49672,0.1,1,0.44704,0.30631,0.90237,530,2.58293,-0.14,-0.06623,0.43049,5,1D2U,2.0,True,0.359,64,False,right,0.16557,0.3184,1.0261,0.7077,1.7185,999,997.2815,A,0.275
531,0.49672,0.1,2,0.28147,0.33942,0.49672,531,2.22695,0.22,0.10762,0.61262,5,2D1U,1.0,False,0.434,75,True,left,-0.08279,1.2478,2.0069,0.7591,0.1911,0.8812,0.6901,A,0.275
532,0.49672,1.2,1,0.24836,0.37254,0.45532,532,2.00343,-0.14,-0.06623,0.43049,5,1D2U,2.0,True,0.296,64,False,right,0.16557,0.1126,0.821,0.7084,1.0615,2.0041,0.9426,A,0.27
533,0.49672,1.2,1,0.26491,0.28147,0.74507,533,2.41734,0.26,0.13246,0.62917,5,2D1U,2.0,False,0.376,76,True,right,-0.08279,0.1357,1.0442,0.9085,1.7018,2.3942,0.6925,A,0.27
534,0.49672,0.1,2,0.28147,0.38909,0.83614,534,2.65743,0.3,0.14901,0.65401,5,2D1U,2.0,True,0.217,76,False,right,0.16557,1.7173,2.5173,0.8,0.0671,1.0093,0.9421,A,0.275
535,0.49672,0.1,1,0.40565,0.3477,0.53811,535,2.23522,-0.1,-0.04967,0.44704,5,1D2U,2.0,True,0.274,64,False,right,-0.08279,0.2783,1.0034,0.7251,1.4533,2.1453,0.692,A,0.275
536,0.49672,1.2,2,0.33114,0.42221,0.88581,536,2.58292,-0.1,-0.04967,0.44704,5,1D2U,1.0,True,0.568,64,False,left,0.16557,1.818,2.4102,0.5922,0.1184,1.0597,0.9413,A,0.27
537,0.49672,1.2,1,0.2318,0.22352,0.86097,537,2.46702,0.3,0.14901,0.65401,5,2D1U,2.0,False,0.368,76,False,right,-0.08279,0.1027,1.0365,0.9338,1.8117,999,997.1883,A,0.27
538,0.49672,0.1,2,0.33114,0.37254,0.44704,538,2.31801,0.34,0.17385,0.67057,5,2D1U,2.0,True,0.113,76,False,right,0.16557,1.3781,2.1947,0.8166,0.1193,1.0611,0.9417,A,0.275
539,0.49672,0.1,1,0.36426,0.32287,0.75335,539,2.60777,0.34,0.17385,0.67057,5,2D1U,1.0,True,0.451,76,False,left,-0.08279,0.2363,1.186,0.9497,1.8529,2.5445,0.6916,A,0.275
540,0.49672,1.2,1,0.22352,0.24836,0.77819,540,2.4008,0.3,0.14901,0.65401,5,2D1U,1.0,True,0.34,77,True,left,0.16557,0.0898,1.0222,0.9324,1.5898,999,997.4102,A,0.27
541,0.49672,1.2,2,0.32287,0.19869,0.73679,541,2.22695,-0.06,-0.03311,0.47188,5,1D2U,2.0,False,0.317,64,False,right,-0.08279,1.5307,2.1478,0.6171,0.2301,0.9233,0.6932,A,0.27
542,0.49672,0.1,1,0.27319,0.24008,0.87753,542,2.33456,-0.1,-0.04967,0.44704,5,1D2U,1.0,False,0.342,65,True,left,0.16557,0.1381,0.8628,0.7247,1.5292,999,997.4708,A,0.275
543,0.49672,0.1,2,0.25664,0.38909,0.64573,543,2.21867,-0.14,-0.06623,0.43049,5,1D2U,1.0,True,0.374,65,False,left,-0.08279,1.3705,1.9456,0.5751,0.1623,0.854,0.6916,A,0.275
544,0.49672,1.2,2,0.28147,0.36426,0.44704,544,2.2435,0.3,0.14901,0.65401,5,2D1U,2.0,True,0.212,77,True,right,0.16557,1.3213,2.1213,0.8,0.0636,1.005,0.9414,A,0.27
545,0.49672,1.2,1,0.36426,0.24008,0.70368,545,2.23523,-0.14,-0.06623,0.43049,5,1D2U,1.0,False,0.941,65,False,left,-0.08279,0.2366,0.9449,0.7084,1.5612,2.261,0.6998,A,0.27
546,0.49672,0.1,2,0.30631,0.29803,0.79474,546,2.52497,0.26,0.13246,0.62917,5,2D1U,2.0,True,0.267,77,False,right,0.16557,1.6975,2.4719,0.7743,0.0884,1.0304,0.942,A,0.275
547,0.49672,0.1,2,0.44704,0.41393,0.71196,547,2.69882,0.26,0.13246,0.62917,5,2D1U,2.0,True,0.276,77,False,right,-0.08279,1.6292,2.4044,0.7752,0.3544,1.0462,0.6918,A,0.275
548,0.49672,1.2,2,0.19869,0.20696,0.83614,548,2.35113,0.22,0.10762,0.61262,5,2D1U,2.0,True,0.334,77,False,right,0.16557,1.6296,999,997.3704,999,0.9213,-998.0787,A,0.27
549,0.49672,1.2,1,0.30631,0.21524,0.39737,549,1.82957,-0.18,-0.09106,0.41393,5,1D2U,1.0,False,0.592,65,False,left,-0.08279,0.1724,0.8639,0.6915,1.1724,999,997.8276,A,0.27
550,0.49672,0.1,1,0.21524,0.33942,0.56294,550,2.00341,-0.22,-0.10762,0.38909,5,1D2U,2.0,True,0.384,65,False,right,0.16557,0.0855,0.7521,0.6666,1.1021,999,997.8979,A,0.275
551,0.49672,0.1,1,0.22352,0.20696,0.62089,551,1.93718,-0.22,-0.10762,0.38909,5,1D2U,2.0,True,0.301,65,False,right,-0.08279,0.0862,0.7531,0.6669,1.2869,999,997.7131,A,0.275
552,0.49672,1.2,1,0.32287,0.24836,0.60434,552,2.28491,0.22,0.10762,0.61262,5,2D1U,1.0,True,0.467,77,False,left,0.16557,0.1935,1.0855,0.892,1.4773,999,997.5227,A,0.27
553,0.49672,1.2,1,0.27319,0.24008,0.82786,553,2.42563,0.18,0.09106,0.58778,5,2D1U,1.0,True,0.234,77,False,left,-0.08279,0.1396,1.0068,0.8672,1.7488,2.4464,0.6976,A,0.27
554,0.49672,0.1,2,0.2318,0.25664,0.61262,554,2.01171,-0.18,-0.09106,0.41393,5,1D2U,1.0,True,0.442,66,True,left,0.16557,1.4404,1.9993,0.5589,0.0156,0.9581,0.9425,A,0.275
555,0.49672,0.1,1,0.43049,0.41393,0.78647,555,2.71539,0.18,0.09106,0.58778,5,2D1U,1.0,True,0.424,77,False,left,-0.08279,0.2977,1.1653,0.8676,1.8652,2.5565,0.6913,A,0.275
556,0.49672,1.2,2,0.3477,0.25664,0.50499,556,2.17727,0.14,0.06623,0.57122,5,2D1U,2.0,True,0.3,77,False,right,0.16557,1.4521,2.1685,0.7164,0.1358,1.0768,0.941,A,0.27
557,0.49672,1.2,1,0.21524,0.40565,0.51327,557,2.04481,-0.18,-0.09106,0.41393,5,1D2U,2.0,True,0.644,66,True,right,-0.08279,0.0809,0.7723,0.6914,1.197,1.8893,0.6923,A,0.27
558,0.49672,0.1,2,0.30631,0.35598,0.62089,558,2.35112,0.14,0.06623,0.57122,5,2D1U,2.0,True,0.442,77,False,right,0.16557,1.528,2.2442,0.7162,0.0949,1.0364,0.9415,A,0.275
559,0.49672,0.1,1,0.24008,0.43877,0.79474,559,2.4008,-0.14,-0.06623,0.43049,5,1D2U,2.0,True,0.332,66,False,right,-0.08279,0.1065,0.8153,0.7088,1.5235,2.2151,0.6916,A,0.275
560,0.49672,1.2,1,0.40565,0.36426,0.60434,560,2.30146,-0.14,-0.06623,0.43049,5,1D2U,2.0,True,0.409,66,False,right,0.16557,0.2724,0.9815,0.7091,1.3729,2.3184,0.9455,A,0.27
561,0.49672,1.2,1,0.20696,0.40565,0.83614,561,2.49186,0.1,0.04967,0.54639,5,2D1U,1.0,True,0.288,77,False,left,-0.08279,0.0704,0.8958,0.8254,1.6452,2.3368,0.6916,A,0.27
562,0.49672,0.1,1,0.44704,0.24008,0.74507,562,2.4753,0.1,0.04967,0.54639,5,2D1U,2.0,False,0.434,77,False,right,0.16557,0.3156,1.1394,0.8237,1.6732,999,997.3268,A,0.275
563,0.49672,0.1,2,0.3477,0.38082,0.72852,563,2.4008,-0.1,-0.04967,0.44704,5,1D2U,1.0,True,0.409,66,False,left,-0.08279,1.5513,2.1437,0.5924,0.2603,0.9521,0.6918,A,0.275
564,0.49672,1.2,2,0.30631,0.25664,0.63745,564,2.14416,-0.1,-0.04967,0.44704,5,1D2U,1.0,True,0.409,66,False,left,0.16557,1.5379,2.1294,0.5915,0.0879,1.0295,0.9416,A,0.27
565,0.49672,1.2,2,0.39737,0.24008,0.86925,565,2.57464,0.14,0.06623,0.57122,5,2D1U,2.0,True,0.276,78,True,right,-0.08279,1.7396,2.4562,0.7166,0.306,0.9978,0.6918,A,0.27
566,0.49672,0.1,1,0.31459,0.21524,0.82786,566,2.42563,0.14,0.06623,0.57122,5,2D1U,1.0,True,0.399,78,True,left,0.16557,0.1815,1.0329,0.8514,1.6481,999,997.3519,A,0.275
567,0.49672,0.1,1,0.28975,0.36426,0.44704,567,2.06965,-0.06,-0.03311,0.47188,5,1D2U,2.0,True,0.291,66,False,right,-0.08279,0.1565,0.9067,0.7502,1.2641,1.9561,0.6921,A,0.275
568,0.49672,1.2,2,0.2318,0.35598,0.45532,568,2.0117,-0.06,-0.03311,0.47188,5,1D2U,2.0,False,0.435,66,False,right,0.16557,1.2793,1.8953,0.616,0.0119,0.954,0.9421,A,0.27
569,0.49672,1.2,2,0.27319,0.28147,0.44704,569,2.04481,0.1,0.04967,0.54639,5,2D1U,1.0,False,0.451,79,True,left,-0.08279,1.1931,1.884,0.6909,0.1846,0.8761,0.6915,A,0.27
570,0.49672,0.1,2,0.42221,0.26491,0.44704,570,2.2021,0.14,0.06623,0.57122,5,2D1U,2.0,True,0.3,80,True,right,0.16557,1.4684,2.1858,0.7174,0.2102,1.1525,0.9422,A,0.275
571,0.49672,0.1,1,0.41393,0.20696,0.54639,571,2.11104,-0.1,-0.04967,0.44704,5,1D2U,1.0,False,0.301,67,True,left,-0.08279,0.2854,1.0103,0.7249,1.4683,999,997.5317,A,0.275
572,0.49672,1.2,1,0.26491,0.2318,0.54639,572,2.11104,0.14,0.06623,0.57122,5,2D1U,2.0,False,0.268,80,True,right,0.16557,0.131,0.9809,0.8499,1.3152,999,997.6848,A,0.27
573,0.49672,1.2,1,0.22352,0.22352,0.65401,573,2.18555,0.18,0.09106,0.58778,5,2D1U,2.0,False,0.308,80,False,right,-0.08279,0.0876,0.954,0.8664,1.5205,999,997.4795,A,0.27
574,0.49672,0.1,2,0.29803,0.38909,0.72852,574,2.34285,-0.14,-0.06623,0.43049,5,1D2U,1.0,True,0.217,67,False,left,0.16557,1.6219,2.1959,0.5739,0.0803,1.0216,0.9413,A,0.275
575,0.49672,0.1,2,0.2318,0.24836,0.75335,575,2.16072,-0.14,-0.06623,0.43049,5,1D2U,1.0,True,0.31,67,False,left,-0.08279,1.4554,2.0306,0.5752,0.14,0.8316,0.6916,A,0.275
576,0.49672,1.2,2,0.29803,0.26491,0.76991,576,2.27661,-0.1,-0.04967,0.44704,5,1D2U,2.0,False,0.293,68,True,right,0.16557,1.663,2.2545,0.5914,0.08,1.0213,0.9413,A,0.27
577,0.49672,1.2,2,0.42221,0.30631,0.67057,577,2.50843,0.22,0.10762,0.61262,5,2D1U,2.0,True,0.192,80,False,right,-0.08279,1.5643,2.3227,0.7584,0.3305,1.0233,0.6928,A,0.27
578,0.49672,0.1,1,0.43049,0.3477,0.71196,578,2.41736,-0.14,-0.06623,0.43049,5,1D2U,2.0,True,0.342,69,True,right,0.16557,0.3019,1.0113,0.7094,1.5112,999,997.4888,A,0.275
579,0.49672,0.1,2,0.28147,0.39737,0.48016,579,2.26834,0.22,0.10762,0.61262,5,2D1U,2.0,True,0.125,80,False,right,-0.08279,1.2296,1.9878,0.7583,0.1883,0.8799,0.6916,A,0.275
580,0.49672,1.2,2,0.28147,0.22352,0.89409,580,2.48358,0.18,0.09106,0.58778,5,2D1U,1.0,False,0.283,81,True,left,0.16557,1.7789,999,997.2211,0.0699,1.0113,0.9414,A,0.27
581,0.49672,1.2,1,0.24836,0.38082,0.5795,581,2.13589,-0.14,-0.06623,0.43049,5,1D2U,2.0,True,0.218,69,True,right,-0.08279,0.12,0.8276,0.7076,1.3196,2.0108,0.6912,A,0.27
582,0.49672,0.1,1,0.32287,0.42221,0.50499,582,2.35941,0.22,0.10762,0.61262,5,2D1U,1.0,True,0.275,82,True,left,0.16557,0.1946,1.0863,0.8917,1.3779,2.3189,0.9411,A,0.275
583,0.49672,0.1,1,0.20696,0.29803,0.41393,583,1.86268,-0.1,-0.04967,0.44704,5,1D2U,2.0,True,0.309,70,True,right,-0.08279,0.0788,0.8032,0.7244,1.1285,1.8205,0.692,A,0.275
584,0.49672,1.2,2,0.39737,0.36426,0.80302,584,2.67399,0.22,0.10762,0.61262,5,2D1U,2.0,True,0.367,82,True,right,0.16557,1.7974,2.556,0.7586,0.1815,1.1232,0.9417,A,0.27
585,0.49672,1.2,2,0.41393,0.37254,0.45532,585,2.32629,0.18,0.09106,0.58778,5,2D1U,1.0,False,0.114,83,True,left,-0.08279,1.3425,2.076,0.7336,0.3258,1.0179,0.6922,A,0.27
586,0.49672,0.1,2,0.35598,0.37254,0.74507,586,2.41735,-0.1,-0.04967,0.44704,5,1D2U,1.0,True,0.332,70,True,left,0.16557,1.6982,2.2906,0.5924,0.14,1.0816,0.9416,A,0.275