,standardDur,audNoise,order,preDur,postDur,isiDur,trial_num,totalDur,delta_dur_percents,deltaDurS,testDurS,intensities,current_stair,responses,is_correct,response_rts,stair_num_reversal,stair_is_reversal,response_keys,conflictDur,recordedOnsetVisualTest,recordedOffsetVisualTest,recordedDurVisualTest,recordedOnsetVisualStandard,recordedOffsetVisualStandard,recordedDurVisualStandard,modalityCue,VisualPSE
0,0.49938,0.1,2,0.41615,0.25801,0.67416,0,1.87267,-0.95,-0.47441,0.02497,5,lapse_rate,1.0,True,0.486,0,False,left,0.16646,1.6799,1.9796,0.2997,0.1968,1.1383,0.9415,A,0.275
1,0.49938,1.2,1,0.4328,0.27466,0.40783,1,1.63964,-0.95,-0.47441,0.02497,5,1D2U,2.0,True,0.317,0,False,right,-0.08323,0.2989,0.5907,0.2918,0.9067,1.5906,0.684,A,0.27
2,0.49938,1.2,2,0.25801,0.38286,0.44112,2,1.60634,-0.95,-0.47441,0.02497,5,1D2U,1.0,True,0.301,0,False,left,0.16646,1.2843,1.5761,0.2917,0.0421,0.9759,0.9338,A,0.27
3,0.49938,0.1,1,0.3995,0.25801,0.4328,3,1.61466,-0.95,-0.47441,0.02497,5,2D1U,2.0,True,1.125,0,False,right,-0.08323,0.2632,0.5631,0.2999,0.9045,1.5966,0.6921,A,0.275
4,0.49938,0.1,2,0.39118,0.42447,0.40783,4,2.67168,0.9,0.44944,0.94882,5,lapse_rate,2.0,True,0.111,0,False,right,0.16646,1.3888,2.6133,1.2244,0.1722,1.1136,0.9414,A,0.275
5,0.49938,0.1,1,0.28298,0.38286,0.54932,5,1.82274,-0.79,-0.39118,0.1082,5,2D1U,2.0,True,0.708,0,False,right,-0.08323,0.1482,0.5325,0.3843,0.9908,1.6821,0.6913,A,0.275
6,0.49938,1.2,2,0.3246,0.64087,1.19019,6,2.68001,-0.95,-0.47441,0.02497,5,lapse_rate,1.0,True,2.642,0,False,left,0.16646,2.1027,2.3943,0.2916,0.1111,1.0444,0.9333,A,0.27
7,0.49938,1.2,2,0.20808,0.28298,0.40783,7,1.50647,-0.79,-0.39118,0.1082,5,1D2U,1.0,True,1.125,0,False,left,-0.08323,1.0771,1.4522,0.3751,0.1189,0.8021,0.6831,A,0.27
8,0.49938,1.2,1,0.3995,0.3246,0.63255,8,1.96423,-0.79,-0.39118,0.1082,5,1D2U,2.0,True,3.45,0,False,right,0.16646,0.2646,0.6394,0.3748,1.0562,1.9887,0.9325,A,0.27
9,0.49938,0.1,1,0.41615,0.4328,0.53267,9,2.06411,-0.63,-0.31627,0.18311,5,2D1U,2.0,True,0.526,0,False,right,-0.08323,0.2865,0.7448,0.4583,1.1865,1.8776,0.6911,A,0.275
10,0.49938,1.2,1,0.27466,0.34957,0.46609,10,2.53852,0.9,0.44944,0.94882,5,lapse_rate,1.0,True,0.383,0,False,left,0.16646,0.1387,1.3555,1.2168,1.6053,2.5384,0.9331,A,0.27
11,0.49938,0.1,1,0.20808,0.24137,0.60758,11,2.50523,0.9,0.44944,0.94882,5,lapse_rate,1.0,True,0.425,0,False,left,-0.08323,0.0762,1.3011,1.2249,1.8178,2.5094,0.6916,A,0.275
12,0.49938,0.1,1,0.29131,0.4328,0.74907,12,2.2389,-0.47,-0.23304,0.26634,5,2D1U,2.0,True,0.858,0,False,right,0.16646,0.1603,0.7023,0.542,1.2358,2.1772,0.9414,A,0.275
13,0.49938,1.2,1,0.28298,0.44112,0.62423,13,2.03082,-0.63,-0.31627,0.18311,5,1D2U,2.0,True,0.533,0,False,right,-0.08323,0.1487,0.5985,0.4498,1.1319,1.8155,0.6836,A,0.27
14,0.49938,1.2,1,0.27466,0.37454,0.56596,14,2.05578,-0.31,-0.15814,0.34124,5,2D1U,2.0,True,0.516,0,False,right,0.16646,0.1382,0.7463,0.6082,1.0966,2.0298,0.9332,A,0.27
15,0.49938,1.2,1,0.3995,0.40783,0.82398,15,2.15566,-0.95,-0.47441,0.02497,5,lapse_rate,2.0,True,0.5,0,False,right,-0.08323,0.2683,0.5599,0.2916,1.2932,1.9765,0.6834,A,0.27
16,0.49938,0.1,1,0.28298,0.29131,0.65752,16,1.9143,-0.63,-0.31627,0.18311,5,1D2U,2.0,True,0.367,0,False,right,0.16646,0.1521,0.61,0.4579,1.0516,1.9937,0.9422,A,0.275
17,0.49938,0.1,2,0.39118,0.39118,0.68249,17,2.3887,-0.15,-0.07491,0.42447,5,2D1U,1.0,True,0.359,0,False,left,-0.08323,1.5391,2.2394,0.7003,0.2977,0.9892,0.6914,A,0.275
18,0.49938,1.2,1,0.4328,0.2164,0.71578,18,2.1307,-0.47,-0.23304,0.26634,5,1D2U,2.0,True,0.475,0,False,right,0.16646,0.2999,0.8332,0.5334,1.3329,2.2666,0.9336,A,0.27
19,0.49938,0.1,1,0.39118,0.35789,0.59093,19,2.7882,0.9,0.44944,0.94882,5,lapse_rate,1.0,True,0.367,0,False,left,-0.08323,0.2552,1.48,1.2249,1.9798,2.671,0.6912,A,0.275
20,0.49938,0.1,1,0.33292,0.39118,0.79069,20,2.03914,-0.95,-0.47441,0.02497,5,lapse_rate,2.0,True,0.209,0,False,right,0.16646,0.2005,0.5011,0.3007,1.0761,2.0177,0.9416,A,0.275
21,0.49938,1.2,1,0.3995,0.29963,0.62423,21,2.33044,0.01,0.00832,0.5077,5,2D1U,2.0,False,0.417,0,False,right,-0.08323,0.2645,1.0394,0.7749,1.5728,2.2561,0.6833,A,0.27
22,0.49938,0.1,2,0.44944,0.22472,0.76572,22,2.2056,-0.47,-0.23304,0.26634,5,1D2U,1.0,True,0.441,0,False,left,0.16646,1.8054,2.3553,0.5499,0.2304,1.1722,0.9419,A,0.275
23,0.49938,0.1,2,0.26634,0.44112,0.49106,23,1.72287,-0.95,-0.47441,0.02497,5,lapse_rate,1.0,True,14.483,0,False,left,-0.08323,1.2241,1.5247,0.3005,0.1748,0.8661,0.6913,A,0.275
24,0.49938,0.1,2,0.49938,0.29963,0.63255,24,2.51355,0.17,0.08323,0.58261,5,2D1U,2.0,True,0.401,0,False,right,0.16646,1.7233,2.5817,0.8584,0.2819,1.2233,0.9414,A,0.275
25,0.49938,1.2,1,0.22472,0.24969,0.85727,25,2.1723,-0.31,-0.15814,0.34124,5,1D2U,2.0,True,0.333,0,False,right,-0.08323,0.0905,0.6987,0.6083,1.4649,2.1487,0.6838,A,0.27
26,0.49938,1.2,2,0.57429,0.3246,1.07367,26,2.81318,-0.31,-0.15814,0.34124,5,1D2U,2.0,False,0.85,0,False,right,0.16646,2.2318,2.8401,0.6083,0.357,1.2902,0.9332,A,0.27
27,0.49938,0.1,2,0.40783,0.34957,0.70746,27,2.54685,0.17,0.08323,0.58261,5,2D1U,2.0,True,0.424,0,False,right,-0.08323,1.5805,2.4387,0.8583,0.3141,1.0054,0.6914,A,0.275
28,0.49938,1.2,2,0.31627,0.30795,0.69913,28,2.77155,0.9,0.44944,0.94882,5,lapse_rate,2.0,True,0.392,0,False,right,0.16646,1.6013,2.8179,1.2167,0.101,1.0346,0.9336,A,0.27
29,0.49938,1.2,1,0.27466,0.22472,0.4328,29,2.38038,0.9,0.44944,0.94882,5,lapse_rate,2.0,False,0.524,0,False,right,-0.08323,0.1407,1.3576,1.2169,1.6989,2.3821,0.6832,A,0.27
30,0.49938,0.1,1,0.24969,0.40783,0.64919,30,2.11404,-0.39,-0.19143,0.30795,5,1D2U,2.0,True,0.375,1,True,right,0.16646,0.1157,0.698,0.5823,1.1317,2.0735,0.9417,A,0.275
31,0.49938,1.2,2,0.39118,0.38286,0.42447,31,2.23889,0.09,0.04162,0.541,5,2D1U,2.0,True,0.441,1,True,right,-0.08323,1.2716,2.0798,0.8082,0.2967,0.98,0.6833,A,0.27
32,0.49938,1.2,1,0.42447,0.25801,0.6159,32,2.33876,0.09,0.04162,0.541,5,2D1U,1.0,True,0.366,1,True,left,0.16646,0.2926,1.1006,0.808,1.5004,2.4421,0.9417,A,0.27
33,0.49938,0.1,2,0.29131,0.30795,0.69081,33,2.0974,-0.39,-0.19143,0.30795,5,1D2U,1.0,True,0.309,1,True,left,-0.08323,1.4476,2.0306,0.583,0.1974,0.8895,0.6921,A,0.275
34,0.49938,1.2,2,0.36621,0.25801,0.45777,34,1.60634,-0.95,-0.47441,0.02497,5,lapse_rate,1.0,True,0.334,0,False,left,0.16646,1.4054,1.7054,0.3,0.1471,1.0803,0.9332,A,0.27
35,0.49938,0.1,2,0.39118,0.39118,0.88224,35,2.48858,-0.35,-0.17478,0.3246,5,1D2U,2.0,False,0.275,2,True,right,-0.08323,1.7395,2.3395,0.6,0.2982,0.9893,0.6911,A,0.275
36,0.49938,1.2,2,0.34957,0.35789,0.57429,36,2.28883,0.01,0.00832,0.5077,5,2D1U,1.0,False,0.458,1,False,left,0.16646,1.51,2.285,0.775,0.135,1.0684,0.9334,A,0.27
37,0.49938,0.1,1,0.27466,0.3995,0.57429,37,1.7728,-0.95,-0.47441,0.02497,5,lapse_rate,2.0,True,0.333,0,False,right,-0.08323,0.1387,0.4385,0.2998,0.9217,1.613,0.6913,A,0.275
38,0.49938,1.2,1,0.41615,0.33292,0.56596,38,2.33876,0.05,0.02497,0.52435,5,2D1U,2.0,False,0.333,2,True,right,0.16646,0.284,1.0757,0.7917,1.4261,2.3675,0.9414,A,0.27
39,0.49938,0.1,1,0.24969,0.26634,0.81565,39,2.13901,-0.39,-0.19143,0.30795,5,1D2U,2.0,True,0.417,3,True,right,-0.08323,0.1132,0.6967,0.5835,1.4216,2.1136,0.692,A,0.275
40,0.49938,1.2,2,0.25801,0.36621,0.79069,40,2.86311,0.9,0.44944,0.94882,5,lapse_rate,2.0,True,0.291,0,False,right,0.16646,1.6302,2.8466,1.2164,0.0381,0.9716,0.9334,A,0.27
41,0.49938,0.1,2,0.22472,0.27466,0.6159,41,1.92261,-0.39,-0.19143,0.30795,5,1D2U,1.0,True,0.317,3,True,left,-0.08323,1.3058,1.8889,0.5832,0.1294,0.8221,0.6926,A,0.275
42,0.49938,1.2,1,0.3246,0.29131,0.62423,42,2.28052,0.09,0.04162,0.541,5,2D1U,2.0,False,0.113,2,False,right,0.16646,0.1899,0.9978,0.8079,1.4062,2.3394,0.9333,A,0.27
43,0.49938,0.1,2,0.25801,0.19975,0.73242,43,2.63838,0.9,0.44944,0.94882,5,lapse_rate,2.0,True,0.375,0,False,right,-0.08323,1.4537,2.6871,1.2334,0.1619,0.8536,0.6917,A,0.275
44,0.49938,1.2,2,0.3246,0.24969,0.56596,44,2.20559,0.13,0.06658,0.56596,5,2D1U,2.0,True,0.466,2,False,right,0.16646,1.4734,2.3066,0.8331,0.1061,1.04,0.9339,A,0.27
45,0.49938,1.2,2,0.4328,0.40783,0.80733,45,2.17231,-0.95,-0.47441,0.02497,5,lapse_rate,1.0,True,0.457,0,False,left,-0.08323,1.6987,1.9905,0.2918,0.3397,1.0238,0.6842,A,0.27
46,0.49938,0.1,2,0.44112,0.22472,0.56596,46,2.05578,-0.35,-0.17478,0.3246,5,1D2U,1.0,True,0.342,4,True,left,0.16646,1.6035,2.2108,0.6072,0.2279,1.1696,0.9417,A,0.275
47,0.49938,0.1,1,0.40783,0.22472,0.58261,47,2.03914,-0.35,-0.17478,0.3246,5,1D2U,2.0,True,0.491,4,True,right,-0.08323,0.2714,0.872,0.6006,1.3635,2.0634,0.6998,A,0.275
48,0.49938,1.2,1,0.66584,0.31627,0.84062,48,2.66335,-0.31,-0.15814,0.34124,5,1D2U,1.0,False,0.417,4,False,left,0.16646,0.5312,1.1392,0.6079,1.7641,2.6974,0.9333,A,0.27
49,0.49938,1.2,2,0.37454,0.41615,0.44112,49,2.29715,0.13,0.06658,0.56596,5,2D1U,2.0,True,0.424,2,False,right,-0.08323,1.2779,2.1114,0.8335,0.285,0.9694,0.6844,A,0.27
50,0.49938,0.1,2,0.29963,0.22472,0.49938,50,2.06411,0.09,0.04162,0.541,5,2D1U,2.0,True,0.35,3,True,right,0.16646,1.3954,2.2124,0.8169,0.0875,1.0285,0.941,A,0.275
51,0.49938,0.1,2,0.24137,0.33292,0.58261,51,2.19728,0.09,0.04162,0.541,5,2D1U,2.0,True,0.401,3,True,right,-0.08323,1.2889,2.1054,0.8165,0.1475,0.839,0.6915,A,0.275
52,0.49938,1.2,1,0.27466,0.26634,0.60758,52,1.97256,-0.35,-0.17478,0.3246,5,1D2U,2.0,True,0.408,5,True,right,0.16646,0.1386,0.7302,0.5916,1.122,2.055,0.933,A,0.27
53,0.49938,1.2,2,0.23304,0.27466,0.80733,53,2.33876,0.05,0.02497,0.52435,5,2D1U,2.0,True,0.376,3,False,right,-0.08323,1.502,2.2937,0.7917,0.1435,0.8272,0.6837,A,0.27
54,0.49938,0.1,1,0.40783,0.24137,0.62423,54,2.09741,-0.35,-0.17478,0.3246,5,1D2U,2.0,True,0.408,5,True,right,0.16646,0.2722,0.8717,0.5995,1.2799,2.2307,0.9508,A,0.275
55,0.49938,0.1,2,0.22472,0.27466,0.74075,55,2.08075,-0.31,-0.15814,0.34124,5,1D2U,1.0,True,0.367,6,True,left,-0.08323,1.4293,2.046,0.6167,0.1293,0.8208,0.6915,A,0.275
56,0.49938,1.2,1,0.38286,0.34957,0.59926,56,2.35542,0.05,0.02497,0.52435,5,2D1U,2.0,False,0.375,3,False,right,0.16646,0.2465,1.0389,0.7924,1.4223,2.3556,0.9333,A,0.27
57,0.49938,1.2,1,0.37454,0.29963,0.4328,57,2.14735,0.09,0.04162,0.541,5,2D1U,2.0,False,0.392,4,True,right,-0.08323,0.2437,1.0521,0.8084,1.3941,2.0769,0.6828,A,0.27
58,0.49938,0.1,2,0.35789,0.4328,0.79901,58,2.43032,-0.31,-0.15814,0.34124,5,1D2U,1.0,True,0.242,6,True,left,0.16646,1.7535,2.3702,0.6167,0.1453,1.0874,0.9421,A,0.275
59,0.49938,0.1,2,0.30795,0.33292,0.54932,59,2.25553,0.13,0.06658,0.56596,5,2D1U,2.0,True,0.3,4,False,right,-0.08323,1.3248,2.1671,0.8423,0.2171,0.9091,0.692,A,0.275
60,0.49938,1.2,2,0.4328,0.24969,0.45777,60,2.2056,0.13,0.06658,0.56596,5,2D1U,1.0,False,0.475,4,False,left,0.16646,1.4724,2.3061,0.8337,0.2143,1.1467,0.9324,A,0.27
61,0.49938,1.2,2,0.22472,0.26634,0.84062,61,2.19727,-0.27,-0.13317,0.36621,5,1D2U,1.0,True,0.392,6,False,left,-0.08323,1.5239,2.1569,0.633,0.132,0.8153,0.6833,A,0.27
62,0.49938,0.1,2,0.40783,0.36621,0.59093,62,2.23056,-0.27,-0.13317,0.36621,5,1D2U,1.0,True,0.383,6,False,left,0.16646,1.5926,2.2344,0.6418,0.1928,1.1345,0.9417,A,0.275
63,0.49938,0.1,2,0.29131,0.24137,0.70746,63,2.32213,0.17,0.08323,0.58261,5,2D1U,2.0,True,0.416,4,False,right,-0.08323,1.4638,2.322,0.8581,0.1973,0.888,0.6908,A,0.275
64,0.49938,1.2,1,0.40783,0.41615,0.41615,64,2.32212,0.17,0.08323,0.58261,5,2D1U,1.0,True,0.333,4,False,left,0.16646,0.2774,1.1278,0.8504,1.3273,2.2611,0.9338,A,0.27
65,0.49938,1.2,1,0.41615,0.36621,0.49938,65,2.16398,-0.23,-0.11652,0.38286,5,1D2U,2.0,True,0.4,6,False,right,-0.08323,0.2805,0.9305,0.65,1.3388,2.0222,0.6833,A,0.27
66,0.49938,0.1,2,0.34124,0.31627,0.46609,66,2.00584,-0.23,-0.11652,0.38286,5,1D2U,1.0,True,0.383,6,False,left,0.16646,1.3964,2.0626,0.6662,0.121,1.0626,0.9417,A,0.275
67,0.49938,0.1,2,0.39118,0.29963,0.55764,67,2.31379,0.13,0.06658,0.56596,5,2D1U,2.0,True,0.325,5,True,right,-0.08323,1.4196,2.2612,0.8416,0.3029,0.9948,0.6919,A,0.275
68,0.49938,1.2,2,0.24137,0.29131,0.4328,68,2.03082,0.13,0.06658,0.56596,5,2D1U,2.0,True,0.708,5,True,right,0.16646,1.2597,2.0932,0.8335,0.0265,0.9598,0.9333,A,0.27
69,0.49938,1.2,1,0.41615,0.31627,0.79069,69,2.43032,-0.19,-0.09155,0.40783,5,1D2U,2.0,True,0.475,6,False,right,-0.08323,0.2844,0.9594,0.675,1.66,2.3429,0.6828,A,0.27
70,0.49938,0.1,1,0.41615,0.44112,0.79069,70,2.55517,-0.19,-0.09155,0.40783,5,1D2U,1.0,False,0.341,6,False,left,0.16646,0.2833,0.9667,0.6835,1.5424,2.4835,0.9411,A,0.275
71,0.49938,0.1,1,0.28298,0.2164,0.85727,71,2.39703,0.09,0.04162,0.541,5,2D1U,2.0,False,0.45,5,False,right,-0.08323,0.1499,0.9663,0.8164,1.7329,2.4253,0.6924,A,0.275
72,0.49938,1.2,2,0.24137,0.22472,0.69081,72,2.03914,-0.23,-0.11652,0.38286,5,1D2U,2.0,False,0.475,7,True,right,0.16646,1.5121,2.1709,0.6588,0.0205,0.954,0.9336,A,0.27
73,0.49938,1.2,2,0.23304,0.37454,0.84062,73,2.51354,0.13,0.06658,0.56596,5,2D1U,2.0,True,0.358,6,True,right,-0.08323,1.5316,2.3652,0.8336,0.1404,0.8233,0.6829,A,0.27
74,0.49938,0.1,2,0.29963,0.27466,0.40783,74,2.04746,0.13,0.06658,0.56596,5,2D1U,1.0,False,0.375,6,True,left,0.16646,1.3018,2.1513,0.8494,0.0849,1.0266,0.9417,A,0.275
75,0.49938,0.1,2,0.20808,0.28298,0.80733,75,2.16398,-0.27,-0.13317,0.36621,5,1D2U,1.0,True,0.417,7,False,left,-0.08323,1.4861,2.1274,0.6413,0.1194,0.8119,0.6924,A,0.275
76,0.49938,1.2,1,0.29131,0.38286,0.84895,76,2.38871,-0.27,-0.13317,0.36621,5,1D2U,2.0,True,0.466,7,False,right,0.16646,0.1567,0.7895,0.6328,1.4229,2.3564,0.9335,A,0.27
77,0.49938,1.2,1,0.42447,0.29131,0.86559,77,2.66336,0.17,0.08323,0.58261,5,2D1U,2.0,False,0.574,6,False,right,-0.08323,0.2878,1.1374,0.8496,1.913,2.5963,0.6834,A,0.27
78,0.49938,0.1,2,0.25801,0.4328,0.41615,78,1.9892,-0.23,-0.11652,0.38286,5,1D2U,1.0,True,0.441,8,True,left,0.16646,1.2659,1.9244,0.6586,0.0416,0.9826,0.9409,A,0.275
79,0.49938,0.1,2,0.27466,0.34957,0.8323,79,2.33877,-0.23,-0.11652,0.38286,5,1D2U,1.0,True,0.408,8,True,left,-0.08323,1.5725,2.2304,0.6579,0.1805,0.8717,0.6913,A,0.275
80,0.49938,1.2,1,0.62423,0.31627,1.06535,80,2.91306,-0.19,-0.09155,0.40783,5,1D2U,1.0,False,0.5,8,False,left,0.16646,0.4907,1.1652,0.6744,2.0161,2.9487,0.9326,A,0.27
81,0.49938,1.2,2,0.28298,0.3995,0.87392,81,2.66336,0.21,0.1082,0.60758,5,2D1U,2.0,True,0.45,6,False,right,-0.08323,1.6174,2.4927,0.8753,0.1924,0.8751,0.6826,A,0.27
82,0.49938,0.1,2,0.28298,0.24137,0.69913,82,2.10572,-0.23,-0.11652,0.38286,5,1D2U,1.0,True,0.458,9,True,left,0.16646,1.5772,2.2359,0.6587,0.0694,1.0109,0.9415,A,0.275
83,0.49938,0.1,2,0.40783,0.24969,0.71578,83,2.25554,-0.23,-0.11652,0.38286,5,1D2U,1.0,True,0.417,9,True,left,-0.08323,1.588,2.2464,0.6584,0.3126,1.0047,0.6921,A,0.275
84,0.49938,1.2,2,0.31627,0.44944,1.29007,84,3.16274,0.21,0.1082,0.60758,5,2D1U,2.0,True,0.291,6,False,right,0.16646,2.1928,3.0676,0.8748,0.1011,1.0344,0.9333,A,0.27
85,0.49938,1.2,2,0.36621,0.3995,0.60758,85,2.2805,-0.19,-0.09155,0.40783,5,1D2U,1.0,True,0.35,10,True,left,-0.08323,1.4307,2.1062,0.6755,0.2733,0.9562,0.6829,A,0.27
86,0.49938,0.1,1,0.25801,0.31627,0.55764,86,2.03913,-0.19,-0.09155,0.40783,5,1D2U,2.0,True,0.391,10,True,right,0.16646,0.1291,0.8127,0.6837,1.1538,2.1045,0.9507,A,0.275
87,0.49938,0.1,2,0.31627,0.38286,0.44944,87,2.07242,-0.15,-0.07491,0.42447,5,1D2U,2.0,False,0.517,10,False,right,-0.08323,1.2302,1.9305,0.7003,0.2227,0.9133,0.6906,A,0.275
88,0.49938,1.2,1,0.44944,0.42447,0.74907,88,2.70497,0.17,0.08323,0.58261,5,2D1U,1.0,True,0.341,7,True,left,0.16646,0.3145,1.1657,0.8512,1.6984,2.632,0.9337,A,0.27
89,0.49938,1.2,2,0.22472,0.25801,0.89889,89,2.28883,-0.19,-0.09155,0.40783,5,1D2U,1.0,True,0.45,11,True,left,-0.08323,1.5812,2.2561,0.6749,0.1314,0.8147,0.6833,A,0.27
90,0.49938,0.1,2,0.63255,0.30795,0.63255,90,2.48026,-0.19,-0.09155,0.40783,5,1D2U,1.0,True,0.408,11,True,left,0.16646,1.8607,2.5441,0.6834,0.4191,1.3609,0.9418,A,0.275
91,0.49938,0.1,1,0.28298,0.22472,0.70746,91,2.29715,0.17,0.08323,0.58261,5,2D1U,2.0,False,0.4,7,True,right,-0.08323,0.1517,1.0101,0.8585,1.6271,2.3266,0.6995,A,0.275
92,0.49938,1.2,1,0.44112,0.4328,0.45777,92,2.25554,-0.15,-0.07491,0.42447,5,1D2U,2.0,True,0.383,12,True,right,0.16646,0.3086,0.9999,0.6912,1.2417,2.1747,0.933,A,0.27
93,0.49938,1.2,2,0.29131,0.41615,0.56596,93,2.38038,0.21,0.1082,0.60758,5,2D1U,2.0,True,0.376,8,True,right,-0.08323,1.3187,2.1939,0.8752,0.2021,0.885,0.6829,A,0.27
94,0.49938,0.1,2,0.3246,0.28298,0.89056,94,2.42199,-0.15,-0.07491,0.42447,5,1D2U,1.0,True,1.117,12,True,left,0.16646,1.8059,2.5058,0.6998,0.1056,1.0471,0.9415,A,0.275
95,0.49938,0.1,2,0.34957,0.29963,0.69081,95,2.44697,0.21,0.1082,0.60758,5,2D1U,2.0,True,0.275,8,True,right,-0.08323,1.5034,2.3873,0.8839,0.254,0.9457,0.6917,A,0.275
96,0.49938,1.2,1,0.35789,0.23304,0.63255,96,2.16398,-0.11,-0.05826,0.44112,5,1D2U,1.0,False,0.4,12,False,left,0.16646,0.2225,0.9298,0.7073,1.3473,2.2804,0.9331,A,0.27
97,0.49938,1.2,1,0.20808,0.37454,0.76572,97,2.43033,0.17,0.08323,0.58261,5,2D1U,1.0,True,0.408,9,True,left,-0.08323,0.0731,0.9227,0.8496,1.5979,2.2809,0.683,A,0.27
98,0.49938,0.1,1,0.42447,0.40783,0.6159,98,2.53019,0.17,0.08323,0.58261,5,2D1U,1.0,True,0.342,9,True,left,0.16646,0.2893,1.1473,0.858,1.5473,2.4891,0.9418,A,0.275
99,0.49938,0.1,1,0.33292,0.3246,0.89056,99,2.47193,-0.15,-0.07491,0.42447,5,1D2U,2.0,True,0.375,13,True,right,-0.08323,0.2033,0.9031,0.6998,1.7032,2.3945,0.6913,A,0.275
100,0.49938,1.2,1,0.39118,0.24969,0.49938,100,2.20559,0.13,0.06658,0.56596,5,2D1U,1.0,True,0.416,9,False,left,0.16646,0.2558,1.0891,0.8333,1.3728,2.3144,0.9416,A,0.27
101,0.49938,1.2,1,0.3246,0.29131,0.73242,101,2.41367,0.13,0.06658,0.56596,5,2D1U,2.0,False,0.433,9,False,right,-0.08323,0.1947,1.0279,0.8332,1.6696,2.3532,0.6836,A,0.27
102,0.49938,0.1,1,0.34124,0.30795,0.42447,102,1.99751,-0.15,-0.07491,0.42447,5,1D2U,2.0,True,0.308,13,True,right,0.16646,0.205,0.9049,0.7,1.1139,2.0636,0.9497,A,0.275
103,0.49938,0.1,1,0.4328,0.24969,0.77404,103,2.53852,0.17,0.08323,0.58261,5,2D1U,2.0,False,0.359,10,True,right,-0.08323,0.2984,1.1563,0.8579,1.8401,2.5318,0.6917,A,0.275
104,0.49938,1.2,1,0.44112,0.29131,0.40783,104,2.08076,-0.11,-0.05826,0.44112,5,1D2U,2.0,True,0.509,14,True,right,0.16646,0.3033,1.0119,0.7086,1.2038,2.1373,0.9334,A,0.27
105,0.49938,1.2,1,0.34957,0.23304,0.79901,105,2.32212,-0.11,-0.05826,0.44112,5,1D2U,1.0,False,0.425,14,True,left,-0.08323,0.2191,0.9273,0.7082,1.6359,2.3184,0.6824,A,0.27
106,0.49938,0.1,1,0.3246,0.3995,0.59093,106,2.42199,0.21,0.1082,0.60758,5,2D1U,1.0,True,0.275,10,False,left,0.16646,0.1867,1.0699,0.8832,1.445,2.3866,0.9416,A,0.275
107,0.49938,0.1,1,0.36621,0.44944,0.63255,107,2.55516,0.21,0.1082,0.60758,5,2D1U,1.0,True,0.433,10,False,left,-0.08323,0.2339,1.1173,0.8834,1.6589,2.3506,0.6917,A,0.275
108,0.49938,1.2,1,0.30795,0.28298,0.76572,108,2.2805,-0.15,-0.07491,0.42447,5,1D2U,1.0,False,0.383,15,True,left,0.16646,0.1714,0.8631,0.6916,1.4131,2.3463,0.9332,A,0.27
109,0.49938,1.2,1,0.36621,0.33292,0.40783,109,2.01417,-0.19,-0.09155,0.40783,5,1D2U,2.0,True,0.408,15,False,right,-0.08323,0.2294,0.9045,0.6751,1.2213,1.9044,0.6831,A,0.27
110,0.49938,0.1,2,0.34957,0.36621,0.59093,110,2.3887,0.17,0.08323,0.58261,5,2D1U,2.0,True,0.375,11,True,right,0.16646,1.5339,2.3922,0.8583,0.1339,1.0756,0.9416,A,0.275
111,0.49938,0.1,2,0.40783,0.28298,0.88224,111,2.65504,0.17,0.08323,0.58261,5,2D1U,2.0,True,0.334,11,True,right,-0.08323,1.7572,2.6147,0.8576,0.3148,1.0065,0.6917,A,0.275
112,0.49938,1.2,1,0.3995,0.38286,0.44112,112,2.13069,-0.19,-0.09155,0.40783,5,1D2U,2.0,True,0.383,15,False,right,0.16646,0.2651,0.9394,0.6743,1.1646,2.0977,0.933,A,0.27
113,0.49938,1.2,1,0.24137,0.35789,0.7241,113,2.24721,-0.15,-0.07491,0.42447,5,1D2U,1.0,False,0.408,16,True,left,-0.08323,0.1058,0.7974,0.6916,1.4309,2.114,0.6831,A,0.27
114,0.49938,0.1,2,0.4328,0.29963,0.59926,114,2.2389,-0.19,-0.09155,0.40783,5,1D2U,1.0,True,0.417,17,True,left,0.16646,1.6251,2.3167,0.6916,0.2169,1.1586,0.9417,A,0.275
115,0.49938,0.1,1,0.20808,0.30795,0.45777,115,2.03914,0.13,0.06658,0.56596,5,2D1U,1.0,True,0.35,11,False,left,-0.08323,0.0756,0.9171,0.8416,1.2839,1.9759,0.692,A,0.275
116,0.49938,1.2,1,0.42447,0.30795,1.0487,116,2.84646,0.13,0.06658,0.56596,5,2D1U,1.0,True,0.3,11,False,left,0.16646,0.2928,1.1264,0.8335,1.9595,2.8929,0.9333,A,0.27
117,0.49938,1.2,2,0.3995,0.3246,0.57429,117,2.33877,0.09,0.04162,0.541,5,2D1U,2.0,True,0.342,11,False,right,-0.08323,1.4311,2.2394,0.8083,0.3061,0.9894,0.6834,A,0.27
118,0.49938,0.1,2,0.3246,0.35789,1.28174,118,2.87144,-0.19,-0.09155,0.40783,5,1D2U,2.0,False,0.367,17,True,right,0.16646,2.2005,2.8838,0.6833,0.1089,1.0504,0.9415,A,0.275
119,0.49938,0.1,1,0.39118,0.36621,0.74907,119,2.3887,-0.23,-0.11652,0.38286,5,1D2U,2.0,True,0.292,17,False,right,-0.08323,0.2555,0.9137,0.6583,1.5721,2.2637,0.6916,A,0.275
120,0.49938,1.2,2,0.28298,0.25801,0.55764,120,1.98087,-0.23,-0.11652,0.38286,5,1D2U,1.0,True,0.392,17,False,left,0.16646,1.4264,2.0763,0.6499,0.0683,1.0015,0.9332,A,0.27
121,0.49938,1.2,1,0.30795,0.40783,0.79069,121,2.54685,0.09,0.04162,0.541,5,2D1U,2.0,False,0.367,11,False,right,-0.08323,0.1718,0.9799,0.8081,1.6801,2.3632,0.6831,A,0.27
122,0.49938,0.1,2,0.44112,0.3995,0.59093,122,2.49689,0.13,0.06658,0.56596,5,2D1U,2.0,True,0.292,12,True,right,0.16646,1.6216,2.4635,0.8418,0.2217,1.1636,0.9419,A,0.275
123,0.49938,0.1,1,0.29963,0.20808,0.89056,123,2.30548,-0.19,-0.09155,0.40783,5,1D2U,1.0,False,0.384,18,True,left,-0.08323,0.1628,0.8462,0.6834,1.646,2.3376,0.6916,A,0.275
124,0.49938,1.2,1,0.42447,0.22472,0.79069,124,2.32212,-0.23,-0.11652,0.38286,5,1D2U,2.0,True,0.392,19,True,right,0.16646,0.2917,0.9416,0.6499,1.5165,2.45,0.9334,A,0.27
125,0.49938,1.2,2,0.40783,0.29131,0.63255,125,2.21393,-0.23,-0.11652,0.38286,5,1D2U,2.0,False,0.409,19,True,right,-0.08323,1.4961,2.1456,0.6495,0.3126,0.9956,0.6829,A,0.27
126,0.49938,0.1,2,0.3995,0.22472,0.76572,126,2.25553,-0.27,-0.13317,0.36621,5,1D2U,1.0,True,0.425,19,False,left,0.16646,1.7543,2.3959,0.6416,0.1793,1.1209,0.9416,A,0.275
127,0.49938,0.1,1,0.28298,0.37454,0.57429,127,2.29715,0.13,0.06658,0.56596,5,2D1U,1.0,True,0.367,12,True,left,-0.08323,0.1463,0.988,0.8418,1.4716,2.163,0.6914,A,0.275
128,0.49938,1.2,2,0.31627,0.34124,0.64919,128,2.34708,0.09,0.04162,0.541,5,2D1U,2.0,True,0.3,13,True,right,0.16646,1.5465,2.3604,0.8138,0.0964,1.0299,0.9334,A,0.27
129,0.49938,1.2,2,0.23304,0.37454,0.7241,129,2.19727,-0.27,-0.13317,0.36621,5,1D2U,1.0,True,0.425,19,False,left,-0.08323,1.4113,2.0447,0.6334,0.1363,0.82,0.6837,A,0.27
130,0.49938,0.1,1,0.4328,0.33292,0.52435,130,2.33045,0.09,0.04162,0.541,5,2D1U,1.0,True,0.4,13,True,left,0.16646,0.3024,1.1192,0.8168,1.4275,2.3691,0.9416,A,0.275
131,0.49938,0.1,2,0.24137,0.23304,0.75739,131,2.25553,0.05,0.02497,0.52435,5,2D1U,1.0,False,0.392,13,False,left,-0.08323,1.4631,2.263,0.7999,0.1465,0.8383,0.6918,A,0.275
132,0.49938,1.2,1,0.27466,0.29963,0.74075,132,2.19728,-0.23,-0.11652,0.38286,5,1D2U,2.0,True,0.367,20,True,right,0.16646,0.1385,0.7882,0.6497,1.3131,2.2469,0.9338,A,0.27
133,0.49938,1.2,2,0.35789,0.26634,0.4328,133,2.09741,0.09,0.04162,0.541,5,2D1U,2.0,True,0.392,14,True,right,-0.08323,1.247,2.0556,0.8086,0.2637,0.9472,0.6835,A,0.27
134,0.49938,0.1,1,0.44944,0.42447,0.80733,134,2.72162,0.09,0.04162,0.541,5,2D1U,2.0,False,0.358,14,True,right,0.16646,0.3113,1.1279,0.8166,1.7196,2.6613,0.9417,A,0.275
135,0.49938,0.1,2,0.29963,0.22472,0.70746,135,2.11405,-0.23,-0.11652,0.38286,5,1D2U,1.0,True,0.375,20,True,left,-0.08323,1.4739,2.1315,0.6576,0.2064,0.898,0.6916,A,0.275
136,0.49938,1.2,2,0.44944,0.3995,0.8323,136,2.58845,-0.19,-0.09155,0.40783,5,1D2U,2.0,False,0.366,20,False,right,0.16646,1.8642,2.5385,0.6743,0.2305,1.1638,0.9333,A,0.27
137,0.49938,1.2,2,0.23304,0.34957,0.52435,137,2.1723,0.13,0.06658,0.56596,5,2D1U,1.0,False,0.359,14,False,left,-0.08323,1.218,2.0519,0.8339,0.1433,0.827,0.6836,A,0.27
138,0.49938,0.1,2,0.35789,0.44944,0.59093,138,2.48025,0.17,0.08323,0.58261,5,2D1U,2.0,True,0.375,14,False,right,0.16646,1.5382,2.3959,0.8577,0.1382,1.0799,0.9417,A,0.275
139,0.49938,0.1,2,0.3995,0.2164,0.40783,139,1.90597,-0.23,-0.11652,0.38286,5,1D2U,1.0,True,0.316,21,True,left,-0.08323,1.2735,1.9401,0.6665,0.3068,0.9982,0.6914,A,0.275
140,0.49938,1.2,2,0.4328,0.4328,0.79069,140,2.73828,0.17,0.08323,0.58261,5,2D1U,2.0,True,0.342,14,False,right,0.16646,1.8087,2.6592,0.8505,0.2175,1.1509,0.9333,A,0.27
141,0.49938,1.2,1,0.36621,0.40783,0.84895,141,2.50523,-0.23,-0.11652,0.38286,5,1D2U,2.0,True,0.283,21,True,right,-0.08323,0.2361,0.8854,0.6492,1.6446,2.3278,0.6832,A,0.27
142,0.49938,0.1,2,0.34957,0.27466,0.49106,142,2.18063,0.13,0.06658,0.56596,5,2D1U,1.0,False,0.325,15,True,left,0.16646,1.4346,2.2767,0.8421,0.1352,1.0768,0.9416,A,0.275
143,0.49938,0.1,1,0.24137,0.44112,0.75739,143,2.52187,0.17,0.08323,0.58261,5,2D1U,1.0,True,0.409,16,True,left,-0.08323,0.1078,0.9661,0.8583,1.6329,2.324,0.691,A,0.275
144,0.49938,1.2,1,0.24969,0.22472,0.51603,144,1.89765,-0.19,-0.09155,0.40783,5,1D2U,2.0,True,0.325,22,True,right,0.16646,0.1129,0.788,0.6751,1.0879,2.0295,0.9416,A,0.27
145,0.49938,1.2,2,0.24969,0.27466,0.74075,145,2.34709,0.17,0.08323,0.58261,5,2D1U,1.0,False,0.45,16,True,left,-0.08323,1.4491,2.2996,0.8505,0.1586,0.8409,0.6822,A,0.27
146,0.49938,0.1,2,0.30795,0.541,1.21516,146,3.17107,0.21,0.1082,0.60758,5,2D1U,2.0,True,0.384,16,False,right,0.16646,2.1193,3.0031,0.8838,0.095,1.0364,0.9414,A,0.275
147,0.49938,0.1,1,0.23304,0.3995,0.87392,147,2.41367,-0.19,-0.09155,0.40783,5,1D2U,2.0,True,0.334,22,True,right,-0.08323,0.0968,0.7808,0.684,1.5637,2.2555,0.6918,A,0.275
148,0.49938,1.2,2,0.29963,0.34957,0.54932,148,2.12237,-0.15,-0.07491,0.42447,5,1D2U,1.0,True,0.392,22,False,left,0.16646,1.4326,2.1247,0.6921,0.0835,1.0165,0.933,A,0.27
149,0.49938,1.2,2,0.34957,0.39118,0.76572,149,2.61343,0.21,0.1082,0.60758,5,2D1U,2.0,True,0.359,16,False,right,-0.08323,1.5739,2.4488,0.8749,0.2578,0.9405,0.6827,A,0.27
150,0.49938,0.1,1,0.34124,0.34124,0.70746,150,2.31379,-0.15,-0.07491,0.42447,5,1D2U,2.0,True,0.366,22,False,right,0.16646,0.2054,0.9059,0.7005,1.3973,2.3387,0.9414,A,0.275
151,0.49938,0.1,1,0.28298,0.39118,0.66584,151,2.42199,0.17,0.08323,0.58261,5,2D1U,1.0,True,0.292,17,True,left,-0.08323,0.1528,1.011,0.8581,1.5861,2.2778,0.6916,A,0.275
152,0.49938,1.2,1,0.34957,0.31627,0.69081,152,2.43864,0.17,0.08323,0.58261,5,2D1U,1.0,True,0.367,17,True,left,0.16646,0.2176,1.0676,0.85,1.5428,2.4843,0.9415,A,0.27
153,0.49938,1.2,1,0.27466,0.34957,0.54932,153,2.11405,-0.11,-0.05826,0.44112,5,1D2U,2.0,True,0.317,22,False,right,-0.08323,0.1444,0.8526,0.7082,1.3114,1.9941,0.6827,A,0.27
154,0.49938,0.1,1,0.36621,0.34957,0.69913,154,2.48025,0.13,0.06658,0.56596,5,2D1U,1.0,True,0.3,17,False,left,0.16646,0.2354,1.0775,0.8421,1.5607,2.5019,0.9412,A,0.275
155,0.49938,0.1,2,0.38286,0.22472,0.42447,155,2.09739,0.13,0.06658,0.56596,5,2D1U,2.0,True,0.392,17,False,right,-0.08323,1.2726,2.1226,0.8499,0.2894,0.981,0.6916,A,0.275
156,0.49938,1.2,2,0.34957,0.29131,0.64919,156,2.23057,-0.11,-0.05826,0.44112,5,1D2U,1.0,True,0.358,22,False,left,0.16646,1.5806,2.2889,0.7083,0.1307,1.064,0.9333,A,0.27
157,0.49938,1.2,2,0.29131,0.33292,0.66584,157,2.33045,0.09,0.04162,0.541,5,2D1U,2.0,True,0.35,17,False,right,-0.08323,1.4145,2.2224,0.8079,0.1984,0.8817,0.6832,A,0.27
158,0.49938,0.1,2,0.33292,0.35789,0.79069,158,2.44697,-0.07,-0.03329,0.46609,5,1D2U,1.0,True,0.113,22,False,left,0.16646,1.7127,2.4553,0.7426,0.1128,1.0551,0.9424,A,0.275
159,0.49938,0.1,2,0.30795,0.41615,0.64919,159,2.41367,0.09,0.04162,0.541,5,2D1U,2.0,True,0.367,17,False,right,-0.08323,1.4222,2.2389,0.8166,0.2135,0.9053,0.6917,A,0.275
160,0.49938,1.2,1,0.4328,0.35789,0.78236,160,2.59678,0.05,0.02497,0.52435,5,2D1U,1.0,True,0.309,17,False,left,0.16646,0.3016,1.0932,0.7917,1.66,2.5932,0.9332,A,0.27
161,0.49938,1.2,1,0.20808,0.34957,0.53267,161,2.05579,-0.07,-0.03329,0.46609,5,1D2U,2.0,True,0.367,22,False,right,-0.08323,0.0763,0.8096,0.7333,1.2514,1.9342,0.6828,A,0.27
162,0.49938,0.1,1,0.30795,0.39118,0.86559,162,2.58845,0.05,0.02497,0.52435,5,2D1U,2.0,False,0.509,17,False,right,0.16646,0.1777,0.9777,0.8,1.6277,2.5691,0.9414,A,0.275
163,0.49938,0.1,2,0.26634,0.44944,0.49106,163,2.24722,0.09,0.04162,0.541,5,2D1U,2.0,True,0.525,18,True,right,-0.08323,1.2225,2.0392,0.8166,0.1727,0.8644,0.6917,A,0.275
164,0.49938,1.2,2,0.31627,0.36621,0.4328,164,2.09739,-0.03,-0.01665,0.48273,5,1D2U,1.0,True,0.317,22,False,left,0.16646,1.3303,2.0803,0.75,0.0971,1.0303,0.9332,A,0.27
165,0.49938,1.2,2,0.27466,0.24137,0.42447,165,1.98088,0.09,0.04162,0.541,5,2D1U,2.0,True,0.483,18,True,right,-0.08323,1.1598,1.9684,0.8086,0.1845,0.8677,0.6832,A,0.27
166,0.49938,0.1,2,0.4328,0.38286,0.79901,166,2.6384,0.05,0.02497,0.52435,5,2D1U,2.0,True,0.526,19,True,right,0.16646,1.82,2.62,0.8001,0.2112,1.153,0.9418,A,0.275
167,0.49938,0.1,1,0.19975,0.33292,0.57429,167,2.08907,-0.03,-0.01665,0.48273,5,1D2U,2.0,True,0.334,22,False,right,-0.08323,0.0649,0.8227,0.7579,1.3067,1.9983,0.6916,A,0.275
168,0.49938,1.2,2,0.30795,0.57429,0.91553,168,2.8215,0.05,0.02497,0.52435,5,2D1U,1.0,False,0.267,19,True,left,0.16646,1.8115,2.604,0.7925,0.0953,1.0282,0.9329,A,0.27
169,0.49938,1.2,2,0.37454,0.27466,0.89889,169,2.55517,0.01,0.00832,0.5077,5,1D2U,2.0,True,0.375,22,False,right,-0.08323,1.7351,2.5105,0.7754,0.2853,0.9687,0.6834,A,0.27
170,0.49938,0.1,2,0.26634,0.22472,0.64087,170,2.11404,-0.03,-0.01665,0.48273,5,1D2U,1.0,True,0.425,23,True,left,0.16646,1.4993,2.2576,0.7583,0.049,0.9912,0.9422,A,0.275
171,0.49938,0.1,2,0.42447,0.24969,0.52435,171,2.23889,0.09,0.04162,0.541,5,2D1U,2.0,True,0.458,20,True,right,-0.08323,1.4186,2.2354,0.8169,0.3354,1.0273,0.6919,A,0.275
172,0.49938,1.2,1,0.34124,0.24969,0.44112,172,2.01416,-0.03,-0.01665,0.48273,5,1D2U,2.0,True,0.392,23,True,right,0.16646,0.2084,0.9581,0.7497,1.183,2.1165,0.9335,A,0.27
173,0.49938,1.2,1,0.42447,0.27466,0.84895,173,2.58846,0.09,0.04162,0.541,5,2D1U,1.0,True,0.384,20,True,left,-0.08323,0.2894,1.0977,0.8083,1.8561,2.5394,0.6833,A,0.27
174,0.49938,0.1,1,0.42447,0.34124,0.55764,174,2.33043,0.01,0.00832,0.5077,5,1D2U,1.0,True,0.267,24,True,left,0.16646,0.2941,1.077,0.783,1.4184,2.3604,0.942,A,0.275
175,0.49938,0.1,2,0.27466,0.36621,0.57429,175,2.23889,0.05,0.02497,0.52435,5,2D1U,2.0,True,0.408,21,True,right,-0.08323,1.3143,2.1144,0.8001,0.1809,0.8726,0.6916,A,0.275
176,0.49938,1.2,1,0.31627,0.23304,0.74075,176,2.27217,-0.03,-0.01665,0.48273,5,1D2U,1.0,False,0.458,25,True,left,0.16646,0.1814,0.9318,0.7504,1.4565,2.39,0.9335,A,0.27
177,0.49938,1.2,1,0.40783,0.26634,0.44112,177,2.13902,0.05,0.02497,0.52435,5,2D1U,1.0,True,0.35,21,True,left,-0.08323,0.2736,1.0658,0.7922,1.4153,2.0981,0.6828,A,0.27
178,0.49938,0.1,2,0.3995,0.4328,0.85727,178,2.69665,0.01,0.00832,0.5077,5,2D1U,1.0,False,0.291,21,False,left,0.16646,1.851,2.6346,0.7836,0.1847,1.1257,0.9411,A,0.275
179,0.49938,0.1,2,0.30795,0.31627,0.5077,179,2.09739,-0.07,-0.03329,0.46609,5,1D2U,1.0,True,0.592,25,False,left,-0.08323,1.2865,2.0282,0.7417,0.22,0.9116,0.6917,A,0.275
180,0.49938,1.2,2,0.30795,0.64087,1.09031,180,3.06286,0.05,0.02497,0.52435,5,2D1U,2.0,True,0.433,22,True,right,0.16646,1.9804,2.772,0.7917,0.089,1.022,0.933,A,0.27
181,0.49938,1.2,1,0.23304,0.34124,0.53267,181,2.13068,0.05,0.02497,0.52435,5,2D1U,1.0,True,0.408,22,True,left,-0.08323,0.1009,0.8925,0.7916,1.3345,2.0179,0.6835,A,0.27
182,0.49938,0.1,2,0.35789,0.31627,0.44112,182,2.08075,-0.07,-0.03329,0.46609,5,1D2U,1.0,True,0.376,25,False,left,0.16646,1.3873,2.128,0.7407,0.1366,1.0787,0.9421,A,0.275
183,0.49938,0.1,2,0.24137,0.38286,0.74907,183,2.38038,0.01,0.00832,0.5077,5,2D1U,2.0,True,0.383,23,True,right,-0.08323,1.4614,2.2447,0.7833,0.153,0.8442,0.6913,A,0.275
184,0.49938,1.2,2,0.26634,0.27466,0.44944,184,1.97255,-0.03,-0.01665,0.48273,5,1D2U,1.0,True,0.383,26,True,left,0.16646,1.3019,2.0512,0.7493,0.0515,0.9851,0.9336,A,0.27
185,0.49938,1.2,1,0.34957,0.31627,0.64087,185,2.31379,0.01,0.00832,0.5077,5,2D1U,2.0,False,0.417,23,True,right,-0.08323,0.2177,0.9927,0.775,1.5427,2.2261,0.6834,A,0.27
186,0.49938,0.1,2,0.24137,0.37454,0.69913,186,2.29715,-0.03,-0.01665,0.48273,5,1D2U,2.0,False,0.433,26,True,right,0.16646,1.5356,2.2936,0.758,0.0267,0.9691,0.9424,A,0.275
187,0.49938,0.1,2,0.30795,0.23304,0.78236,187,2.28882,-0.07,-0.03329,0.46609,5,1D2U,1.0,True,0.383,27,True,left,-0.08323,1.5554,2.2972,0.7418,0.2137,0.9055,0.6918,A,0.275
188,0.49938,1.2,2,0.36621,0.25801,0.60758,188,2.19727,-0.07,-0.03329,0.46609,5,1D2U,2.0,False,0.133,27,True,right,0.16646,1.5607,2.3024,0.7418,0.1529,1.0864,0.9336,A,0.27
189,0.49938,1.2,2,0.25801,0.30795,0.89889,189,2.48858,0.05,0.02497,0.52435,5,2D1U,1.0,False,0.375,24,True,left,-0.08323,1.6132,2.405,0.7918,0.1636,0.8467,0.683,A,0.27
190,0.49938,0.1,2,0.44112,0.27466,0.53267,190,2.28883,0.09,0.04162,0.541,5,2D1U,1.0,False,0.317,24,False,left,0.16646,1.5633,2.3801,0.8167,0.2218,1.1636,0.9417,A,0.275
191,0.49938,0.1,2,0.35789,0.36621,0.41615,191,2.08075,-0.11,-0.05826,0.44112,5,1D2U,1.0,True,0.316,27,False,left,-0.08323,1.2383,1.9552,0.7169,0.2636,0.9549,0.6913,A,0.275
192,0.49938,1.2,2,0.40783,0.26634,0.84895,192,2.58846,0.13,0.06658,0.56596,5,2D1U,2.0,True,0.292,24,False,right,0.16646,1.8445,2.6865,0.842,0.1951,1.1281,0.933,A,0.27
193,0.49938,1.2,2,0.38286,0.41615,0.66584,193,2.40535,-0.11,-0.05826,0.44112,5,1D2U,2.0,False,0.359,27,False,right,-0.08323,1.5059,2.2144,0.7085,0.2894,0.9725,0.6832,A,0.27
194,0.49938,0.1,1,0.3246,0.58261,1.09864,194,2.9297,-0.15,-0.07491,0.42447,5,1D2U,2.0,True,0.425,27,False,right,0.16646,0.1899,0.8907,0.7007,1.7737,2.7156,0.9419,A,0.275
195,0.49938,0.1,1,0.29131,0.33292,0.74075,195,2.28883,-0.15,-0.07491,0.42447,5,1D2U,1.0,False,0.467,27,False,left,-0.08323,0.1546,0.8546,0.7,1.505,2.1966,0.6915,A,0.275
196,0.49938,1.2,2,0.34124,0.44112,0.48273,196,2.33043,0.13,0.06658,0.56596,5,2D1U,2.0,True,0.316,24,False,right,0.16646,1.4097,2.243,0.8333,0.1263,1.0592,0.9329,A,0.27
197,0.49938,1.2,2,0.31627,0.28298,0.8323,197,2.33876,-0.19,-0.09155,0.40783,5,1D2U,1.0,True,0.674,27,False,left,-0.08323,1.6068,2.2819,0.6751,0.2233,0.9067,0.6834,A,0.27
198,0.49938,0.1,2,0.41615,0.24137,0.4328,198,2.1307,0.09,0.04162,0.541,5,2D1U,1.0,False,0.425,25,True,left,0.16646,1.44,2.2567,0.8167,0.1983,1.1401,0.9418,A,0.275
199,0.49938,0.1,2,0.33292,0.35789,0.89056,199,2.48858,-0.19,-0.09155,0.40783,5,1D2U,1.0,True,0.458,27,False,left,-0.08323,1.688,2.3712,0.6832,0.238,0.9296,0.6917,A,0.275
200,0.49938,1.2,1,0.42447,0.29131,0.85727,200,2.4969,-0.15,-0.07491,0.42447,5,1D2U,2.0,True,0.366,28,True,right,0.16646,0.2938,0.9864,0.6925,1.6279,2.5697,0.9417,A,0.27
201,0.49938,1.2,2,0.24137,0.29963,0.42447,201,2.03081,0.13,0.06658,0.56596,5,2D1U,2.0,True,0.359,26,True,right,-0.08323,1.126,1.9592,0.8332,0.1519,0.8343,0.6824,A,0.27
202,0.49938,0.1,1,0.26634,0.31627,0.87392,202,2.52187,0.13,0.06658,0.56596,5,2D1U,1.0,True,0.334,26,True,left,0.16646,0.1357,0.9773,0.8416,1.6358,2.5774,0.9416,A,0.275
203,0.49938,0.1,1,0.26634,0.24969,0.69081,203,2.24722,0.09,0.04162,0.541,5,2D1U,1.0,True,0.475,27,True,left,-0.08323,0.1317,0.9492,0.8176,1.5491,2.2407,0.6916,A,0.275
204,0.49938,1.2,2,0.24137,0.41615,0.59093,204,2.1723,-0.15,-0.07491,0.42447,5,1D2U,2.0,False,0.383,28,True,right,0.16646,1.4196,2.1112,0.6917,0.0282,0.9616,0.9334,A,0.27
205,0.49938,1.2,2,0.2164,0.34124,0.69081,205,2.28883,0.09,0.04162,0.541,5,2D1U,2.0,True,0.451,27,True,right,-0.08323,1.3689,2.1773,0.8084,0.1275,0.811,0.6835,A,0.27
206,0.49938,0.1,2,0.34124,0.39118,0.79901,206,2.43864,-0.19,-0.09155,0.40783,5,1D2U,1.0,True,0.25,29,True,left,0.16646,1.7303,2.4127,0.6824,0.1214,1.063,0.9416,A,0.275
207,0.49938,0.1,1,0.37454,0.24137,0.75739,207,2.39703,0.05,0.02497,0.52435,5,2D1U,1.0,True,0.982,27,False,left,-0.08323,0.2442,1.0439,0.7997,1.7104,2.4021,0.6916,A,0.275
208,0.49938,1.2,1,0.24137,0.29131,0.78236,208,2.33877,0.05,0.02497,0.52435,5,2D1U,2.0,False,0.301,27,False,right,0.16646,0.1045,0.896,0.7915,1.4629,2.3961,0.9333,A,0.27
209,0.49938,1.2,2,0.24137,0.24137,0.74907,209,2.13902,-0.19,-0.09155,0.40783,5,1D2U,1.0,True,0.334,29,True,left,-0.08323,1.45,2.1249,0.6749,0.1498,0.8325,0.6828,A,0.27
210,0.49938,0.1,2,0.34124,0.24137,0.88224,210,2.50523,0.09,0.04162,0.541,5,2D1U,1.0,False,0.416,28,True,left,0.16646,1.8124,2.6288,0.8165,0.1206,1.0624,0.9418,A,0.275
211,0.49938,0.1,1,0.29963,0.26634,0.74075,211,2.37206,0.13,0.06658,0.56596,5,2D1U,1.0,True,0.383,28,False,left,-0.08323,0.1661,1.0078,0.8417,1.6579,2.3494,0.6916,A,0.275
212,0.49938,1.2,1,0.23304,0.44112,0.75739,212,2.3554,-0.15,-0.07491,0.42447,5,1D2U,2.0,True,0.283,30,True,right,0.16646,0.1012,0.7931,0.6919,1.3346,2.2676,0.933,A,0.27
213,0.49938,1.2,1,0.19975,0.36621,0.49106,213,2.12236,0.13,0.06658,0.56596,5,2D1U,2.0,False,0.341,28,False,right,-0.08323,0.0677,0.9012,0.8335,1.3014,1.9842,0.6829,A,0.27
214,0.49938,0.1,1,0.41615,0.38286,0.51603,214,2.23889,-0.15,-0.07491,0.42447,5,1D2U,1.0,False,0.309,30,True,left,0.16646,0.2811,0.9808,0.6997,1.2806,2.2226,0.942,A,0.275
215,0.49938,0.1,1,0.28298,0.39118,0.52435,215,2.10572,-0.19,-0.09155,0.40783,5,1D2U,2.0,True,0.475,31,True,right,-0.08323,0.1482,0.8314,0.6832,1.2658,1.9571,0.6913,A,0.275
216,0.49938,1.2,1,0.27466,0.29963,0.8323,216,2.48858,0.17,0.08323,0.58261,5,2D1U,1.0,True,0.391,28,False,left,0.16646,0.1386,0.9886,0.85,1.6053,2.5468,0.9415,A,0.27
217,0.49938,1.2,2,0.33292,0.26634,0.67416,217,2.35541,0.17,0.08323,0.58261,5,2D1U,2.0,True,0.434,28,False,right,-0.08323,1.468,2.318,0.8501,0.243,0.9264,0.6834,A,0.27
218,0.49938,0.1,1,0.34957,0.37454,0.78236,218,2.57181,0.13,0.06658,0.56596,5,2D1U,2.0,False,0.416,29,True,right,0.16646,0.2136,1.0555,0.8419,1.6217,2.5637,0.9419,A,0.275
219,0.49938,0.1,1,0.27466,0.44944,0.63255,219,2.43864,0.17,0.08323,0.58261,5,2D1U,1.0,True,0.368,30,True,left,-0.08323,0.1455,1.0035,0.858,1.5453,2.2369,0.6916,A,0.275
220,0.49938,1.2,2,0.39118,0.26634,0.44112,220,2.00585,-0.19,-0.09155,0.40783,5,1D2U,2.0,False,0.416,31,True,right,0.16646,1.4132,2.097,0.6838,0.1721,1.1049,0.9328,A,0.27
221,0.49938,1.2,1,0.34957,0.28298,0.64087,221,2.15566,-0.23,-0.11652,0.38286,5,1D2U,2.0,True,0.458,31,False,right,-0.08323,0.2178,0.8676,0.6498,1.4178,2.1011,0.6833,A,0.27
222,0.49938,0.1,2,0.44112,0.30795,0.41615,222,2.24721,0.17,0.08323,0.58261,5,2D1U,1.0,False,0.458,30,True,left,0.16646,1.4534,2.3118,0.8584,0.2283,1.1701,0.9418,A,0.275
223,0.49938,0.1,2,0.24969,0.25801,0.47441,223,2.08907,0.21,0.1082,0.60758,5,2D1U,1.0,False,0.417,30,False,left,-0.08323,1.1937,2.0771,0.8833,0.1608,0.8515,0.6907,A,0.275
224,0.49938,1.2,2,0.25801,0.40783,0.78236,224,2.57181,0.25,0.12485,0.62423,5,2D1U,2.0,True,0.434,30,False,right,0.16646,1.6222,2.5137,0.8915,0.0392,0.9725,0.9333,A,0.27
225,0.49938,1.2,2,0.28298,0.29963,0.60758,225,2.07243,-0.23,-0.11652,0.38286,5,1D2U,1.0,True,0.342,31,False,left,-0.08323,1.353,2.0028,0.6498,0.1949,0.8781,0.6832,A,0.27
226,0.49938,0.1,2,0.26634,0.27466,0.7241,226,2.17231,-0.19,-0.09155,0.40783,5,1D2U,1.0,True,0.326,32,True,left,0.16646,1.5797,2.2631,0.6834,0.047,0.9881,0.9411,A,0.275
227,0.49938,0.1,2,0.28298,0.30795,0.89056,227,2.6051,0.25,0.12485,0.62423,5,2D1U,2.0,True,0.375,30,False,right,-0.08323,1.638,2.5387,0.9006,0.1883,0.8803,0.692,A,0.275
228,0.49938,1.2,1,0.22472,0.42447,0.59926,228,2.15566,-0.19,-0.09155,0.40783,5,1D2U,2.0,True,0.317,32,True,right,0.16646,0.0916,0.7665,0.6749,1.1494,2.0831,0.9337,A,0.27
229,0.49938,1.2,1,0.29131,0.23304,0.79069,229,2.422,0.21,0.1082,0.60758,5,2D1U,2.0,False,0.542,31,True,right,-0.08323,0.157,1.0312,0.8742,1.7316,2.4151,0.6835,A,0.27
230,0.49938,0.1,1,0.23304,0.4328,0.79069,230,2.38038,-0.15,-0.07491,0.42447,5,1D2U,2.0,True,0.376,32,False,right,0.16646,0.0973,0.7968,0.6994,1.372,2.3141,0.9421,A,0.275
231,0.49938,0.1,1,0.23304,0.24969,0.57429,231,2.18063,0.25,0.12485,0.62423,5,2D1U,1.0,True,0.418,32,True,left,-0.08323,0.0978,0.9978,0.9,1.4812,2.1726,0.6914,A,0.275
232,0.49938,1.2,2,0.29131,0.29131,0.86559,232,2.57182,0.25,0.12485,0.62423,5,2D1U,2.0,True,0.375,32,True,right,0.16646,1.7387,2.6303,0.8917,0.0721,1.0054,0.9333,A,0.27
233,0.49938,1.2,2,0.39118,0.40783,0.79901,233,2.52187,-0.15,-0.07491,0.42447,5,1D2U,1.0,True,0.51,32,False,left,-0.08323,1.6456,2.337,0.6914,0.2957,0.9785,0.6828,A,0.27
234,0.49938,0.1,2,0.36621,0.39118,0.70746,234,2.40535,-0.11,-0.05826,0.44112,5,1D2U,2.0,False,0.334,32,False,right,0.16646,1.6691,2.3858,0.7166,0.1525,1.0941,0.9415,A,0.275
235,0.49938,0.1,1,0.36621,0.37454,0.59926,235,2.44697,0.21,0.1082,0.60758,5,2D1U,2.0,False,0.325,33,True,right,-0.08323,0.2344,1.1184,0.884,1.6273,2.3183,0.691,A,0.275
236,0.49938,1.2,1,0.22472,0.37454,0.59926,236,2.32213,0.25,0.12485,0.62423,5,2D1U,2.0,False,0.358,34,True,right,0.16646,0.0932,0.9851,0.8918,1.3688,2.302,0.9333,A,0.27
237,0.49938,1.2,2,0.36621,0.29131,0.68249,237,2.26386,-0.15,-0.07491,0.42447,5,1D2U,1.0,True,0.483,33,True,left,-0.08323,1.5059,2.1974,0.6915,0.2722,0.9556,0.6834,A,0.27
238,0.49938,0.1,1,0.36621,0.29963,0.48273,238,2.28882,0.29,0.14149,0.64087,5,2D1U,1.0,True,0.111,34,False,left,0.16646,0.2294,1.147,0.9176,1.4134,2.3549,0.9414,A,0.275
239,0.49938,0.1,1,0.34957,0.3246,0.46609,239,2.28051,0.29,0.14149,0.64087,5,2D1U,2.0,False,0.584,34,False,right,-0.08323,0.2193,1.1363,0.917,1.5111,2.2028,0.6917,A,0.275
240,0.49938,1.2,2,0.38286,0.40783,0.45777,240,2.17231,-0.15,-0.07491,0.42447,5,1D2U,1.0,True,0.358,33,True,left,0.16646,1.4259,2.1175,0.6915,0.1675,1.1008,0.9333,A,0.27
241,0.49938,1.2,2,0.27466,0.29131,0.85727,241,2.36374,-0.11,-0.05826,0.44112,5,1D2U,2.0,False,0.417,34,True,right,-0.08323,1.5867,2.2958,0.7091,0.1785,0.8619,0.6834,A,0.27
242,0.49938,0.1,2,0.38286,0.3246,0.54932,242,2.422,0.33,0.16646,0.66584,5,2D1U,2.0,True,0.333,34,False,right,0.16646,1.5246,2.4665,0.9418,0.166,1.1078,0.9418,A,0.275
243,0.49938,0.1,2,0.34957,0.34124,0.70746,243,2.56349,0.33,0.16646,0.66584,5,2D1U,2.0,True,0.367,34,False,right,-0.08323,1.5265,2.4678,0.9413,0.26,0.9518,0.6918,A,0.275
244,0.49938,1.2,2,0.34957,0.35789,0.89056,244,2.52187,-0.15,-0.07491,0.42447,5,1D2U,1.0,True,0.384,35,True,left,0.16646,1.8213,2.5136,0.6923,0.1303,1.0635,0.9333,A,0.27
245,0.49938,1.2,2,0.37454,0.24137,0.75739,245,2.29715,-0.15,-0.07491,0.42447,5,1D2U,2.0,False,0.425,35,True,right,-0.08323,1.5921,2.2833,0.6912,0.2838,0.9671,0.6833,A,0.27
246,0.49938,0.1,1,0.30795,0.52435,0.64919,246,2.62174,0.29,0.14149,0.64087,5,2D1U,1.0,True,0.167,35,True,left,0.16646,0.1733,1.0901,0.9168,1.5234,2.4651,0.9417,A,0.275
247,0.49938,0.1,1,0.25801,0.40783,0.77404,247,2.58013,0.29,0.14149,0.64087,5,2D1U,1.0,True,0.383,35,True,left,-0.08323,0.1246,1.0407,0.9161,1.7242,2.4157,0.6915,A,0.275
248,0.49938,1.2,2,0.22472,0.29963,0.44112,248,1.87268,-0.19,-0.09155,0.40783,5,1D2U,1.0,True,0.358,35,False,left,0.16646,1.2505,1.9254,0.6749,0.0096,0.9422,0.9325,A,0.27
249,0.49938,1.2,2,0.37454,0.36621,0.84062,249,2.48858,-0.19,-0.09155,0.40783,5,1D2U,1.0,True,0.642,35,False,left,-0.08323,1.6775,2.3524,0.6749,0.2856,0.9694,0.6838,A,0.27
250,0.49938,0.1,2,0.24137,0.24969,0.69913,250,2.3138,0.25,0.12485,0.62423,5,2D1U,2.0,True,0.4,35,False,right,0.16646,1.5364,2.4364,0.9,0.0275,0.9696,0.9421,A,0.275
251,0.49938,0.1,1,0.20808,0.39118,0.51603,251,2.2389,0.25,0.12485,0.62423,5,2D1U,1.0,True,0.375,35,False,left,-0.08323,0.074,0.974,0.9,1.3989,2.09,0.6912,A,0.275
252,0.49938,1.2,1,0.44112,0.36621,0.79069,252,2.52187,-0.15,-0.07491,0.42447,5,1D2U,2.0,True,0.35,36,True,right,0.16646,0.3055,0.9974,0.6919,1.5721,2.5053,0.9332,A,0.27
253,0.49938,1.2,1,0.29963,0.24969,0.60758,253,2.26386,0.21,0.1082,0.60758,5,2D1U,1.0,True,0.425,35,False,left,-0.08323,0.1652,1.0412,0.8759,1.5582,2.2412,0.683,A,0.27
254,0.49938,0.1,1,0.34957,0.24137,0.6159,254,2.13069,-0.15,-0.07491,0.42447,5,1D2U,2.0,True,0.342,36,True,right,0.16646,0.2138,0.9139,0.7001,1.3142,2.2561,0.942,A,0.275
255,0.49938,0.1,2,0.2164,0.26634,0.45777,255,1.88101,-0.11,-0.05826,0.44112,5,1D2U,1.0,True,0.391,36,False,left,-0.08323,1.1435,1.8598,0.7163,0.1259,0.8173,0.6915,A,0.275
256,0.49938,1.2,1,0.41615,0.28298,0.45777,256,2.26386,0.21,0.1082,0.60758,5,2D1U,1.0,True,0.409,35,False,left,0.16646,0.282,1.156,0.874,1.3986,2.3399,0.9413,A,0.27
257,0.49938,1.2,1,0.34124,0.20808,0.47441,257,1.96423,-0.11,-0.05826,0.44112,5,1D2U,2.0,True,0.467,36,False,right,-0.08323,0.2053,0.9132,0.7078,1.2964,1.9818,0.6855,A,0.27
258,0.49938,0.1,2,0.41615,0.33292,0.8323,258,2.54684,-0.07,-0.03329,0.46609,5,1D2U,2.0,False,0.342,36,False,right,0.16646,1.8438,2.5937,0.7498,0.2023,1.1442,0.9419,A,0.275
259,0.49938,0.1,2,0.29963,0.22472,0.6159,259,2.22224,0.17,0.08323,0.58261,5,2D1U,2.0,True,0.376,35,False,right,-0.08323,1.3852,2.2433,0.8581,0.2104,0.9022,0.6918,A,0.275
260,0.49938,1.2,2,0.4328,0.23304,0.49106,260,2.0974,-0.11,-0.05826,0.44112,5,1D2U,2.0,False,0.392,37,True,right,0.16646,1.5114,2.2278,0.7164,0.2193,1.1528,0.9335,A,0.27
261,0.49938,1.2,1,0.24137,0.27466,0.73242,261,2.33044,0.17,0.08323,0.58261,5,2D1U,2.0,False,0.401,35,False,right,-0.08323,0.1073,0.9573,0.85,1.5986,2.282,0.6834,A,0.27
262,0.49938,0.1,1,0.39118,0.31627,0.4328,262,2.24721,0.21,0.1082,0.60758,5,2D1U,2.0,False,0.112,36,True,right,0.16646,0.2597,1.1431,0.8833,1.3597,2.3095,0.9498,A,0.275
263,0.49938,0.1,1,0.26634,0.24137,0.77404,263,2.40536,0.25,0.12485,0.62423,5,2D1U,1.0,True,0.434,36,False,left,-0.08323,0.129,1.0291,0.9001,1.7123,2.4039,0.6916,A,0.275
264,0.49938,1.2,2,0.24969,0.23304,0.3995,264,2.00584,0.25,0.12485,0.62423,5,2D1U,1.0,False,0.374,36,False,left,0.16646,1.2367,2.1367,0.9,0.0368,0.9703,0.9335,A,0.27
265,0.49938,1.2,2,0.24969,0.29131,0.81565,265,2.2805,-0.15,-0.07491,0.42447,5,1D2U,2.0,False,0.65,37,False,right,-0.08323,1.5214,2.2143,0.6929,0.1557,0.8384,0.6826,A,0.27
266,0.49938,0.1,1,0.29963,0.65752,1.02373,266,3.12113,0.29,0.14149,0.64087,5,2D1U,1.0,True,0.392,36,False,left,0.16646,0.1656,1.0817,0.9162,1.8903,2.8325,0.9422,A,0.275
267,0.49938,0.1,1,0.24969,0.24137,0.79069,267,2.422,0.29,0.14149,0.64087,5,2D1U,1.0,True,0.392,36,False,left,-0.08323,0.1196,1.0359,0.9164,1.7365,2.4279,0.6914,A,0.275
268,0.49938,1.2,2,0.42447,0.30795,0.97379,268,2.61342,-0.19,-0.09155,0.40783,5,1D2U,1.0,True,0.341,37,False,left,0.16646,1.9843,2.6593,0.675,0.2094,1.1421,0.9327,A,0.27
269,0.49938,1.2,1,0.24969,0.29131,0.73242,269,2.39703,0.25,0.12485,0.62423,5,2D1U,2.0,False,0.368,37,True,right,-0.08323,0.1153,1.0069,0.8916,1.6487,2.3317,0.683,A,0.27
270,0.49938,0.1,1,0.36621,0.29131,0.47441,270,2.03914,-0.19,-0.09155,0.40783,5,1D2U,2.0,True,0.375,37,False,right,0.16646,0.2315,0.9153,0.6838,1.1734,2.1236,0.9502,A,0.275
271,0.49938,0.1,2,0.33292,0.31627,0.56596,271,2.3554,0.29,0.14149,0.64087,5,2D1U,2.0,True,0.424,38,True,right,-0.08323,1.3656,2.2815,0.916,0.2402,0.9319,0.6917,A,0.275
272,0.49938,1.2,1,0.26634,0.42447,0.55764,272,2.1723,-0.15,-0.07491,0.42447,5,1D2U,1.0,False,0.333,38,True,left,0.16646,0.1322,0.8234,0.6913,1.165,2.0988,0.9338,A,0.27
273,0.49938,1.2,1,0.36621,0.4328,0.55764,273,2.4969,0.29,0.14149,0.64087,5,2D1U,2.0,False,0.451,38,True,right,-0.08323,0.2291,1.1374,0.9083,1.604,2.2873,0.6833,A,0.27
274,0.49938,0.1,1,0.30795,0.23304,0.51603,274,2.22224,0.33,0.16646,0.66584,5,2D1U,1.0,True,0.317,38,False,left,0.16646,0.1722,1.1135,0.9413,1.4134,2.355,0.9417,A,0.275
275,0.49938,0.1,1,0.3246,0.3995,0.8323,275,2.46361,-0.19,-0.09155,0.40783,5,1D2U,1.0,False,0.333,39,True,left,-0.08323,0.189,0.8726,0.6836,1.614,2.3057,0.6917,A,0.275
276,0.49938,1.2,2,0.30795,0.57429,1.16522,276,2.9297,-0.23,-0.11652,0.38286,5,1D2U,1.0,True,0.358,39,False,left,0.16646,2.0608,2.711,0.6502,0.0946,1.028,0.9334,A,0.27
277,0.49938,1.2,1,0.25801,0.34957,0.79901,277,2.57181,0.33,0.16646,0.66584,5,2D1U,1.0,True,0.467,38,False,left,-0.08323,0.1215,1.0549,0.9334,1.7633,2.4464,0.6831,A,0.27
278,0.49938,0.1,2,0.39118,0.40783,0.86559,278,2.54684,-0.23,-0.11652,0.38286,5,1D2U,1.0,True,0.334,39,False,left,0.16646,1.8505,2.5086,0.6581,0.1759,1.1177,0.9418,A,0.275
279,0.49938,0.1,1,0.35789,0.33292,0.84062,279,2.43864,-0.19,-0.09155,0.40783,5,1D2U,2.0,True,0.341,40,True,right,-0.08323,0.2214,0.9047,0.6833,1.6545,2.3463,0.6918,A,0.275
280,0.49938,1.2,1,0.27466,0.22472,0.59093,280,2.23056,0.29,0.14149,0.64087,5,2D1U,2.0,False,0.375,39,True,right,0.16646,0.1375,1.046,0.9084,1.4208,2.3542,0.9333,A,0.27
281,0.49938,1.2,2,0.40783,0.36621,0.80733,281,2.48858,-0.19,-0.09155,0.40783,5,1D2U,1.0,True,0.4,40,True,left,-0.08323,1.6776,2.3522,0.6745,0.3198,1.003,0.6832,A,0.27
282,0.49938,0.1,2,0.3246,0.52435,0.90721,282,2.92138,0.33,0.16646,0.66584,5,2D1U,2.0,True,0.408,40,True,right,0.16646,1.8225,2.7637,0.9412,0.106,1.0476,0.9417,A,0.275
283,0.49938,0.1,1,0.30795,0.31627,0.77404,283,2.32211,-0.15,-0.07491,0.42447,5,1D2U,2.0,True,0.425,40,False,right,-0.08323,0.1705,0.8705,0.7,1.554,2.2455,0.6914,A,0.275
284,0.49938,1.2,1,0.4328,0.29131,0.87392,284,2.76325,0.33,0.16646,0.66584,5,2D1U,2.0,False,0.35,40,True,right,0.16646,0.2977,1.2313,0.9336,1.8897,2.8228,0.9331,A,0.27
285,0.49938,1.2,1,0.27466,0.40783,0.44944,285,2.05578,-0.15,-0.07491,0.42447,5,1D2U,1.0,False,0.442,40,False,left,-0.08323,0.1417,0.8332,0.6915,1.192,1.8749,0.683,A,0.27
286,0.49938,0.1,2,0.36621,0.39118,0.89056,286,2.82982,0.37,0.18311,0.68249,5,2D1U,2.0,True,0.575,40,False,right,0.16646,1.8536,2.8114,0.9578,0.1536,1.094,0.9405,A,0.275
287,0.49938,0.1,1,0.35789,0.39118,0.76572,287,2.422,-0.19,-0.09155,0.40783,5,1D2U,2.0,True,0.5,41,True,right,-0.08323,0.2214,0.9056,0.6842,1.5806,2.2717,0.6912,A,0.275
288,0.49938,1.2,1,0.29963,0.5077,0.62423,288,2.61343,0.37,0.18311,0.68249,5,2D1U,1.0,True,0.35,40,False,left,0.16646,0.1642,1.1141,0.9499,1.5224,2.4552,0.9328,A,0.27
289,0.49938,1.2,2,0.28298,0.30795,0.7241,289,2.22224,-0.19,-0.09155,0.40783,5,1D2U,1.0,True,0.367,41,True,left,-0.08323,1.4652,2.1407,0.6755,0.1901,0.8738,0.6837,A,0.27
290,0.49938,0.1,2,0.3995,0.42447,0.88224,290,2.63006,-0.15,-0.07491,0.42447,5,1D2U,1.0,True,0.384,42,True,left,0.16646,1.8712,2.5712,0.7,0.18,1.1218,0.9418,A,0.275
291,0.49938,0.1,2,0.28298,0.33292,0.73242,291,2.27217,-0.15,-0.07491,0.42447,5,1D2U,1.0,True,0.4,42,True,left,-0.08323,1.4815,2.1814,0.7,0.19,0.881,0.691,A,0.275
292,0.49938,1.2,2,0.39118,0.33292,0.79901,292,2.46361,-0.11,-0.05826,0.44112,5,1D2U,2.0,False,0.284,42,False,right,0.16646,1.7776,2.4849,0.7074,0.1779,1.1109,0.9329,A,0.27
293,0.49938,1.2,1,0.24137,0.24137,0.58261,293,1.9892,-0.15,-0.07491,0.42447,5,1D2U,2.0,True,0.357,43,True,right,-0.08323,0.1052,0.7967,0.6915,1.2883,1.9716,0.6833,A,0.27
294,0.49938,0.1,1,0.31627,0.59926,0.68249,294,2.52187,-0.15,-0.07491,0.42447,5,1D2U,2.0,True,0.114,43,True,right,0.16646,0.1861,0.8857,0.6996,1.3518,2.294,0.9422,A,0.275
295,0.49938,0.1,1,0.24969,0.44112,0.76572,295,2.39703,-0.11,-0.05826,0.44112,5,1D2U,2.0,True,0.384,44,True,right,-0.08323,0.1148,0.8306,0.7158,1.5061,2.1975,0.6914,A,0.275
