Unnamed: 0,standardDur,audNoise,order,preDur,postDur,isiDur,trial_num,totalDur,delta_dur_percents,deltaDurS,testDurS,intensities,current_stair,responses,is_correct,response_rts,stair_num_reversal,stair_is_reversal,response_keys,conflictDur,recordedOnsetVisualTest,recordedOffsetVisualTest,recordedDurVisualTest,recordedOnsetVisualStandard,recordedOffsetVisualStandard,recordedDurVisualStandard,modalityCue,VisualPSE
0,0.49991,1.2,2,0.19996,0.39993,0.79985,0,2.84947,0.9,0.44992,0.94982,5,lapse_rate,2.0,True,0.229,0,False,right,0.24995,1.6204,2.5372,0.9167,0.0872,0.8037,0.7164,A,-0.03
1,0.49991,1.2,2,0.31661,0.32494,0.74986,1,1.94964,-0.89,-0.44158,0.05832,5,2D1U,1.0,True,0.345,0,False,left,0.0,1.5655,1.5899,0.0244,0.3315,0.7982,0.4667,A,-0.03
2,0.49991,0.1,2,0.24995,0.40826,0.46658,2,2.57452,0.9,0.44992,0.94982,5,lapse_rate,2.0,True,0.218,0,False,right,-0.16664,1.1393,2.1979,1.0586,0.281,0.7227,0.4417,A,0.11
3,0.49991,1.2,1,0.3666,0.33327,0.49991,3,1.833,-0.73,-0.3666,0.13331,5,2D1U,2.0,True,0.467,0,False,right,0.24995,0.387,0.4866,0.0996,0.8784,1.5948,0.7165,A,-0.03
4,0.49991,1.2,2,0.38326,0.35827,0.7082,4,2.00796,-0.89,-0.44158,0.05832,5,1D2U,1.0,True,0.255,0,False,left,0.0,1.5892,1.6149,0.0257,0.3981,0.8648,0.4667,A,-0.03
5,0.49991,0.1,1,0.20829,0.39159,0.76652,5,1.92463,-0.89,-0.44158,0.05832,5,1D2U,2.0,True,0.175,0,False,right,-0.16664,0.1562,0.3223,0.1661,1.1224,1.5646,0.4422,A,0.11
6,0.49991,0.1,2,0.31661,0.25829,0.74986,6,1.88299,-0.8899999999999999,-0.44158,0.05832,5,lapse_rate,1.0,True,0.234,0,False,left,0.24995,1.695,1.8616,0.1666,0.1369,0.9953,0.8584,A,0.11
7,0.49991,0.1,2,0.29161,0.26662,0.76652,7,2.04129,-0.57,-0.28328,0.21663,5,2D1U,1.0,True,0.25,0,False,left,0.0,1.5641,1.8892,0.3251,0.2389,0.8474,0.6085,A,0.11
8,0.49991,0.1,1,0.19996,0.44992,0.82485,8,2.03296,-0.8899999999999999,-0.44158,0.05832,5,lapse_rate,2.0,True,0.308,0,False,right,-0.16664,0.1472,0.3134,0.1662,1.1723,1.6135,0.4412,A,0.11
9,0.49991,0.1,1,0.30828,0.39993,0.40826,9,1.74969,-0.73,-0.3666,0.13331,5,1D2U,2.0,True,0.45,0,False,right,0.24995,0.2618,0.5036,0.2418,0.7366,1.595,0.8584,A,0.11
10,0.49991,1.2,1,0.21663,0.37493,0.68321,10,2.06629,-0.41,-0.20829,0.29161,5,2D1U,2.0,True,0.195,0,False,right,0.0,0.2319,0.4907,0.2589,1.1908,1.6576,0.4668,A,-0.03
11,0.49991,1.2,2,0.31661,0.37493,0.80818,11,2.37456,-0.25,-0.12498,0.37493,5,2D1U,1.0,True,0.122,0,False,left,-0.16664,1.5446,1.8862,0.3416,0.4198,0.7197,0.2998,A,-0.03
12,0.49991,0.1,2,0.28328,0.29994,0.61655,12,2.6495,0.9,0.44992,0.94982,5,lapse_rate,2.0,True,0.112,0,False,right,0.24995,1.5326,2.5912,1.0586,0.1079,0.9663,0.8584,A,0.11
13,0.49991,1.2,1,0.22496,0.37493,0.63322,13,1.86633,-0.73,-0.3666,0.13331,5,1D2U,2.0,True,0.205,0,False,right,0.0,0.2445,0.3444,0.1,0.994,1.4608,0.4668,A,-0.03
14,0.49991,0.1,1,0.25829,0.26662,0.49991,14,1.74136,-0.57,-0.28328,0.21663,5,1D2U,1.0,False,0.291,0,False,left,-0.16664,0.2051,0.5298,0.3247,1.0638,1.5053,0.4415,A,0.11
15,0.49991,0.1,2,0.35827,0.37493,0.57489,15,2.26625,-0.09,-0.04166,0.45825,5,2D1U,2.0,False,0.113,0,False,right,0.24995,1.5644,2.1309,0.5665,0.181,1.0393,0.8582,A,0.11
16,0.49991,1.2,2,0.27495,0.33327,0.54157,16,2.59952,0.9,0.44992,0.94982,5,lapse_rate,2.0,True,0.112,0,False,right,0.0,1.3174,2.2344,0.917,0.2926,0.7597,0.467,A,-0.03
17,0.49991,0.1,1,0.38326,0.29994,0.78319,17,2.42455,-0.09,-0.04166,0.45825,5,2D1U,2.0,True,0.276,0,False,right,-0.16664,0.3305,0.8969,0.5664,1.7136,2.1546,0.441,A,0.11
18,0.49991,0.1,2,0.24162,0.3666,0.7332,18,2.79115,0.9,0.44992,0.94982,5,lapse_rate,2.0,True,0.483,0,False,right,0.24995,1.6038,2.6616,1.0578,0.0622,0.9204,0.8582,A,0.11
19,0.49991,1.2,2,0.3416,0.40826,0.5499,19,1.97464,-0.65,-0.32494,0.17497,5,1D2U,1.0,True,0.114,1,True,left,0.0,1.3916,1.5341,0.1424,0.3592,0.8256,0.4664,A,-0.03
20,0.49991,1.2,2,0.25829,0.31661,0.71653,20,1.84966,-0.8899999999999999,-0.44158,0.05832,5,lapse_rate,1.0,True,0.143,0,False,left,-0.16664,1.3905,1.4153,0.0248,0.357,0.6571,0.3001,A,-0.03
21,0.49991,1.2,1,0.34993,0.20829,0.80818,21,2.04128,-0.65,-0.32494,0.17497,5,1D2U,2.0,True,0.2,1,True,right,0.24995,0.3682,0.5099,0.1417,1.2097,1.9264,0.7167,A,-0.03
22,0.49991,1.2,1,0.31661,0.28328,0.47491,22,2.10794,0.07,0.03333,0.53323,5,2D1U,2.0,False,0.222,0,False,right,0.0,0.337,0.8362,0.4991,1.3283,1.7952,0.4669,A,-0.03
23,0.49991,0.1,2,0.33327,0.31661,0.49158,23,2.59119,0.9,0.44992,0.94982,5,lapse_rate,2.0,True,0.15,0,False,right,-0.16664,1.2519,2.3102,1.0583,0.3685,0.8103,0.4418,A,0.11
24,0.49991,0.1,1,0.3416,0.29161,0.81651,24,2.14126,-0.61,-0.30828,0.19163,5,1D2U,2.0,True,0.442,2,True,right,0.24995,0.2879,0.5881,0.3002,1.2295,2.0879,0.8584,A,0.11
25,0.49991,0.1,2,0.29161,0.23329,0.87484,25,2.5162,0.23,0.11664,0.61655,5,2D1U,2.0,True,0.26,0,False,right,0.0,1.671,2.3965,0.7255,0.2378,0.846,0.6082,A,0.11
26,0.49991,0.1,1,0.31661,0.24162,0.42492,26,2.09961,0.23,0.11664,0.61655,5,2D1U,1.0,True,0.242,0,False,left,-0.16664,0.2676,0.993,0.7254,1.4514,1.893,0.4416,A,0.11
27,0.49991,1.2,2,0.29994,0.39159,0.67487,27,2.05794,-0.61,-0.30828,0.19163,5,1D2U,1.0,True,0.113,2,True,left,0.24995,1.5995,1.7578,0.1584,0.1915,0.9073,0.7158,A,-0.03
28,0.49991,1.2,1,0.29161,0.42492,0.49991,28,1.77467,-0.8899999999999999,-0.44158,0.05832,5,lapse_rate,2.0,True,0.168,0,False,right,0.0,0.3074,0.3324,0.025,0.8486,1.3156,0.4669,A,-0.03
29,0.49991,1.2,1,0.24162,0.24162,0.5249,29,2.08294,0.15,0.07499,0.57489,5,2D1U,1.0,True,0.223,1,True,left,-0.16664,0.2556,0.7973,0.5417,1.4222,1.7217,0.2995,A,-0.03
30,0.49991,1.2,1,0.44158,0.24995,0.67487,30,1.92463,-0.8899999999999999,-0.44158,0.05832,5,lapse_rate,2.0,True,0.133,0,False,right,0.24995,0.4561,0.4815,0.0254,1.0477,1.7643,0.7166,A,-0.03
31,0.49991,1.2,1,0.23329,0.24162,0.57489,31,1.76634,-0.57,-0.28328,0.21663,5,1D2U,2.0,True,0.213,2,False,right,0.0,0.2525,0.4354,0.1829,1.0276,1.4943,0.4666,A,-0.03
32,0.49991,0.1,1,0.44158,0.21663,0.40826,32,1.78301,-0.57,-0.28328,0.21663,5,1D2U,2.0,True,0.183,2,False,right,-0.16664,0.3936,0.7183,0.3247,1.1599,1.6016,0.4417,A,0.11
33,0.49991,0.1,1,0.34993,0.44158,0.84151,33,2.70782,0.15,0.07499,0.57489,5,2D1U,2.0,False,0.114,1,True,right,0.24995,0.2961,0.9788,0.6827,1.6461,2.504,0.8579,A,0.11
34,0.49991,0.1,2,0.39993,0.29161,0.54157,34,2.68284,0.9,0.44992,0.94982,5,lapse_rate,2.0,True,0.141,0,False,right,0.0,1.4514,2.5098,1.0584,0.3517,0.9596,0.608,A,0.11
35,0.49991,1.2,1,0.28328,0.29994,0.55823,35,1.69968,-0.8899999999999999,-0.44158,0.05832,5,lapse_rate,2.0,True,0.143,0,False,right,-0.16664,0.3003,0.326,0.0257,0.985,1.2845,0.2995,A,-0.03
36,0.49991,0.1,1,0.29161,0.33327,0.76652,36,2.1246,-0.53,-0.26662,0.23329,5,1D2U,2.0,True,0.113,2,False,right,0.24995,0.2409,0.5829,0.3421,1.1752,2.0334,0.8582,A,0.11
37,0.49991,1.2,2,0.34993,0.37493,0.89983,37,2.71616,0.19,0.09165,0.59156,5,2D1U,2.0,True,0.446,2,True,right,0.0,1.751,2.3093,0.5583,0.3677,0.8341,0.4664,A,-0.03
38,0.49991,1.2,2,0.29161,0.34993,0.45825,38,2.54952,0.9,0.44992,0.94982,5,lapse_rate,2.0,True,0.375,0,False,right,-0.16664,1.1624,2.0787,0.9164,0.3871,0.6874,0.3004,A,-0.03
39,0.49991,1.2,2,0.26662,0.32494,0.67487,39,1.99963,-0.53,-0.26662,0.23329,5,1D2U,1.0,True,0.216,2,False,left,0.24995,1.5655,1.7654,0.1998,0.1574,0.8733,0.716,A,-0.03
40,0.49991,1.2,2,0.29994,0.35827,0.80818,40,2.55786,0.19,0.09165,0.59156,5,2D1U,2.0,True,0.194,2,True,right,0.0,1.6114,2.1694,0.558,0.32,0.7862,0.4662,A,-0.03
41,0.49991,0.1,2,0.21663,0.35827,0.40826,41,1.74136,-0.49,-0.24162,0.25829,5,1D2U,1.0,True,0.25,2,False,left,-0.16664,1.0529,1.4201,0.3672,0.2536,0.695,0.4414,A,0.11
42,0.49991,0.1,1,0.25829,0.37493,0.41659,42,2.12461,0.15,0.07499,0.57489,5,2D1U,2.0,False,0.142,3,True,right,0.24995,0.2107,0.8936,0.6829,1.136,1.994,0.858,A,0.11
43,0.49991,1.2,2,0.33327,0.40826,0.68321,43,2.87447,0.9,0.44992,0.94982,5,lapse_rate,2.0,True,0.214,0,False,right,0.0,1.514,2.4305,0.9165,0.3474,0.8137,0.4663,A,-0.03
44,0.49991,0.1,2,0.40826,0.19996,0.59156,44,1.95798,-0.49,-0.24162,0.25829,5,1D2U,1.0,True,0.308,2,False,left,-0.16664,1.4217,1.7891,0.3674,0.4391,0.8801,0.441,A,0.11
45,0.49991,1.2,2,0.29161,0.44158,0.69154,45,2.5162,0.19,0.09165,0.59156,5,2D1U,2.0,True,0.113,4,True,right,0.24995,1.6038,2.1624,0.5586,0.1787,0.8958,0.7171,A,-0.03
46,0.49991,0.1,2,0.40826,0.39993,0.78319,46,2.14961,-0.8899999999999999,-0.44158,0.05832,5,lapse_rate,1.0,True,0.112,0,False,left,0.0,1.7021,1.8686,0.1665,0.3605,0.9686,0.6081,A,0.11
47,0.49991,1.2,2,0.43325,0.20829,0.39993,47,2.4912,0.9,0.44992,0.94982,5,lapse_rate,2.0,True,0.225,0,False,right,-0.16664,1.2483,2.1646,0.9163,0.5314,0.8319,0.3005,A,-0.03
48,0.49991,1.2,2,0.37493,0.32494,0.79152,48,2.26625,-0.45,-0.22496,0.27495,5,1D2U,1.0,True,0.125,2,False,left,0.24995,1.7907,2.0323,0.2416,0.2655,0.9822,0.7167,A,-0.03
49,0.49991,1.2,2,0.19996,0.40826,0.41659,49,2.11628,0.19,0.09165,0.59156,5,2D1U,2.0,True,0.113,4,True,right,0.0,1.1129,1.6719,0.559,0.2132,0.6801,0.4669,A,-0.03
50,0.49991,0.1,2,0.20829,0.28328,0.49158,50,1.75801,-0.45,-0.22496,0.27495,5,1D2U,1.0,True,0.192,2,False,left,-0.16664,1.1254,1.5086,0.3831,0.242,0.6832,0.4412,A,0.11
51,0.49991,0.1,2,0.34993,0.26662,0.55823,51,2.24958,0.15,0.07499,0.57489,5,2D1U,2.0,True,0.126,5,True,right,0.24995,1.5431,2.2264,0.6832,0.1764,1.0347,0.8583,A,0.11
52,0.49991,0.1,1,0.26662,0.21663,0.63322,52,1.6747,-0.8899999999999999,-0.44158,0.05832,5,lapse_rate,2.0,True,0.217,0,False,right,0.0,0.2199,0.3863,0.1664,0.9696,1.578,0.6083,A,0.11
53,0.49991,1.2,2,0.43325,0.25829,0.46658,53,1.71635,-0.8899999999999999,-0.44158,0.05832,5,lapse_rate,1.0,True,0.23,0,False,left,-0.16664,1.3139,1.3382,0.0243,0.5299,0.8299,0.3,A,-0.03
54,0.49991,0.1,1,0.41659,0.23329,0.5249,54,2.24958,0.15,0.07499,0.57489,5,2D1U,2.0,False,0.133,5,True,right,0.24995,0.3679,1.0513,0.6834,1.4013,2.2718,0.8705,A,0.11
55,0.49991,1.2,1,0.29994,0.34993,0.64988,55,2.09127,-0.41,-0.20829,0.29161,5,1D2U,2.0,True,0.2,2,False,right,0.0,0.3153,0.5741,0.2588,1.2409,1.7071,0.4662,A,-0.03
56,0.49991,1.2,2,0.44158,0.31661,0.89983,56,2.74949,0.19,0.09165,0.59156,5,2D1U,2.0,True,0.177,6,True,right,-0.16664,1.7539,2.3123,0.5583,0.5374,0.8372,0.2998,A,-0.03
57,0.49991,1.2,2,0.35827,0.42492,0.51657,57,2.09128,-0.41,-0.20829,0.29161,5,1D2U,1.0,True,0.541,2,False,left,0.24995,1.5037,1.7618,0.2581,0.2536,0.9702,0.7166,A,-0.03
58,0.49991,1.2,1,0.21663,0.32494,0.57489,58,2.56619,0.9,0.44992,0.94982,5,lapse_rate,2.0,False,0.167,0,False,right,0.0,0.2341,1.1509,0.9168,1.743,2.209,0.466,A,-0.03
59,0.49991,0.1,2,0.39993,0.34993,0.55823,59,2.12461,-0.37,-0.1833,0.31661,5,1D2U,1.0,True,0.117,2,False,left,-0.16664,1.3793,1.8045,0.4252,0.4297,0.8716,0.4419,A,0.11
60,0.49991,0.1,1,0.32494,0.30828,0.63322,60,2.35791,0.19,0.09165,0.59156,5,2D1U,2.0,False,0.111,6,True,right,0.24995,0.2757,0.9758,0.7002,1.4339,2.2923,0.8583,A,0.11
61,0.49991,1.2,2,0.43325,0.44158,0.79152,61,2.22458,-0.8899999999999999,-0.44158,0.05832,5,lapse_rate,1.0,True,0.182,0,False,left,0.0,1.7242,1.7487,0.0245,0.4486,0.9151,0.4665,A,-0.03
62,0.49991,0.1,2,0.38326,0.3666,0.72486,62,2.92445,0.9,0.44992,0.94982,5,lapse_rate,2.0,True,0.192,0,False,right,-0.16664,1.5296,2.5877,1.0581,0.4135,0.8544,0.4409,A,0.11
63,0.49991,0.1,1,0.39159,0.34993,0.82485,63,2.68283,0.23,0.11664,0.61655,5,2D1U,2.0,False,0.433,6,False,right,0.24995,0.3397,1.0643,0.7246,1.7139,2.5723,0.8584,A,0.11
64,0.49991,1.2,1,0.28328,0.24162,0.69154,64,2.03296,-0.37,-0.1833,0.31661,5,1D2U,2.0,True,0.263,2,False,right,0.0,0.3003,0.5837,0.2834,1.292,1.7591,0.4672,A,-0.03
65,0.49991,1.2,2,0.27495,0.3666,0.58322,65,2.3579,0.27,0.13331,0.63322,5,2D1U,2.0,True,0.168,6,False,right,-0.16664,1.2752,1.8747,0.5995,0.3756,0.676,0.3004,A,-0.03
66,0.49991,1.2,1,0.32494,0.35827,0.7082,66,1.94964,-0.8899999999999999,-0.44158,0.05832,5,lapse_rate,2.0,True,0.191,0,False,right,0.24995,0.3427,0.3677,0.0249,0.9677,1.6844,0.7167,A,-0.03
67,0.49991,1.2,1,0.20829,0.34993,0.59156,67,1.98296,-0.33,-0.16664,0.33327,5,1D2U,2.0,True,0.138,2,False,right,0.0,0.221,0.5215,0.3005,1.1299,1.597,0.4671,A,-0.03
68,0.49991,0.1,2,0.38326,0.35827,0.74986,68,2.32457,-0.33,-0.16664,0.33327,5,1D2U,1.0,True,0.126,2,False,left,-0.16664,1.5596,2.0009,0.4413,0.4175,0.8597,0.4422,A,0.11
69,0.49991,0.1,1,0.33327,0.44992,0.49158,69,2.7245,0.9,0.44992,0.94982,5,lapse_rate,2.0,False,0.416,0,False,right,0.24995,0.2848,1.343,1.0582,1.6604,2.5181,0.8577,A,0.11
70,0.49991,0.1,1,0.43325,0.33327,0.86651,70,2.76616,0.27,0.13331,0.63322,5,2D1U,2.0,False,0.185,6,False,right,0.0,0.3818,1.1231,0.7412,1.9394,2.5472,0.6078,A,0.11
71,0.49991,1.2,2,0.32494,0.27495,0.58322,71,1.74134,-0.8899999999999999,-0.44158,0.05832,5,lapse_rate,1.0,True,0.167,0,False,left,-0.16664,1.3231,1.3481,0.025,0.4232,0.7224,0.2992,A,-0.03
72,0.49991,0.1,1,0.28328,0.35827,0.61655,72,2.41622,0.31,0.1583,0.65821,5,2D1U,2.0,False,0.425,6,False,right,0.24995,0.2306,0.9973,0.7667,1.4394,2.2972,0.8578,A,0.11
73,0.49991,1.2,1,0.39159,0.43325,0.69154,73,2.37456,-0.29,-0.14164,0.35827,5,1D2U,2.0,True,0.257,2,False,right,0.0,0.4066,0.7302,0.3236,1.4394,1.9058,0.4664,A,-0.03
74,0.49991,1.2,1,0.19996,0.34993,0.44158,74,2.16625,0.35,0.17497,0.67487,5,2D1U,1.0,True,0.108,6,False,left,-0.16664,0.2144,0.8559,0.6414,1.3975,1.6972,0.2997,A,-0.03
75,0.49991,1.2,1,0.34993,0.21663,0.74986,75,1.87465,-0.8899999999999999,-0.44158,0.05832,5,lapse_rate,2.0,True,0.112,0,False,right,0.24995,0.3692,0.3939,0.0247,1.0358,1.7525,0.7167,A,-0.03
76,0.49991,1.2,2,0.30828,0.44158,0.81651,76,2.42455,-0.29,-0.14164,0.35827,5,1D2U,2.0,False,0.125,2,False,right,0.0,1.6234,1.9484,0.325,0.3233,0.7905,0.4671,A,-0.03
77,0.49991,1.2,1,0.3416,0.40826,0.54157,77,2.74116,0.9,0.44992,0.94982,5,lapse_rate,1.0,True,0.111,0,False,left,-0.16664,0.3573,1.2739,0.9166,1.9148,2.2153,0.3005,A,-0.03
78,0.49991,0.1,1,0.27495,0.33327,0.71653,78,2.49953,0.35,0.17497,0.67487,5,2D1U,2.0,False,0.425,6,False,right,0.24995,0.2229,1.0068,0.7839,1.5476,2.4063,0.8586,A,0.11
79,0.49991,0.1,2,0.3416,0.40826,0.69987,79,2.28291,-0.33,-0.16664,0.33327,5,1D2U,1.0,True,0.158,3,True,left,0.0,1.5459,1.9875,0.4416,0.287,0.8955,0.6084,A,0.11
80,0.49991,0.1,2,0.42492,0.27495,0.53323,80,2.42455,0.39,0.19163,0.69154,5,2D1U,2.0,True,0.225,6,False,right,-0.16664,1.3836,2.184,0.8004,0.4594,0.9004,0.4409,A,0.11
81,0.49991,1.2,2,0.19996,0.38326,0.84151,81,2.25791,-0.33,-0.16664,0.33327,5,1D2U,1.0,True,0.141,3,True,left,0.24995,1.6617,1.9617,0.3001,0.0868,0.803,0.7162,A,-0.03
82,0.49991,0.1,2,0.40826,0.25829,0.64988,82,2.76616,0.9,0.44992,0.94982,5,lapse_rate,2.0,True,0.242,0,False,right,0.0,1.5651,2.6227,1.0576,0.3563,0.9644,0.6081,A,0.11
83,0.49991,1.2,1,0.35827,0.3666,0.45825,83,2.0413,-0.29,-0.14164,0.35827,5,1D2U,2.0,True,0.132,4,True,right,-0.16664,0.3744,0.6994,0.325,1.2573,1.5576,0.3003,A,-0.03
84,0.49991,1.2,2,0.25829,0.31661,0.85817,84,2.8828,0.9,0.44992,0.94982,5,lapse_rate,2.0,True,0.258,0,False,right,0.24995,1.7438,2.6604,0.9166,0.1522,0.8681,0.7159,A,-0.03
85,0.49991,1.2,1,0.35827,0.41659,0.75819,85,2.7245,0.39,0.19163,0.69154,5,2D1U,2.0,False,0.155,6,False,right,0.0,0.373,1.0307,0.6578,1.8055,2.2732,0.4677,A,-0.03
86,0.49991,0.1,1,0.28328,0.19996,0.82485,86,2.16627,-0.29,-0.14164,0.35827,5,1D2U,2.0,True,0.259,4,True,right,-0.16664,0.2334,0.7002,0.4668,1.5584,1.9996,0.4412,A,0.11
87,0.49991,0.1,1,0.38326,0.34993,0.88317,87,2.8328,0.43,0.21663,0.71653,5,2D1U,2.0,False,0.442,6,False,right,0.24995,0.3341,1.1587,0.8245,1.868,2.7262,0.8582,A,0.11
88,0.49991,1.2,1,0.24162,0.38326,0.68321,88,1.86632,-0.8899999999999999,-0.44158,0.05832,5,lapse_rate,2.0,True,0.219,0,False,right,0.0,0.2593,0.2846,0.0253,0.9848,1.4509,0.466,A,-0.03
89,0.49991,0.1,1,0.34993,0.41659,0.64988,89,2.29124,-0.25,-0.12498,0.37493,5,1D2U,2.0,True,0.183,4,False,right,-0.16664,0.3,0.7833,0.4833,1.4667,1.9081,0.4414,A,0.11
90,0.49991,1.2,2,0.37493,0.33327,0.57489,90,1.84132,-0.8899999999999999,-0.44158,0.05832,5,lapse_rate,1.0,True,0.325,0,False,left,0.24995,1.5747,1.5997,0.025,0.2663,0.9829,0.7166,A,-0.03
91,0.49991,1.2,1,0.19996,0.30828,0.51657,91,2.25792,0.47,0.23329,0.7332,5,2D1U,2.0,False,0.138,6,False,right,0.0,0.218,0.9186,0.7007,1.4513,1.9179,0.4666,A,-0.03
92,0.49991,1.2,2,0.30828,0.34993,0.44158,92,1.97463,-0.25,-0.12498,0.37493,5,1D2U,1.0,True,0.169,4,False,left,-0.16664,1.1679,1.5094,0.3415,0.4099,0.7098,0.2999,A,-0.03
93,0.49991,0.1,1,0.39993,0.40826,0.45825,93,2.71617,0.9,0.44992,0.94982,5,lapse_rate,2.0,False,0.111,0,False,right,0.24995,0.3499,1.4086,1.0588,1.6912,2.5496,0.8584,A,0.11
94,0.49991,1.2,2,0.35827,0.37493,0.79985,94,2.79115,0.51,0.25829,0.75819,5,2D1U,2.0,True,0.273,6,False,right,0.0,1.6592,2.384,0.7247,0.3756,0.8418,0.4662,A,-0.03
95,0.49991,0.1,1,0.41659,0.41659,0.5499,95,2.27458,-0.21,-0.10831,0.39159,5,1D2U,1.0,False,0.233,4,False,left,-0.16664,0.3637,0.8639,0.5002,1.4478,1.8891,0.4413,A,0.11
96,0.49991,1.2,2,0.28328,0.28328,0.59156,96,2.60785,0.9,0.44992,0.94982,5,lapse_rate,2.0,True,0.113,0,False,right,0.24995,1.4955,2.4124,0.917,0.1705,0.8869,0.7164,A,-0.03
97,0.49991,0.1,2,0.19996,0.33327,0.84151,97,2.63284,0.51,0.25829,0.75819,5,2D1U,2.0,True,0.125,6,False,right,0.0,1.5486,2.4153,0.8667,0.1487,0.7571,0.6084,A,0.11
98,0.49991,0.1,2,0.30828,0.25829,0.51657,98,2.31625,0.47,0.23329,0.7332,5,2D1U,2.0,True,0.208,7,True,right,-0.16664,1.2482,2.0895,0.8413,0.3395,0.781,0.4415,A,0.11
99,0.49991,1.2,1,0.22496,0.22496,0.5249,99,1.84966,-0.25,-0.12498,0.37493,5,1D2U,2.0,True,0.15,5,True,right,0.24995,0.2392,0.5811,0.3418,0.9976,1.7145,0.7169,A,-0.03
100,0.49991,0.1,1,0.23329,0.26662,0.42492,100,2.37456,0.9,0.44992,0.94982,5,lapse_rate,1.0,True,0.117,0,False,left,0.0,0.1799,1.2389,1.059,1.6137,2.2215,0.6078,A,0.11
101,0.49991,1.2,2,0.38326,0.32494,0.61655,101,2.55786,0.47,0.23329,0.7332,5,2D1U,2.0,True,0.107,7,True,right,-0.16664,1.4126,2.1129,0.7003,0.4792,0.7798,0.3005,A,-0.03
102,0.49991,1.2,2,0.32494,0.3666,0.76652,102,2.01629,-0.8899999999999999,-0.44158,0.05832,5,lapse_rate,1.0,True,0.217,0,False,left,0.24995,1.717,1.7422,0.0252,0.217,0.9336,0.7166,A,-0.03
103,0.49991,1.2,1,0.35827,0.42492,0.61655,103,2.27458,-0.25,-0.12498,0.37493,5,1D2U,2.0,True,0.23,5,True,right,0.0,0.3697,0.7115,0.3418,1.3452,1.8117,0.4665,A,-0.03
104,0.49991,0.1,2,0.28328,0.28328,0.78319,104,2.24125,-0.21,-0.10831,0.39159,5,1D2U,1.0,True,0.234,6,True,left,-0.16664,1.4913,1.9912,0.4999,0.3164,0.7581,0.4416,A,0.11
105,0.49991,0.1,1,0.39993,0.3416,0.69154,105,2.64951,0.43,0.21663,0.71653,5,2D1U,1.0,True,0.112,7,False,left,0.24995,0.3486,1.1736,0.825,1.6901,2.5486,0.8585,A,0.11
106,0.49991,0.1,2,0.33327,0.39993,0.56656,106,2.74949,0.9,0.44992,0.94982,5,lapse_rate,2.0,True,0.5,0,False,right,0.0,1.4071,2.4655,1.0583,0.2818,0.8901,0.6083,A,0.11
107,0.49991,0.1,1,0.19996,0.37493,0.64988,107,2.44121,0.43,0.21663,0.71653,5,2D1U,1.0,True,0.114,7,False,left,-0.16664,0.1522,0.9767,0.8245,1.6607,2.1022,0.4414,A,0.11
108,0.49991,1.2,2,0.39159,0.41659,0.64155,108,2.89946,0.9,0.44992,0.94982,5,lapse_rate,2.0,True,0.11,0,False,right,0.24995,1.6603,2.5769,0.9165,0.2859,1.0018,0.7159,A,-0.03
109,0.49991,1.2,2,0.28328,0.35827,0.76652,109,2.29957,-0.21,-0.10831,0.39159,5,1D2U,1.0,True,0.142,6,True,left,0.0,1.5491,1.9078,0.3586,0.2985,0.7656,0.4671,A,-0.03
110,0.49991,0.1,2,0.3416,0.3666,0.69154,110,2.84947,0.9,0.44992,0.94982,5,lapse_rate,2.0,True,0.11,0,False,right,-0.16664,1.4608,2.5196,1.0588,0.3782,0.8197,0.4415,A,0.11
111,0.49991,1.2,1,0.38326,0.23329,0.82485,111,2.63285,0.39,0.19163,0.69154,5,2D1U,2.0,False,0.175,7,False,right,0.24995,0.3963,1.0549,0.6586,1.7715,2.4883,0.7167,A,-0.03
112,0.49991,1.2,2,0.28328,0.33327,0.77486,112,2.30791,-0.17,-0.08332,0.41659,5,1D2U,1.0,True,0.178,6,False,left,0.0,1.5568,1.9402,0.3835,0.298,0.7653,0.4673,A,-0.03
113,0.49991,0.1,2,0.23329,0.19996,0.43325,113,1.783,-0.17,-0.08332,0.41659,5,1D2U,2.0,False,0.258,6,False,right,-0.16664,1.0901,1.6148,0.5247,0.2651,0.7067,0.4416,A,0.11
114,0.49991,0.1,1,0.37493,0.31661,0.65821,114,2.56619,0.43,0.21663,0.71653,5,2D1U,1.0,True,0.15,8,True,left,0.24995,0.3204,1.1456,0.8251,1.6291,2.4873,0.8583,A,0.11
115,0.49991,1.2,2,0.39159,0.29994,0.5499,115,1.79966,-0.8899999999999999,-0.44158,0.05832,5,lapse_rate,1.0,True,0.209,0,False,left,0.0,1.443,1.4682,0.0253,0.4094,0.8758,0.4665,A,-0.03
116,0.49991,1.2,1,0.33327,0.27495,0.71653,116,1.88298,-0.8899999999999999,-0.44158,0.05832,5,lapse_rate,2.0,True,0.5,0,False,right,-0.16664,0.3467,0.3721,0.0253,1.1885,1.4886,0.3001,A,-0.03
117,0.49991,0.1,2,0.23329,0.43325,0.57489,117,2.13293,-0.21,-0.10831,0.39159,5,1D2U,2.0,False,0.467,7,True,right,0.24995,1.4448,1.9447,0.4999,0.0612,0.9197,0.8585,A,0.11
118,0.49991,1.2,2,0.35827,0.35827,0.69987,118,2.63285,0.43,0.21663,0.71653,5,2D1U,2.0,True,0.167,8,True,right,0.0,1.5579,2.2413,0.6835,0.3746,0.8414,0.4668,A,-0.03
119,0.49991,0.1,2,0.40826,0.24162,0.54157,119,1.74968,-0.8899999999999999,-0.44158,0.05832,5,lapse_rate,1.0,True,0.226,0,False,left,-0.16664,1.3786,1.5446,0.166,0.4455,0.8863,0.4408,A,0.11
120,0.49991,1.2,1,0.37493,0.24995,0.89983,120,2.39955,-0.25,-0.12498,0.37493,5,1D2U,2.0,True,0.159,7,False,right,0.24995,0.3919,0.7331,0.3412,1.525,2.2415,0.7165,A,-0.03
121,0.49991,1.2,1,0.32494,0.20829,0.5499,121,2.27458,0.39,0.19163,0.69154,5,2D1U,1.0,True,0.222,9,True,left,0.0,0.3429,1.0012,0.6583,1.5679,2.0345,0.4666,A,-0.03
122,0.49991,0.1,2,0.41659,0.39159,0.88317,122,2.56619,-0.25,-0.12498,0.37493,5,1D2U,2.0,False,0.113,7,False,right,-0.16664,1.7228,2.2059,0.4831,0.4472,0.8894,0.4422,A,0.11
123,0.49991,0.1,2,0.25829,0.38326,0.76652,123,2.59952,0.39,0.19163,0.69154,5,2D1U,2.0,True,0.114,9,True,right,0.24995,1.6586,2.4581,0.7995,0.0841,0.9422,0.8581,A,0.11
124,0.49991,0.1,2,0.42492,0.33327,0.56656,124,1.88298,-0.8899999999999999,-0.44158,0.05832,5,lapse_rate,1.0,True,0.166,0,False,left,0.0,1.5013,1.6681,0.1667,0.3768,0.9849,0.6081,A,0.11
125,0.49991,0.1,2,0.25829,0.22496,0.83318,125,2.49121,0.35,0.17497,0.67487,5,2D1U,2.0,True,0.233,9,False,right,-0.16664,1.5179,2.3009,0.783,0.2931,0.7348,0.4417,A,0.11
126,0.49991,1.2,2,0.29161,0.3666,0.74153,126,2.25792,-0.29,-0.14164,0.35827,5,1D2U,2.0,False,0.134,7,False,right,0.24995,1.6563,1.9816,0.3252,0.1817,0.8975,0.7158,A,-0.03
127,0.49991,0.1,2,0.31661,0.37493,0.84151,127,2.98278,0.9,0.44992,0.94982,5,lapse_rate,2.0,True,0.112,0,False,right,0.0,1.67,2.7277,1.0577,0.2698,0.8773,0.6075,A,0.11
128,0.49991,1.2,1,0.22496,0.44158,0.8915,128,2.73282,0.35,0.17497,0.67487,5,2D1U,1.0,True,0.376,9,False,left,-0.16664,0.2447,0.8861,0.6414,1.8777,2.1783,0.3006,A,-0.03
129,0.49991,1.2,2,0.43325,0.31661,0.68321,129,2.8828,0.9,0.44992,0.94982,5,lapse_rate,2.0,True,0.113,0,False,right,0.24995,1.7413,2.6574,0.9161,0.3248,1.0413,0.7165,A,-0.03
130,0.49991,1.2,2,0.25829,0.28328,0.85817,130,2.23292,-0.33,-0.16664,0.33327,5,1D2U,2.0,False,0.253,7,False,right,0.0,1.6158,1.9162,0.3004,0.2743,0.7416,0.4673,A,-0.03
131,0.49991,0.1,1,0.39159,0.20829,0.56656,131,1.98296,-0.37,-0.1833,0.31661,5,1D2U,2.0,True,0.25,7,False,right,-0.16664,0.3396,0.7647,0.4252,1.3652,1.8063,0.4411,A,0.11
132,0.49991,0.1,1,0.22496,0.29994,0.40826,132,2.09128,0.31,0.1583,0.65821,5,2D1U,1.0,True,0.113,9,False,left,0.24995,0.1764,0.9431,0.7667,1.1764,2.035,0.8585,A,0.11
133,0.49991,1.2,2,0.39159,0.41659,0.74153,133,2.99944,0.9,0.44992,0.94982,5,lapse_rate,2.0,True,0.172,0,False,right,0.0,1.6359,2.5531,0.9172,0.4115,0.8775,0.466,A,-0.03
134,0.49991,0.1,2,0.43325,0.26662,0.7082,134,2.56619,0.31,0.1583,0.65821,5,2D1U,1.0,False,0.158,9,False,left,-0.16664,1.5647,2.3317,0.7669,0.4651,0.9066,0.4415,A,0.11
135,0.49991,1.2,2,0.31661,0.42492,0.76652,135,2.32457,-0.37,-0.1833,0.31661,5,1D2U,1.0,True,0.167,7,False,left,0.24995,1.7057,1.9891,0.2834,0.2056,0.9224,0.7168,A,-0.03
136,0.49991,1.2,2,0.37493,0.40826,0.43325,136,1.77467,-0.8899999999999999,-0.44158,0.05832,5,lapse_rate,1.0,True,0.239,0,False,left,0.0,1.3074,1.3324,0.025,0.3908,0.857,0.4663,A,-0.03
137,0.49991,1.2,2,0.40826,0.37493,0.74153,137,2.3579,-0.33,-0.16664,0.33327,5,1D2U,1.0,True,0.163,8,True,left,-0.16664,1.5636,1.8638,0.3001,0.5047,0.8053,0.3006,A,-0.03
138,0.49991,1.2,2,0.25829,0.20829,0.7082,138,2.34956,0.35,0.17497,0.67487,5,2D1U,2.0,True,0.25,10,True,right,0.24995,1.5869,2.2284,0.6415,0.1454,0.8616,0.7162,A,-0.03
139,0.49991,1.2,1,0.31661,0.37493,0.88317,139,3.02444,0.9,0.44992,0.94982,5,lapse_rate,1.0,True,0.177,0,False,left,0.0,0.3329,1.2503,0.9174,2.1506,2.6171,0.4665,A,-0.03
140,0.49991,0.1,2,0.40826,0.25829,0.5499,140,2.04963,-0.33,-0.16664,0.33327,5,1D2U,1.0,True,0.417,8,True,left,-0.16664,1.3808,1.8225,0.4417,0.4386,0.8803,0.4417,A,0.11
141,0.49991,0.1,2,0.41659,0.19996,0.59989,141,1.77467,-0.8899999999999999,-0.44158,0.05832,5,lapse_rate,1.0,True,0.408,0,False,left,0.24995,1.646,1.8125,0.1665,0.2376,1.0961,0.8585,A,0.11
142,0.49991,0.1,1,0.33327,0.3666,0.59989,142,2.47454,0.35,0.17497,0.67487,5,2D1U,2.0,False,0.434,10,True,right,0.0,0.2816,1.0651,0.7835,1.6148,2.2229,0.6081,A,0.11
143,0.49991,0.1,1,0.3666,0.32494,0.64155,143,1.89132,-0.8899999999999999,-0.44158,0.05832,5,lapse_rate,2.0,True,0.167,0,False,right,-0.16664,0.3116,0.4787,0.1671,1.1539,1.5957,0.4417,A,0.11
144,0.49991,0.1,1,0.39159,0.25829,0.64155,144,2.14961,-0.29,-0.14164,0.35827,5,1D2U,2.0,True,0.113,8,False,right,0.24995,0.3406,0.8072,0.4666,1.2742,2.1319,0.8577,A,0.11
145,0.49991,1.2,2,0.28328,0.37493,0.71653,145,2.56619,0.39,0.19163,0.69154,5,2D1U,2.0,True,0.572,10,False,right,0.0,1.4962,2.154,0.6578,0.2957,0.7627,0.467,A,-0.03
146,0.49991,1.2,1,0.26662,0.20829,0.79152,146,2.45788,0.39,0.19163,0.69154,5,2D1U,2.0,False,0.347,10,False,right,-0.16664,0.2815,0.9401,0.6586,1.8318,2.1317,0.2999,A,-0.03
147,0.49991,1.2,2,0.37493,0.30828,0.49991,147,2.0413,-0.29,-0.14164,0.35827,5,1D2U,1.0,True,0.333,8,False,left,0.24995,1.5022,1.8274,0.3252,0.2691,0.9851,0.716,A,-0.03
148,0.49991,0.1,2,0.37493,0.22496,0.85817,148,2.90779,0.9,0.44992,0.94982,5,lapse_rate,2.0,True,0.167,0,False,right,0.0,1.7431,2.8015,1.0584,0.3264,0.9351,0.6087,A,0.11
149,0.49991,0.1,1,0.31661,0.23329,0.41659,149,2.18293,0.43,0.21663,0.71653,5,2D1U,1.0,True,0.167,10,False,left,-0.16664,0.2651,1.0901,0.825,1.5402,1.9811,0.4409,A,0.11
150,0.49991,0.1,2,0.28328,0.20829,0.71653,150,1.76633,-0.8899999999999999,-0.44158,0.05832,5,lapse_rate,1.0,True,0.15,0,False,left,0.24995,1.6291,1.7954,0.1662,0.1045,0.9624,0.8578,A,0.11
151,0.49991,0.1,2,0.23329,0.41659,0.49991,151,2.02463,-0.25,-0.12498,0.37493,5,1D2U,2.0,False,0.114,8,False,right,0.0,1.24,1.7237,0.4837,0.182,0.7905,0.6085,A,0.11
152,0.49991,0.1,2,0.35827,0.44158,0.87484,152,2.53287,-0.29,-0.14164,0.35827,5,1D2U,2.0,False,0.208,9,True,right,-0.16664,1.6555,2.1216,0.4662,0.3884,0.8301,0.4416,A,0.11
153,0.49991,1.2,2,0.25829,0.20829,0.53323,153,2.44954,0.9,0.44992,0.94982,5,lapse_rate,2.0,True,0.15,0,False,right,0.24995,1.4136,2.3299,0.9163,0.1466,0.8636,0.717,A,-0.03
154,0.49991,1.2,2,0.20829,0.3416,0.7082,154,2.47453,0.43,0.21663,0.71653,5,2D1U,2.0,True,0.113,10,False,right,0.0,1.4156,2.0985,0.6829,0.2233,0.6906,0.4673,A,-0.03
155,0.49991,1.2,2,0.43325,0.29161,0.77486,155,2.69117,0.39,0.19163,0.69154,5,2D1U,2.0,True,0.112,11,True,right,-0.16664,1.628,2.2864,0.6583,0.5364,0.8362,0.2998,A,-0.03
156,0.49991,0.1,2,0.21663,0.41659,0.40826,156,1.59971,-0.8899999999999999,-0.44158,0.05832,5,lapse_rate,1.0,True,0.508,0,False,left,0.24995,1.2591,1.4256,0.1666,0.0424,0.9006,0.8582,A,0.11
157,0.49991,1.2,2,0.24995,0.26662,0.86651,157,2.21626,-0.33,-0.16664,0.33327,5,1D2U,2.0,False,0.301,9,False,right,0.0,1.6125,1.9127,0.3002,0.2616,0.7286,0.467,A,-0.03
158,0.49991,0.1,1,0.32494,0.44992,0.54157,158,2.13295,-0.37,-0.1833,0.31661,5,1D2U,2.0,True,0.116,9,False,right,-0.16664,0.2716,0.6968,0.4252,1.2717,1.7134,0.4417,A,0.11
159,0.49991,0.1,2,0.24162,0.31661,0.40826,159,1.52472,-0.8899999999999999,-0.44158,0.05832,5,lapse_rate,1.0,True,0.259,0,False,left,0.24995,1.2818,1.448,0.1662,0.0645,0.9233,0.8588,A,0.11
160,0.49991,0.1,1,0.38326,0.27495,0.87484,160,2.7245,0.39,0.19163,0.69154,5,2D1U,2.0,False,0.2,11,True,right,0.0,0.3348,1.1349,0.8,1.9594,2.5681,0.6087,A,0.11
161,0.49991,0.1,2,0.38326,0.37493,0.45825,161,2.43288,0.43,0.21663,0.71653,5,2D1U,2.0,True,0.259,12,True,right,-0.16664,1.268,2.0925,0.8244,0.4169,0.8595,0.4425,A,0.11
162,0.49991,1.2,1,0.29994,0.39993,0.59156,162,1.84966,-0.8899999999999999,-0.44158,0.05832,5,lapse_rate,2.0,True,0.291,0,False,right,0.24995,0.3125,0.3364,0.0238,0.8202,1.5369,0.7167,A,-0.03
163,0.49991,1.2,2,0.24162,0.42492,0.85817,163,2.34123,-0.37,-0.1833,0.31661,5,1D2U,1.0,True,0.112,9,False,left,0.0,1.6032,1.8865,0.2834,0.2616,0.7282,0.4666,A,-0.03
164,0.49991,1.2,2,0.35827,0.32494,0.54157,164,2.05796,-0.33,-0.16664,0.33327,5,1D2U,2.0,False,0.138,10,True,right,-0.16664,1.3172,1.6177,0.3005,0.4587,0.7588,0.3001,A,-0.03
165,0.49991,1.2,2,0.35827,0.37493,0.77486,165,2.7245,0.43,0.21663,0.71653,5,2D1U,2.0,True,0.114,12,True,right,0.24995,1.7611,2.4437,0.6826,0.2527,0.9695,0.7168,A,-0.03
166,0.49991,1.2,2,0.43325,0.37493,0.60822,166,2.86613,0.9,0.44992,0.94982,5,lapse_rate,2.0,True,0.116,0,False,right,0.0,1.5425,2.4595,0.917,0.4517,0.918,0.4663,A,-0.03
167,0.49991,1.2,1,0.29161,0.33327,0.69987,167,2.77448,0.9,0.44992,0.94982,5,lapse_rate,1.0,True,0.116,0,False,left,-0.16664,0.3034,1.22,0.9166,2.0193,2.3199,0.3006,A,-0.03
168,0.49991,0.1,2,0.24995,0.35827,0.56656,168,1.9913,-0.37,-0.1833,0.31661,5,1D2U,1.0,True,0.509,11,True,left,0.24995,1.4492,1.8734,0.4242,0.0734,0.9321,0.8587,A,0.11
169,0.49991,0.1,1,0.29994,0.25829,0.72486,169,2.47454,0.39,0.19163,0.69154,5,2D1U,2.0,False,0.191,13,True,right,0.0,0.245,1.0455,0.8004,1.7203,2.329,0.6087,A,0.11
170,0.49991,0.1,1,0.34993,0.35827,0.72486,170,2.6495,0.43,0.21663,0.71653,5,2D1U,1.0,True,0.158,14,True,left,-0.16664,0.3013,1.1264,0.8251,1.8848,2.3263,0.4414,A,0.11
171,0.49991,1.2,2,0.44158,0.38326,0.78319,171,2.42455,-0.37,-0.1833,0.31661,5,1D2U,1.0,True,0.114,11,True,left,0.24995,1.8482,2.1318,0.2836,0.3317,1.0487,0.717,A,-0.03
172,0.49991,0.1,1,0.27495,0.35827,0.51657,172,2.59952,0.9,0.44992,0.94982,5,lapse_rate,1.0,True,0.113,0,False,left,0.0,0.2208,1.2786,1.0578,1.7461,2.3543,0.6082,A,0.11
173,0.49991,1.2,2,0.3416,0.25829,0.59989,173,2.03296,-0.33,-0.16664,0.33327,5,1D2U,1.0,True,0.275,12,True,left,-0.16664,1.3547,1.6546,0.3,0.4376,0.7384,0.3008,A,-0.03
174,0.49991,1.2,2,0.32494,0.26662,0.47491,174,2.28291,0.43,0.21663,0.71653,5,2D1U,2.0,True,0.209,14,True,right,0.24995,1.4237,2.1067,0.683,0.2153,0.9316,0.7163,A,-0.03
175,0.49991,0.1,2,0.24995,0.41659,0.39993,175,1.6247,-0.8899999999999999,-0.44158,0.05832,5,lapse_rate,1.0,True,0.114,0,False,left,0.0,1.1555,1.3214,0.1659,0.197,0.8053,0.6083,A,0.11
176,0.49991,0.1,1,0.19996,0.24162,0.72486,176,1.99962,-0.33,-0.16664,0.33327,5,1D2U,2.0,True,0.259,12,True,right,-0.16664,0.1466,0.5884,0.4418,1.3471,1.7881,0.441,A,0.11
177,0.49991,0.1,1,0.33327,0.3416,0.58322,177,1.81632,-0.8899999999999999,-0.44158,0.05832,5,lapse_rate,2.0,True,0.425,0,False,right,0.24995,0.2802,0.4477,0.1675,0.855,1.7141,0.8591,A,0.11
178,0.49991,0.1,2,0.25829,0.37493,0.69987,178,2.52454,0.39,0.19163,0.69154,5,2D1U,2.0,True,0.113,15,True,right,0.0,1.4682,2.2683,0.8001,0.21,0.8185,0.6086,A,0.11
179,0.49991,0.1,2,0.25829,0.29161,0.50824,179,2.24959,0.39,0.19163,0.69154,5,2D1U,2.0,True,0.142,15,True,right,-0.16664,1.1885,1.9879,0.7994,0.2882,0.7298,0.4416,A,0.11
180,0.49991,0.1,1,0.41659,0.20829,0.60822,180,1.79133,-0.8899999999999999,-0.44158,0.05832,5,lapse_rate,2.0,True,0.113,0,False,right,0.24995,0.3703,0.5371,0.1667,0.9703,1.8286,0.8584,A,0.11
181,0.49991,1.2,2,0.26662,0.29161,0.86651,181,2.28292,-0.29,-0.14164,0.35827,5,1D2U,2.0,False,0.183,12,False,right,0.0,1.6364,1.9615,0.325,0.2863,0.7529,0.4666,A,-0.03
182,0.49991,1.2,1,0.25829,0.32494,0.47491,182,2.23292,0.35,0.17497,0.67487,5,2D1U,1.0,True,0.114,15,False,left,-0.16664,0.2702,0.9125,0.6423,1.4877,1.7877,0.3,A,-0.03
183,0.49991,0.1,2,0.24995,0.24162,0.87484,183,2.81614,0.9,0.44992,0.94982,5,lapse_rate,2.0,True,0.113,0,False,right,0.24995,1.7538,2.8125,1.0587,0.0707,0.9295,0.8588,A,0.11
184,0.49991,1.2,2,0.39993,0.26662,0.45825,184,1.95798,-0.33,-0.16664,0.33327,5,1D2U,1.0,True,0.187,13,True,left,0.0,1.3545,1.6544,0.2999,0.4123,0.8788,0.4665,A,-0.03
185,0.49991,0.1,2,0.44158,0.39993,0.75819,185,2.15793,-0.8899999999999999,-0.44158,0.05832,5,lapse_rate,1.0,True,0.111,0,False,left,-0.16664,1.6271,1.7939,0.1668,0.4771,0.9186,0.4416,A,0.11
186,0.49991,0.1,1,0.26662,0.25829,0.61655,186,2.31624,0.35,0.17497,0.67487,5,2D1U,2.0,False,0.114,15,False,right,0.24995,0.2153,0.9984,0.7831,1.4403,2.2988,0.8584,A,0.11
187,0.49991,0.1,1,0.3666,0.28328,0.5249,187,2.00796,-0.33,-0.16664,0.33327,5,1D2U,2.0,True,0.114,13,True,right,0.0,0.313,0.7544,0.4414,1.2295,1.8379,0.6084,A,0.11
188,0.49991,0.1,2,0.3416,0.42492,0.48324,188,2.69949,0.9,0.44992,0.94982,5,lapse_rate,2.0,True,0.114,0,False,right,-0.16664,1.2484,2.3067,1.0583,0.373,0.815,0.4419,A,0.11
189,0.49991,0.1,1,0.30828,0.41659,0.50824,189,2.42456,0.39,0.19163,0.69154,5,2D1U,2.0,False,0.441,16,True,right,0.24995,0.2563,1.0566,0.8002,1.3897,2.2484,0.8588,A,0.11
190,0.49991,1.2,1,0.42492,0.31661,0.44992,190,2.04963,-0.29,-0.14164,0.35827,5,1D2U,2.0,True,0.152,14,True,right,0.0,0.4435,0.768,0.3245,1.2347,1.7014,0.4666,A,-0.03
191,0.49991,1.2,2,0.28328,0.37493,0.57489,191,2.44954,0.43,0.21663,0.71653,5,2D1U,2.0,True,0.111,16,False,right,-0.16664,1.277,1.9603,0.6833,0.3851,0.6852,0.3,A,-0.03
192,0.49991,0.1,1,0.42492,0.20829,0.69987,192,1.89131,-0.8899999999999999,-0.44158,0.05832,5,lapse_rate,2.0,True,0.11,0,False,right,0.24995,0.3768,0.5434,0.1666,1.0686,1.9263,0.8577,A,0.11
193,0.49991,1.2,1,0.29161,0.26662,0.84984,193,2.26625,-0.29,-0.14164,0.35827,5,1D2U,2.0,True,0.216,14,True,right,0.0,0.3053,0.6299,0.3246,1.4971,1.964,0.467,A,-0.03
194,0.49991,0.1,2,0.29994,0.24995,0.56656,194,2.33289,0.43,0.21663,0.71653,5,2D1U,2.0,True,0.183,16,False,right,-0.16664,1.2935,2.1186,0.8251,0.3357,0.7768,0.4411,A,0.11
195,0.49991,0.1,1,0.20829,0.32494,0.5499,195,1.95797,-0.25,-0.12498,0.37493,5,1D2U,2.0,True,0.441,14,False,right,0.24995,0.1552,0.6385,0.4834,1.0136,1.872,0.8584,A,0.11
196,0.49991,0.1,1,0.33327,0.26662,0.7332,196,2.78282,0.9,0.44992,0.94982,5,lapse_rate,2.0,False,0.126,0,False,right,0.0,0.2813,1.3391,1.0578,2.0226,2.6308,0.6082,A,0.11
197,0.49991,0.1,2,0.42492,0.32494,0.47491,197,2.41622,0.39,0.19163,0.69154,5,2D1U,2.0,True,0.125,17,True,right,-0.16664,1.3231,2.1235,0.8004,0.4568,0.8987,0.442,A,0.11
198,0.49991,1.2,2,0.31661,0.30828,0.64988,198,1.833,-0.8899999999999999,-0.44158,0.05832,5,lapse_rate,1.0,True,0.334,0,False,left,0.24995,1.5902,1.615,0.0248,0.2067,0.9232,0.7164,A,-0.03
199,0.49991,1.2,2,0.39159,0.24162,0.74986,199,2.25791,-0.25,-0.12498,0.37493,5,1D2U,2.0,False,0.228,14,False,right,0.0,1.6445,1.986,0.3415,0.4109,0.8775,0.4666,A,-0.03
200,0.49991,1.2,1,0.3666,0.30828,0.74153,200,2.27459,-0.29,-0.14164,0.35827,5,1D2U,2.0,True,0.201,15,True,right,-0.16664,0.3864,0.7113,0.3249,1.553,1.853,0.3,A,-0.03
201,0.49991,1.2,1,0.24162,0.33327,0.86651,201,1.99963,-0.8899999999999999,-0.44158,0.05832,5,lapse_rate,2.0,True,0.115,0,False,right,0.24995,0.2595,0.2846,0.0251,1.0429,1.7598,0.7169,A,-0.03
202,0.49991,1.2,2,0.29994,0.26662,0.56656,202,2.32457,0.39,0.19163,0.69154,5,2D1U,2.0,True,0.237,17,True,right,0.0,1.3697,2.0278,0.658,0.3201,0.7861,0.466,A,-0.03
203,0.49991,0.1,2,0.39159,0.27495,0.5499,203,2.39122,0.35,0.17497,0.67487,5,2D1U,2.0,True,0.25,17,False,right,-0.16664,1.3628,2.1448,0.7821,0.4205,0.8619,0.4413,A,0.11
204,0.49991,0.1,1,0.32494,0.41659,0.40826,204,1.70802,-0.8899999999999999,-0.44158,0.05832,5,lapse_rate,2.0,True,0.399,0,False,right,0.24995,0.2763,0.4426,0.1663,0.6765,1.5347,0.8582,A,0.11
205,0.49991,0.1,1,0.31661,0.41659,0.77486,205,2.36624,-0.29,-0.14164,0.35827,5,1D2U,2.0,True,0.159,15,True,right,0.0,0.268,0.7344,0.4663,1.4594,2.0678,0.6083,A,0.11
206,0.49991,0.1,1,0.38326,0.3666,0.63322,206,2.83281,0.9,0.44992,0.94982,5,lapse_rate,1.0,True,0.141,0,False,left,-0.16664,0.3359,1.3942,1.0583,2.0606,2.5027,0.4421,A,0.11
207,0.49991,0.1,1,0.38326,0.21663,0.64988,207,2.42455,0.35,0.17497,0.67487,5,2D1U,2.0,False,0.111,17,False,right,0.24995,0.3304,1.1135,0.7832,1.5886,2.4462,0.8576,A,0.11
208,0.49991,1.2,2,0.44158,0.43325,0.88317,208,2.63284,-0.25,-0.12498,0.37493,5,1D2U,2.0,False,0.111,16,True,right,0.0,1.8258,2.1672,0.3414,0.4597,0.9263,0.4666,A,-0.03
209,0.49991,0.1,2,0.24162,0.26662,0.53323,209,2.4912,0.9,0.44992,0.94982,5,lapse_rate,2.0,True,0.166,0,False,right,-0.16664,1.2013,2.2596,1.0583,0.2758,0.718,0.4422,A,0.11
210,0.49991,1.2,1,0.27495,0.44158,0.84984,210,2.75782,0.39,0.19163,0.69154,5,2D1U,2.0,False,0.251,18,True,right,0.24995,0.2864,0.946,0.6596,1.687,2.4037,0.7167,A,-0.03
211,0.49991,1.2,2,0.37493,0.20829,0.68321,211,2.12461,-0.29,-0.14164,0.35827,5,1D2U,2.0,False,0.259,17,True,right,0.0,1.5567,1.882,0.3253,0.3903,0.8564,0.466,A,-0.03
212,0.49991,0.1,1,0.24995,0.26662,0.5249,212,2.25791,0.43,0.21663,0.71653,5,2D1U,2.0,False,0.209,18,False,right,-0.16664,0.2013,1.0263,0.825,1.5849,2.0263,0.4415,A,0.11
213,0.49991,0.1,1,0.24995,0.26662,0.5499,213,1.89965,-0.33,-0.16664,0.33327,5,1D2U,2.0,True,0.113,17,False,right,0.24995,0.2029,0.6441,0.4412,1.0197,1.8774,0.8577,A,0.11
214,0.49991,1.2,2,0.22496,0.28328,0.67487,214,1.74134,-0.8899999999999999,-0.44158,0.05832,5,lapse_rate,2.0,False,0.35,0,False,right,0.0,1.3975,1.4226,0.0251,0.2398,0.7058,0.466,A,-0.03
215,0.49991,0.1,2,0.29161,0.35827,0.42492,215,2.30791,0.47,0.23329,0.7332,5,2D1U,2.0,True,0.133,18,False,right,-0.16664,1.1397,1.9819,0.8422,0.3238,0.765,0.4412,A,0.11
216,0.49991,1.2,1,0.44992,0.30828,0.46658,216,2.67451,0.9,0.44992,0.94982,5,lapse_rate,2.0,False,0.142,0,False,right,0.24995,0.4634,1.3807,0.9173,1.7397,2.4557,0.716,A,-0.03
217,0.49991,1.2,2,0.19996,0.34993,0.88317,217,2.26624,-0.33,-0.16664,0.33327,5,1D2U,2.0,False,0.215,17,False,right,0.0,1.5828,1.8824,0.2995,0.2157,0.6823,0.4667,A,-0.03
218,0.49991,1.2,1,0.39159,0.34993,0.75819,218,2.94944,0.9,0.44992,0.94982,5,lapse_rate,1.0,True,0.12,0,False,left,-0.16664,0.4096,1.3263,0.9168,2.1848,2.4846,0.2998,A,-0.03
219,0.49991,1.2,1,0.27495,0.39993,0.40826,219,2.31625,0.47,0.23329,0.7332,5,2D1U,2.0,False,0.113,18,False,right,0.24995,0.2897,0.9895,0.6998,1.289,2.0062,0.7172,A,-0.03
220,0.49991,1.2,2,0.24995,0.29161,0.81651,220,2.17459,-0.37,-0.1833,0.31661,5,1D2U,1.0,True,0.225,17,False,left,0.0,1.5679,1.851,0.2831,0.2678,0.7348,0.467,A,-0.03
221,0.49991,0.1,1,0.38326,0.37493,0.76652,221,2.78281,0.51,0.25829,0.75819,5,2D1U,1.0,True,0.251,18,False,left,-0.16664,0.3321,1.1987,0.8666,1.9989,2.4404,0.4415,A,0.11
222,0.49991,1.2,2,0.29161,0.38326,0.7332,222,2.8578,0.9,0.44992,0.94982,5,lapse_rate,2.0,True,0.113,0,False,right,0.24995,1.6465,2.5631,0.9165,0.1801,0.8966,0.7165,A,-0.03
223,0.49991,0.1,1,0.34993,0.28328,0.66654,223,2.11627,-0.37,-0.1833,0.31661,5,1D2U,2.0,True,0.166,17,False,right,0.0,0.2958,0.7209,0.4251,1.3374,1.946,0.6086,A,0.11
224,0.49991,0.1,2,0.23329,0.27495,0.45825,224,2.22459,0.51,0.25829,0.75819,5,2D1U,2.0,True,0.208,18,False,right,-0.16664,1.1169,1.9836,0.8667,0.2668,0.7084,0.4417,A,0.11
225,0.49991,1.2,1,0.30828,0.43325,0.84151,225,3.03277,0.9,0.44992,0.94982,5,lapse_rate,2.0,False,0.115,0,False,right,0.24995,0.3265,1.2431,0.9166,1.9764,2.6933,0.7169,A,-0.03
226,0.49991,1.2,1,0.26662,0.41659,0.49158,226,2.00797,-0.33,-0.16664,0.33327,5,1D2U,2.0,True,0.249,18,True,right,0.0,0.2816,0.5812,0.2996,1.0902,1.5566,0.4664,A,-0.03
227,0.49991,1.2,2,0.40826,0.38326,0.44158,227,2.06628,-0.33,-0.16664,0.33327,5,1D2U,1.0,True,0.112,18,True,left,-0.16664,1.2689,1.569,0.3001,0.5107,0.8104,0.2997,A,-0.03
228,0.49991,0.1,2,0.24995,0.42492,0.88317,228,3.00777,0.9,0.44992,0.94982,5,lapse_rate,2.0,True,0.4,0,False,right,0.24995,1.7696,2.8278,1.0582,0.078,0.9364,0.8585,A,0.11
229,0.49991,1.2,1,0.38326,0.39993,0.51657,229,2.53287,0.47,0.23329,0.7332,5,2D1U,1.0,True,0.109,19,True,left,0.0,0.3971,1.0963,0.6992,1.6301,2.0971,0.467,A,-0.03
230,0.49991,0.1,2,0.19996,0.24995,0.45825,230,1.76634,-0.29,-0.14164,0.35827,5,1D2U,2.0,False,0.209,18,False,right,-0.16664,1.0815,1.5483,0.4668,0.2316,0.6733,0.4417,A,0.11
231,0.49991,0.1,2,0.21663,0.30828,0.54157,231,2.29959,0.47,0.23329,0.7332,5,2D1U,2.0,True,0.442,19,True,right,0.24995,1.3901,2.2312,0.8411,0.0397,0.8981,0.8584,A,0.11
232,0.49991,0.1,2,0.41659,0.31661,0.59156,232,1.88299,-0.8899999999999999,-0.44158,0.05832,5,lapse_rate,2.0,False,0.208,0,False,right,0.0,1.514,1.6807,0.1668,0.3636,0.9721,0.6086,A,0.11
233,0.49991,0.1,1,0.24995,0.42492,0.80818,233,2.31623,-0.33,-0.16664,0.33327,5,1D2U,2.0,True,0.225,19,True,right,-0.16664,0.1981,0.6396,0.4415,1.4809,1.923,0.4421,A,0.11
234,0.49991,1.2,2,0.28328,0.42492,0.50824,234,2.43288,0.43,0.21663,0.71653,5,2D1U,2.0,True,0.124,19,False,right,0.24995,1.4188,2.1022,0.6834,0.1771,0.8936,0.7165,A,-0.03
235,0.49991,1.2,2,0.28328,0.20829,0.44158,235,1.49138,-0.8899999999999999,-0.44158,0.05832,5,lapse_rate,2.0,False,0.365,0,False,right,0.0,1.226,1.2509,0.0249,0.3011,0.7678,0.4667,A,-0.03
236,0.49991,1.2,2,0.29994,0.38326,0.74153,236,2.64117,0.43,0.21663,0.71653,5,2D1U,2.0,True,0.139,19,False,right,-0.16664,1.4559,2.139,0.6831,0.3975,0.6974,0.2998,A,-0.03
237,0.49991,0.1,1,0.39993,0.41659,0.82485,237,2.1996,-0.8899999999999999,-0.44158,0.05832,5,lapse_rate,2.0,True,0.113,0,False,right,0.24995,0.3502,0.5169,0.1667,1.166,2.0252,0.8592,A,0.11
238,0.49991,1.2,2,0.24162,0.33327,0.67487,238,2.08294,-0.33,-0.16664,0.33327,5,1D2U,2.0,False,0.195,19,True,right,0.0,1.4137,1.7145,0.3008,0.2553,0.7218,0.4665,A,-0.03
239,0.49991,1.2,2,0.33327,0.24995,0.68321,239,1.82466,-0.8899999999999999,-0.44158,0.05832,5,lapse_rate,1.0,True,0.267,0,False,left,-0.16664,1.4327,1.4577,0.025,0.4328,0.7332,0.3003,A,-0.03
240,0.49991,0.1,1,0.28328,0.39159,0.46658,240,1.95797,-0.37,-0.1833,0.31661,5,1D2U,2.0,True,0.114,19,False,right,0.24995,0.2287,0.6529,0.4242,0.9456,1.8037,0.8581,A,0.11
241,0.49991,0.1,1,0.28328,0.43325,0.7332,241,2.64118,0.39,0.19163,0.69154,5,2D1U,1.0,True,0.113,19,False,left,0.0,0.2341,1.0342,0.8001,1.7173,2.3257,0.6084,A,0.11
242,0.49991,0.1,2,0.21663,0.31661,0.44158,242,1.53305,-0.8899999999999999,-0.44158,0.05832,5,lapse_rate,1.0,True,0.166,0,False,left,-0.16664,1.0862,1.2533,0.1671,0.2533,0.695,0.4417,A,0.11
243,0.49991,0.1,1,0.35827,0.42492,0.51657,243,2.11628,-0.37,-0.1833,0.31661,5,1D2U,2.0,True,0.113,19,False,right,0.24995,0.3095,0.7342,0.4247,1.0758,1.9341,0.8583,A,0.11
244,0.49991,1.2,2,0.41659,0.38326,0.55823,244,2.54953,0.39,0.19163,0.69154,5,2D1U,2.0,True,0.176,19,False,right,0.0,1.4758,2.1341,0.6583,0.4344,0.9009,0.4665,A,-0.03
245,0.49991,1.2,1,0.44158,0.25829,0.64155,245,2.79115,0.9,0.44992,0.94982,5,lapse_rate,1.0,True,0.15,0,False,left,-0.16664,0.4595,1.3761,0.9166,2.1178,2.4178,0.3,A,-0.03
246,0.49991,1.2,2,0.29994,0.37493,0.59989,246,2.44954,0.35,0.17497,0.67487,5,2D1U,2.0,True,0.113,19,False,right,0.24995,1.5262,2.168,0.6419,0.193,0.9095,0.7165,A,-0.03
247,0.49991,1.2,1,0.43325,0.42492,0.66654,247,2.35789,-0.33,-0.16664,0.33327,5,1D2U,2.0,True,0.181,20,True,right,0.0,0.453,0.7533,0.3003,1.4361,1.9025,0.4664,A,-0.03
248,0.49991,0.1,1,0.38326,0.23329,0.86651,248,2.65784,0.35,0.17497,0.67487,5,2D1U,1.0,True,0.267,19,False,left,-0.16664,0.3286,1.1124,0.7838,2.0123,2.4533,0.4409,A,0.11
249,0.49991,0.1,1,0.28328,0.35827,0.64155,249,1.84133,-0.8899999999999999,-0.44158,0.05832,5,lapse_rate,2.0,True,0.114,0,False,right,0.24995,0.2336,0.4006,0.1669,0.8677,1.7262,0.8586,A,0.11
250,0.49991,0.1,2,0.31661,0.33327,0.71653,250,2.19959,-0.33,-0.16664,0.33327,5,1D2U,2.0,False,0.3,20,True,right,0.0,1.5385,1.9807,0.4422,0.2635,0.872,0.6085,A,0.11
251,0.49991,0.1,2,0.42492,0.25829,0.76652,251,2.26625,-0.37,-0.1833,0.31661,5,1D2U,2.0,False,0.25,21,True,right,-0.16664,1.6174,2.0436,0.4262,0.4596,0.9017,0.4421,A,0.11
252,0.49991,1.2,2,0.22496,0.34993,0.50824,252,2.24125,0.31,0.1583,0.65821,5,2D1U,2.0,True,0.117,19,False,right,0.24995,1.3605,1.9861,0.6256,0.1198,0.836,0.7163,A,-0.03
253,0.49991,1.2,1,0.29161,0.23329,0.61655,253,2.29957,0.31,0.1583,0.65821,5,2D1U,1.0,True,0.284,19,False,left,0.0,0.3112,0.9359,0.6247,1.5692,2.0359,0.4667,A,-0.03
254,0.49991,1.2,1,0.38326,0.41659,0.42492,254,2.3579,0.27,0.13331,0.63322,5,2D1U,2.0,False,0.11,19,False,right,-0.16664,0.4038,1.0028,0.599,1.5284,1.8284,0.3,A,-0.03
255,0.49991,0.1,1,0.25829,0.23329,0.51657,255,1.79967,-0.41,-0.20829,0.29161,5,1D2U,2.0,True,0.113,21,False,right,0.24995,0.2075,0.6075,0.4,0.9494,1.8075,0.8581,A,0.11
256,0.49991,0.1,2,0.33327,0.42492,0.48324,256,2.39955,0.31,0.1583,0.65821,5,2D1U,2.0,True,0.114,20,True,right,0.0,1.3218,2.0882,0.7664,0.2801,0.8884,0.6083,A,0.11
257,0.49991,0.1,1,0.42492,0.40826,0.71653,257,2.34123,-0.41,-0.20829,0.29161,5,1D2U,2.0,True,0.242,21,False,right,-0.16664,0.3699,0.7704,0.4006,1.5207,1.9628,0.4422,A,0.11
258,0.49991,1.2,1,0.40826,0.32494,0.85817,258,2.74949,0.31,0.1583,0.65821,5,2D1U,2.0,False,0.114,20,True,right,0.24995,0.4203,1.0457,0.6254,1.7958,2.5122,0.7165,A,-0.03
259,0.49991,1.2,1,0.42492,0.23329,0.77486,259,2.60785,0.35,0.17497,0.67487,5,2D1U,2.0,False,0.186,20,False,right,0.0,0.4421,1.0837,0.6416,1.8755,2.3424,0.4669,A,-0.03
260,0.49991,1.2,1,0.40826,0.40826,0.64988,260,2.28292,-0.37,-0.1833,0.31661,5,1D2U,2.0,True,0.497,22,True,right,-0.16664,0.4215,0.7045,0.283,1.4547,1.7542,0.2995,A,-0.03
261,0.49991,0.1,1,0.26662,0.28328,0.54157,261,2.28292,0.39,0.19163,0.69154,5,2D1U,1.0,True,0.113,20,False,left,0.24995,0.218,1.0182,0.8003,1.3848,2.243,0.8581,A,0.11
262,0.49991,0.1,1,0.22496,0.26662,0.56656,262,1.87466,-0.37,-0.1833,0.31661,5,1D2U,2.0,True,0.115,22,True,right,0.0,0.1714,0.5969,0.4255,1.1136,1.7219,0.6083,A,0.11
263,0.49991,0.1,2,0.24162,0.21663,0.50824,263,2.15794,0.39,0.19163,0.69154,5,2D1U,2.0,True,0.216,20,False,right,-0.16664,1.1761,1.9766,0.8005,0.276,0.7178,0.4418,A,0.11
264,0.49991,1.2,2,0.44158,0.26662,0.62488,264,2.16626,-0.33,-0.16664,0.33327,5,1D2U,1.0,True,0.15,22,False,left,0.24995,1.6907,1.9909,0.3002,0.3328,1.049,0.7162,A,-0.03
265,0.49991,1.2,2,0.43325,0.44158,0.8915,265,2.94111,0.35,0.17497,0.67487,5,2D1U,2.0,True,0.113,21,True,right,0.0,1.8259,2.4671,0.6413,0.4508,0.9176,0.4668,A,-0.03
266,0.49991,1.2,1,0.32494,0.44158,0.80818,266,2.40788,-0.33,-0.16664,0.33327,5,1D2U,1.0,False,0.114,22,False,left,-0.16664,0.343,0.6433,0.3003,1.5515,1.8514,0.2999,A,-0.03
267,0.49991,0.1,1,0.37493,0.28328,0.84151,267,2.6745,0.35,0.17497,0.67487,5,2D1U,2.0,False,0.115,21,True,right,0.24995,0.3221,1.1053,0.7832,1.7722,2.6301,0.8579,A,0.11
268,0.49991,0.1,1,0.21663,0.3666,0.72486,268,2.12461,-0.37,-0.1833,0.31661,5,1D2U,1.0,False,0.167,23,True,left,0.0,0.1631,0.5893,0.4263,1.2638,1.8725,0.6087,A,0.11
269,0.49991,0.1,1,0.20829,0.21663,0.40826,269,1.6247,-0.41,-0.20829,0.29161,5,1D2U,2.0,True,0.243,23,False,right,-0.16664,0.1609,0.5606,0.3997,1.0027,1.4443,0.4416,A,0.11
270,0.49991,1.2,2,0.39993,0.44158,0.75819,270,2.79115,0.39,0.19163,0.69154,5,2D1U,2.0,True,0.158,22,True,right,0.24995,1.7848,2.4424,0.6577,0.2929,1.0097,0.7168,A,-0.03
271,0.49991,1.2,1,0.20829,0.38326,0.60822,271,1.99129,-0.41,-0.20829,0.29161,5,1D2U,2.0,True,0.231,23,False,right,0.0,0.2217,0.4802,0.2585,1.1047,1.5711,0.4664,A,-0.03
272,0.49991,1.2,1,0.26662,0.30828,0.61655,272,2.00797,-0.37,-0.1833,0.31661,5,1D2U,2.0,True,0.113,24,True,right,-0.16664,0.2807,0.5641,0.2834,1.2809,1.5809,0.3,A,-0.03
273,0.49991,0.1,2,0.30828,0.33327,0.44992,273,2.28292,0.39,0.19163,0.69154,5,2D1U,2.0,True,0.442,22,True,right,0.24995,1.3907,2.1909,0.8002,0.133,0.9907,0.8577,A,0.11
274,0.49991,0.1,2,0.28328,0.39993,0.75819,274,2.61618,0.35,0.17497,0.67487,5,2D1U,2.0,True,0.126,23,True,right,0.0,1.5503,2.3337,0.7834,0.2338,0.8422,0.6084,A,0.11
275,0.49991,0.1,2,0.43325,0.20829,0.62488,275,2.08294,-0.37,-0.1833,0.31661,5,1D2U,1.0,True,0.25,24,True,left,-0.16664,1.4828,1.9078,0.425,0.4664,0.9079,0.4414,A,0.11
276,0.49991,1.2,1,0.26662,0.31661,0.69154,276,2.10795,-0.33,-0.16664,0.33327,5,1D2U,2.0,True,0.112,24,False,right,0.24995,0.2849,0.585,0.3001,1.1683,1.8848,0.7165,A,-0.03
277,0.49991,1.2,1,0.25829,0.34993,0.82485,277,2.60785,0.35,0.17497,0.67487,5,2D1U,2.0,False,0.186,23,True,right,0.0,0.2763,0.918,0.6417,1.7596,2.2262,0.4667,A,-0.03
278,0.49991,1.2,2,0.41659,0.32494,0.53323,278,2.10794,-0.33,-0.16664,0.33327,5,1D2U,2.0,False,0.114,24,False,right,-0.16664,1.3661,1.6661,0.3001,0.5163,0.8158,0.2994,A,-0.03
279,0.49991,0.1,2,0.41659,0.28328,0.53323,279,2.04962,-0.37,-0.1833,0.31661,5,1D2U,1.0,True,0.516,25,True,left,0.24995,1.5808,2.0055,0.4247,0.2398,1.0988,0.859,A,0.11
280,0.49991,0.1,2,0.32494,0.3666,0.46658,280,2.34957,0.39,0.19163,0.69154,5,2D1U,2.0,True,0.432,24,True,right,0.0,1.2992,2.0994,0.8002,0.2746,0.8828,0.6082,A,0.11
281,0.49991,0.1,1,0.39993,0.24995,0.41659,281,1.88299,-0.37,-0.1833,0.31661,5,1D2U,2.0,True,0.216,25,True,right,-0.16664,0.3493,0.7745,0.4251,1.2243,1.6659,0.4416,A,0.11
282,0.49991,1.2,2,0.37493,0.31661,0.76652,282,2.64951,0.39,0.19163,0.69154,5,2D1U,2.0,True,0.2,24,True,right,0.24995,1.7694,2.4276,0.6583,0.2693,0.9861,0.7168,A,-0.03
283,0.49991,1.2,2,0.22496,0.44992,0.42492,283,1.93298,-0.33,-0.16664,0.33327,5,1D2U,1.0,True,0.288,26,True,left,0.0,1.1459,1.4458,0.2999,0.2376,0.7041,0.4665,A,-0.03
284,0.49991,1.2,2,0.37493,0.3416,0.72486,284,2.61617,0.35,0.17497,0.67487,5,2D1U,2.0,True,0.166,25,True,right,-0.16664,1.5135,2.1556,0.6421,0.4712,0.7711,0.2999,A,-0.03
285,0.49991,0.1,1,0.34993,0.44992,0.47491,285,2.44954,0.35,0.17497,0.67487,5,2D1U,2.0,False,0.634,25,True,right,0.24995,0.296,1.0791,0.7831,1.3794,2.2382,0.8588,A,0.11
286,0.49991,0.1,1,0.21663,0.21663,0.86651,286,2.13295,-0.33,-0.16664,0.33327,5,1D2U,1.0,False,0.758,26,True,left,0.0,0.1701,0.6114,0.4413,1.4281,2.0366,0.6085,A,0.11
287,0.49991,0.1,1,0.24995,0.34993,0.86651,287,2.65784,0.39,0.19163,0.69154,5,2D1U,1.0,True,0.283,26,True,left,-0.16664,0.1966,0.9964,0.7998,1.8963,2.3377,0.4414,A,0.11
288,0.49991,1.2,2,0.20829,0.35827,0.66654,288,2.42455,0.39,0.19163,0.69154,5,2D1U,2.0,True,0.225,26,True,right,0.24995,1.5009,2.1593,0.6584,0.1007,0.8173,0.7166,A,-0.03
289,0.49991,1.2,1,0.3416,0.22496,0.82485,289,2.20793,-0.37,-0.1833,0.31661,5,1D2U,1.0,False,0.629,27,True,left,0.0,0.3575,0.6402,0.2828,1.4825,1.949,0.4666,A,-0.03
290,0.49991,1.2,2,0.44158,0.34993,0.87484,290,2.84113,0.35,0.17497,0.67487,5,2D1U,2.0,True,0.111,27,True,right,-0.16664,1.7305,2.3722,0.6417,0.5383,0.8386,0.3003,A,-0.03
291,0.49991,0.1,2,0.40826,0.19996,0.71653,291,2.11627,-0.41,-0.20829,0.29161,5,1D2U,1.0,True,0.166,27,False,left,0.24995,1.7557,2.1634,0.4076,0.2302,1.0885,0.8583,A,0.11
292,0.49991,0.1,1,0.44158,0.37493,0.80818,292,2.79947,0.35,0.17497,0.67487,5,2D1U,2.0,False,0.175,27,True,right,0.0,0.3889,1.1722,0.7833,1.9306,2.5388,0.6082,A,0.11
293,0.49991,0.1,1,0.31661,0.38326,0.81651,293,2.70783,0.39,0.19163,0.69154,5,2D1U,1.0,True,0.125,28,True,left,-0.16664,0.2654,1.0648,0.7994,1.9145,2.3563,0.4418,A,0.11
294,0.49991,1.2,1,0.27495,0.31661,0.42492,294,1.808,-0.41,-0.20829,0.29161,5,1D2U,2.0,True,0.114,27,False,right,0.24995,0.2919,0.5506,0.2586,0.8669,1.5838,0.7169,A,-0.03
295,0.49991,1.2,2,0.3416,0.29994,0.76652,295,2.22458,-0.37,-0.1833,0.31661,5,1D2U,2.0,False,0.329,28,True,right,0.0,1.6079,1.8912,0.2833,0.3578,0.8246,0.4667,A,-0.03
296,0.49991,1.2,1,0.24162,0.33327,0.89983,296,2.66617,0.39,0.19163,0.69154,5,2D1U,2.0,False,0.117,28,True,right,-0.16664,0.2587,0.9175,0.6589,1.9175,2.2174,0.3,A,-0.03
297,0.49991,0.1,1,0.24995,0.29994,0.50824,297,1.84965,-0.41,-0.20829,0.29161,5,1D2U,2.0,True,0.793,29,True,right,0.24995,0.2019,0.602,0.4001,0.9354,1.7938,0.8584,A,0.11
298,0.49991,0.1,1,0.44158,0.40826,0.5249,298,2.59118,0.43,0.21663,0.71653,5,2D1U,2.0,False,0.141,28,False,right,0.0,0.3894,1.2135,0.8241,1.6888,2.2967,0.6079,A,0.11
299,0.49991,0.1,1,0.29994,0.30828,0.48324,299,2.32457,0.47,0.23329,0.7332,5,2D1U,1.0,True,0.167,28,False,left,-0.16664,0.251,1.0928,0.8418,1.61,2.0514,0.4414,A,0.11
300,0.49991,1.2,2,0.37493,0.23329,0.54157,300,1.94131,-0.41,-0.20829,0.29161,5,1D2U,1.0,True,0.2,29,True,left,0.24995,1.5368,1.7961,0.2593,0.2624,0.9796,0.7173,A,-0.03
301,0.49991,1.2,2,0.29161,0.3416,0.44992,301,1.89965,-0.37,-0.1833,0.31661,5,1D2U,1.0,True,0.25,30,True,left,0.0,1.2417,1.5247,0.283,0.3082,0.7743,0.466,A,-0.03
302,0.49991,1.2,2,0.23329,0.30828,0.55823,302,1.91632,-0.37,-0.1833,0.31661,5,1D2U,1.0,True,0.23,30,True,left,-0.16664,1.2064,1.4898,0.2834,0.331,0.6317,0.3008,A,-0.03
303,0.49991,0.1,2,0.44158,0.20829,0.79985,303,2.68283,0.47,0.23329,0.7332,5,2D1U,2.0,True,0.111,28,False,right,0.24995,1.8729,2.7146,0.8416,0.2651,1.1237,0.8586,A,0.11
304,0.49991,0.1,1,0.42492,0.40826,0.84151,304,2.89113,0.43,0.21663,0.71653,5,2D1U,1.0,True,0.491,29,True,left,0.0,0.376,1.2011,0.8251,1.9927,2.6011,0.6084,A,0.11
305,0.49991,0.1,2,0.31661,0.43325,0.44158,305,2.40788,0.43,0.21663,0.71653,5,2D1U,2.0,True,0.132,29,True,right,-0.16664,1.1817,2.0068,0.8251,0.3485,0.7897,0.4412,A,0.11
306,0.49991,1.2,1,0.29994,0.41659,0.74153,306,2.29124,-0.33,-0.16664,0.33327,5,1D2U,2.0,True,0.192,30,False,right,0.24995,0.3168,0.6173,0.3005,1.2512,1.9678,0.7166,A,-0.03
307,0.49991,1.2,1,0.38326,0.38326,0.59989,307,2.19959,-0.33,-0.16664,0.33327,5,1D2U,2.0,True,0.279,30,False,right,0.0,0.3986,0.6984,0.2999,1.3149,1.782,0.467,A,-0.03
308,0.49991,1.2,1,0.21663,0.25829,0.88317,308,2.54954,0.39,0.19163,0.69154,5,2D1U,1.0,True,0.163,29,False,left,-0.16664,0.2359,0.8947,0.6588,1.8782,2.1776,0.2994,A,-0.03
309,0.49991,0.1,1,0.44158,0.27495,0.62488,309,2.19959,-0.29,-0.14164,0.35827,5,1D2U,2.0,True,0.425,30,False,right,0.24995,0.3895,0.8562,0.4667,1.3064,2.165,0.8585,A,0.11
310,0.49991,0.1,2,0.3666,0.38326,0.84151,310,2.78282,0.39,0.19163,0.69154,5,2D1U,2.0,True,0.308,29,False,right,0.0,1.7133,2.5138,0.8005,0.3131,0.9217,0.6086,A,0.11
311,0.49991,0.1,2,0.34993,0.3666,0.64988,311,2.22459,-0.29,-0.14164,0.35827,5,1D2U,2.0,False,0.201,30,False,right,-0.16664,1.4219,1.8886,0.4667,0.3805,0.8218,0.4413,A,0.11
312,0.49991,1.2,2,0.40826,0.25829,0.55823,312,2.39956,0.35,0.17497,0.67487,5,2D1U,2.0,True,0.192,29,False,right,0.24995,1.5883,2.23,0.6417,0.2965,1.0134,0.7168,A,-0.03
313,0.49991,1.2,2,0.27495,0.38326,0.44158,313,1.93297,-0.33,-0.16664,0.33327,5,1D2U,2.0,False,0.526,31,True,right,0.0,1.2197,1.5201,0.3004,0.2947,0.7608,0.4661,A,-0.03
314,0.49991,1.2,1,0.37493,0.39993,0.66654,314,2.61618,0.35,0.17497,0.67487,5,2D1U,1.0,True,0.112,29,False,left,-0.16664,0.3897,1.0314,0.6418,1.7982,2.098,0.2998,A,-0.03
315,0.49991,0.1,1,0.42492,0.29161,0.62488,315,2.15793,-0.37,-0.1833,0.31661,5,1D2U,2.0,True,0.113,31,False,right,0.24995,0.3699,0.7955,0.4256,1.2456,2.1038,0.8582,A,0.11
316,0.49991,0.1,1,0.3666,0.24995,0.56656,316,2.34123,0.31,0.1583,0.65821,5,2D1U,2.0,False,0.114,29,False,right,0.0,0.3186,1.0849,0.7663,1.6014,2.2101,0.6087,A,0.11
317,0.49991,0.1,2,0.24995,0.35827,0.84151,317,2.62451,0.35,0.17497,0.67487,5,2D1U,2.0,True,0.184,30,True,right,-0.16664,1.5182,2.3015,0.7834,0.2848,0.7265,0.4417,A,0.11
318,0.49991,1.2,2,0.40826,0.24162,0.87484,318,2.34124,-0.37,-0.1833,0.31661,5,1D2U,2.0,False,0.258,31,False,right,0.24995,1.908,2.1915,0.2835,0.2999,1.0164,0.7166,A,-0.03
319,0.49991,1.2,1,0.34993,0.40826,0.81651,319,2.36622,-0.41,-0.20829,0.29161,5,1D2U,2.0,True,0.116,31,False,right,0.0,0.3629,0.6212,0.2583,1.4546,1.9207,0.4661,A,-0.03
320,0.49991,1.2,1,0.40826,0.3416,0.87484,320,2.41622,-0.41,-0.20829,0.29161,5,1D2U,2.0,True,0.242,31,False,right,-0.16664,0.4286,0.6868,0.2582,1.6619,1.9619,0.3,A,-0.03
321,0.49991,0.1,2,0.35827,0.23329,0.51657,321,2.28291,0.35,0.17497,0.67487,5,2D1U,2.0,True,0.113,30,True,right,0.24995,1.506,2.2887,0.7827,0.1804,1.0396,0.8592,A,0.11
322,0.49991,0.1,2,0.35827,0.34993,0.78319,322,2.30791,-0.37,-0.1833,0.31661,5,1D2U,1.0,True,0.113,32,True,left,0.0,1.6482,2.0735,0.4253,0.3069,0.9153,0.6083,A,0.11
323,0.49991,0.1,1,0.23329,0.3666,0.46658,323,2.22459,0.31,0.1583,0.65821,5,2D1U,1.0,True,0.114,31,True,left,-0.16664,0.1846,0.9514,0.7668,1.4513,1.8933,0.442,A,0.11
324,0.49991,1.2,2,0.22496,0.34993,0.79152,324,2.52453,0.31,0.1583,0.65821,5,2D1U,2.0,True,0.366,31,True,right,0.24995,1.6401,2.265,0.625,0.1152,0.8318,0.7166,A,-0.03
325,0.49991,1.2,1,0.25829,0.23329,0.75819,325,2.06629,-0.37,-0.1833,0.31661,5,1D2U,2.0,True,0.224,32,True,right,0.0,0.2783,0.5611,0.2828,1.3362,1.8025,0.4663,A,-0.03
326,0.49991,1.2,2,0.23329,0.29994,0.62488,326,1.99129,-0.33,-0.16664,0.33327,5,1D2U,2.0,False,0.241,32,False,right,-0.16664,1.2701,1.5702,0.3001,0.3288,0.6285,0.2997,A,-0.03
327,0.49991,0.1,1,0.37493,0.41659,0.40826,327,2.33291,0.27,0.13331,0.63322,5,2D1U,2.0,False,0.458,31,False,right,0.24995,0.3221,1.0643,0.7422,1.2975,2.1559,0.8584,A,0.11
328,0.49991,0.1,2,0.3416,0.29994,0.75819,328,2.21625,-0.37,-0.1833,0.31661,5,1D2U,1.0,True,0.291,33,True,left,0.0,1.6112,2.0365,0.4253,0.2935,0.9028,0.6093,A,0.11
329,0.49991,0.1,1,0.22496,0.29994,0.48324,329,2.16626,0.31,0.1583,0.65821,5,2D1U,2.0,False,0.243,32,True,right,-0.16664,0.172,0.9392,0.7672,1.4558,1.8976,0.4417,A,0.11
330,0.49991,1.2,1,0.35827,0.31661,0.61655,330,2.46621,0.35,0.17497,0.67487,5,2D1U,2.0,False,0.233,32,False,right,0.24995,0.3705,1.0125,0.642,1.5208,2.2374,0.7166,A,-0.03
331,0.49991,1.2,1,0.27495,0.28328,0.63322,331,2.00797,-0.37,-0.1833,0.31661,5,1D2U,2.0,True,0.265,33,True,right,0.0,0.2897,0.5731,0.2834,1.2234,1.6896,0.4662,A,-0.03
332,0.49991,1.2,2,0.27495,0.39159,0.60822,332,2.10794,-0.33,-0.16664,0.33327,5,1D2U,1.0,True,0.231,34,True,left,-0.16664,1.2974,1.5971,0.2996,0.3722,0.6724,0.3002,A,-0.03
333,0.49991,0.1,1,0.20829,0.25829,0.44992,333,1.74968,-0.33,-0.16664,0.33327,5,1D2U,2.0,True,0.114,34,True,right,0.24995,0.1555,0.5972,0.4418,0.8721,1.7305,0.8585,A,0.11
334,0.49991,0.1,2,0.34993,0.22496,0.69154,334,2.45788,0.39,0.19163,0.69154,5,2D1U,2.0,True,0.192,32,False,right,0.0,1.553,2.3526,0.7996,0.3029,0.9114,0.6085,A,0.11
335,0.49991,0.1,1,0.23329,0.20829,0.74986,335,2.38289,0.39,0.19163,0.69154,5,2D1U,2.0,False,0.258,32,False,right,-0.16664,0.1826,0.9831,0.8005,1.7664,2.2077,0.4413,A,0.11
336,0.49991,1.2,2,0.34993,0.39993,0.55823,336,2.16627,-0.29,-0.14164,0.35827,5,1D2U,1.0,True,0.113,34,False,left,0.24995,1.5347,1.859,0.3243,0.2426,0.96,0.7174,A,-0.03
337,0.49991,1.2,2,0.24995,0.39159,0.77486,337,2.63284,0.43,0.21663,0.71653,5,2D1U,2.0,True,0.456,32,False,right,0.0,1.5219,2.2053,0.6834,0.2637,0.73,0.4663,A,-0.03
338,0.49991,1.2,1,0.3416,0.38326,0.85817,338,2.44121,-0.29,-0.14164,0.35827,5,1D2U,2.0,True,0.117,34,False,right,-0.16664,0.3535,0.6789,0.3253,1.637,1.9371,0.3001,A,-0.03
339,0.49991,0.1,1,0.38326,0.24162,0.45825,339,2.29957,0.43,0.21663,0.71653,5,2D1U,1.0,True,0.114,32,False,left,0.24995,0.3345,1.159,0.8246,1.4428,2.3011,0.8583,A,0.11
340,0.49991,0.1,2,0.23329,0.39159,0.75819,340,2.25791,-0.25,-0.12498,0.37493,5,1D2U,2.0,False,0.125,34,False,right,0.0,1.4971,1.9806,0.4835,0.1804,0.7883,0.6078,A,0.11
341,0.49991,0.1,1,0.44992,0.39159,0.85817,341,2.89113,0.39,0.19163,0.69154,5,2D1U,2.0,False,0.15,33,True,right,-0.16664,0.4012,1.2012,0.8,2.0929,2.5345,0.4416,A,0.11
342,0.49991,1.2,2,0.43325,0.39993,0.84984,342,2.5412,-0.29,-0.14164,0.35827,5,1D2U,1.0,True,0.113,35,True,left,0.24995,1.9033,2.229,0.3257,0.3204,1.0363,0.716,A,-0.03
343,0.49991,1.2,1,0.44158,0.43325,0.59989,343,2.69116,0.43,0.21663,0.71653,5,2D1U,2.0,False,0.113,34,True,right,0.0,0.4558,1.1391,0.6833,1.7557,2.2229,0.4672,A,-0.03
344,0.49991,1.2,1,0.44158,0.23329,0.64155,344,2.1746,-0.29,-0.14164,0.35827,5,1D2U,2.0,True,0.209,35,True,right,-0.16664,0.457,0.7817,0.3247,1.524,1.8239,0.2999,A,-0.03
345,0.49991,0.1,1,0.21663,0.35827,0.47491,345,1.92465,-0.25,-0.12498,0.37493,5,1D2U,2.0,True,0.567,36,True,right,0.24995,0.1656,0.6487,0.4831,0.9489,1.8065,0.8576,A,0.11
346,0.49991,0.1,1,0.43325,0.23329,0.45825,346,2.3579,0.47,0.23329,0.7332,5,2D1U,2.0,False,0.208,34,False,right,0.0,0.3791,1.2208,0.8417,1.6292,2.2375,0.6083,A,0.11
347,0.49991,0.1,1,0.22496,0.24995,0.63322,347,1.98297,-0.25,-0.12498,0.37493,5,1D2U,2.0,True,0.234,36,True,right,-0.16664,0.1731,0.6571,0.484,1.3238,1.7649,0.4412,A,0.11
348,0.49991,1.2,2,0.20829,0.34993,0.65821,348,2.47453,0.51,0.25829,0.75819,5,2D1U,2.0,True,0.113,34,False,right,0.24995,1.4885,2.2132,0.7247,0.0965,0.8131,0.7165,A,-0.03
349,0.49991,1.2,1,0.43325,0.32494,0.61655,349,2.63284,0.51,0.25829,0.75819,5,2D1U,2.0,False,0.146,34,False,right,0.0,0.4527,1.1784,0.7256,1.8117,2.2778,0.4661,A,-0.03
350,0.49991,1.2,1,0.40826,0.21663,0.44158,350,2.34124,0.55,0.27495,0.77486,5,2D1U,1.0,True,0.159,34,False,left,-0.16664,0.4247,1.1657,0.741,1.7081,2.0083,0.3002,A,-0.03
351,0.49991,0.1,1,0.35827,0.24162,0.79152,351,2.66618,0.55,0.27495,0.77486,5,2D1U,1.0,True,0.114,34,False,left,0.24995,0.3097,1.1932,0.8835,1.8102,2.6676,0.8574,A,0.11
352,0.49991,0.1,1,0.29161,0.24162,0.71653,352,2.14126,-0.21,-0.10831,0.39159,5,1D2U,2.0,True,0.176,36,False,right,0.0,0.2397,0.7404,0.5007,1.4064,2.0152,0.6088,A,0.11
353,0.49991,0.1,1,0.29161,0.23329,0.76652,353,2.18292,-0.21,-0.10831,0.39159,5,1D2U,2.0,True,0.242,36,False,right,-0.16664,0.2445,0.7443,0.4998,1.5445,1.9861,0.4416,A,0.11
354,0.49991,1.2,2,0.39993,0.3666,0.5249,354,2.20793,-0.17,-0.08332,0.41659,5,1D2U,2.0,False,0.114,36,False,right,0.24995,1.5451,1.9283,0.3832,0.2871,1.0035,0.7164,A,-0.03
355,0.49991,1.2,1,0.29994,0.24162,0.82485,355,2.62451,0.51,0.25829,0.75819,5,2D1U,2.0,False,0.176,35,True,right,0.0,0.3131,1.0382,0.7251,1.8797,2.3464,0.4666,A,-0.03
356,0.49991,1.2,1,0.34993,0.29161,0.66654,356,2.58285,0.55,0.27495,0.77486,5,2D1U,1.0,True,0.114,36,True,left,-0.16664,0.3668,1.1082,0.7415,1.875,2.1749,0.2999,A,-0.03
357,0.49991,0.1,2,0.37493,0.39993,0.45825,357,2.12461,-0.21,-0.10831,0.39159,5,1D2U,1.0,True,0.441,37,True,left,0.24995,1.4702,1.9705,0.5003,0.204,1.0622,0.8582,A,0.11
358,0.49991,0.1,1,0.25829,0.29994,0.63322,358,2.46622,0.55,0.27495,0.77486,5,2D1U,2.0,False,0.112,36,True,right,0.0,0.2077,1.091,0.8833,1.6747,2.2827,0.6081,A,0.11
359,0.49991,0.1,2,0.3416,0.30828,0.67487,359,2.21625,-0.21,-0.10831,0.39159,5,1D2U,1.0,True,0.159,37,True,left,-0.16664,1.4444,1.9447,0.5003,0.3781,0.8201,0.442,A,0.11
360,0.49991,1.2,2,0.20829,0.21663,0.62488,360,1.9663,-0.17,-0.08332,0.41659,5,1D2U,2.0,False,0.199,38,True,right,0.24995,1.4559,1.8396,0.3837,0.0978,0.8147,0.7169,A,-0.03
361,0.49991,1.2,2,0.39993,0.22496,0.55823,361,2.47455,0.59,0.29161,0.79152,5,2D1U,2.0,True,0.113,36,False,right,0.0,1.4582,2.2164,0.7582,0.4165,0.8831,0.4666,A,-0.03
362,0.49991,1.2,1,0.26662,0.3416,0.65821,362,2.15793,-0.21,-0.10831,0.39159,5,1D2U,1.0,False,0.108,39,True,left,-0.16664,0.2855,0.6438,0.3583,1.4022,1.7026,0.3003,A,-0.03
363,0.49991,0.1,2,0.3666,0.30828,0.66654,363,2.63285,0.59,0.29161,0.79152,5,2D1U,2.0,True,0.59,36,False,right,0.24995,1.665,2.5653,0.9003,0.1901,1.0485,0.8584,A,0.11
364,0.49991,0.1,2,0.35827,0.20829,0.51657,364,1.95797,-0.25,-0.12498,0.37493,5,1D2U,1.0,True,0.175,39,False,left,0.0,1.3827,1.8665,0.4838,0.3082,0.9159,0.6077,A,0.11
365,0.49991,0.1,1,0.24995,0.38326,0.5249,365,2.43288,0.55,0.27495,0.77486,5,2D1U,1.0,True,0.111,37,True,left,-0.16664,0.1954,1.0793,0.8839,1.6381,2.0791,0.441,A,0.11
366,0.49991,1.2,2,0.39993,0.3416,0.77486,366,2.79116,0.55,0.27495,0.77486,5,2D1U,2.0,True,0.112,37,True,right,0.24995,1.7986,2.5402,0.7416,0.2902,1.007,0.7167,A,-0.03
367,0.49991,1.2,1,0.24162,0.29994,0.54157,367,1.95797,-0.25,-0.12498,0.37493,5,1D2U,2.0,True,0.134,39,False,right,0.0,0.2558,0.5976,0.3418,1.1558,1.6226,0.4669,A,-0.03
368,0.49991,1.2,1,0.24995,0.43325,0.54157,368,2.11627,-0.21,-0.10831,0.39159,5,1D2U,2.0,True,0.112,40,True,right,-0.16664,0.2628,0.6208,0.3581,1.2626,1.5624,0.2998,A,-0.03
369,0.49991,0.1,1,0.26662,0.33327,0.87484,369,2.36623,-0.21,-0.10831,0.39159,5,1D2U,2.0,True,0.625,40,True,right,0.24995,0.2172,0.718,0.5009,1.4178,2.2762,0.8584,A,0.11
370,0.49991,0.1,1,0.37493,0.33327,0.7082,370,2.6745,0.51,0.25829,0.75819,5,2D1U,1.0,True,0.114,37,False,left,0.0,0.3279,1.1947,0.8668,1.8532,2.4608,0.6076,A,0.11
371,0.49991,0.1,2,0.39159,0.38326,0.7332,371,2.42455,-0.17,-0.08332,0.41659,5,1D2U,2.0,False,0.151,40,False,right,-0.16664,1.5526,2.0775,0.525,0.4279,0.8699,0.442,A,0.11
372,0.49991,1.2,2,0.34993,0.30828,0.51657,372,2.06628,-0.21,-0.10831,0.39159,5,1D2U,1.0,True,0.113,41,True,left,0.24995,1.4928,1.8515,0.3588,0.2434,0.9595,0.7161,A,-0.03
373,0.49991,1.2,1,0.44158,0.31661,0.40826,373,2.42455,0.51,0.25829,0.75819,5,2D1U,2.0,False,0.158,37,False,right,0.0,0.4557,1.1815,0.7258,1.6059,2.0726,0.4667,A,-0.03
374,0.49991,1.2,2,0.42492,0.39993,0.56656,374,2.66618,0.55,0.27495,0.77486,5,2D1U,2.0,True,0.467,38,True,right,-0.16664,1.4053,2.1465,0.7412,0.5221,0.8219,0.2998,A,-0.03
375,0.49991,0.1,1,0.26662,0.27495,0.46658,375,1.89965,-0.21,-0.10831,0.39159,5,1D2U,2.0,True,0.523,41,True,right,0.24995,0.2127,0.713,0.5003,1.0048,1.8627,0.858,A,0.11
376,0.49991,0.1,2,0.41659,0.22496,0.64988,376,2.20793,-0.17,-0.08332,0.41659,5,1D2U,2.0,False,0.133,42,True,right,0.0,1.5728,2.0983,0.5255,0.3651,0.9734,0.6084,A,0.11
377,0.49991,0.1,1,0.3416,0.19996,0.7082,377,2.14126,-0.21,-0.10831,0.39159,5,1D2U,2.0,True,0.241,43,True,right,-0.16664,0.2898,0.7897,0.4999,1.5317,1.9726,0.4409,A,0.11
378,0.49991,1.2,2,0.41659,0.37493,0.55823,378,2.62452,0.55,0.27495,0.77486,5,2D1U,2.0,True,0.125,38,True,right,0.24995,1.5962,2.3382,0.742,0.3045,1.022,0.7175,A,-0.03
379,0.49991,1.2,1,0.26662,0.27495,0.84151,379,2.64118,0.51,0.25829,0.75819,5,2D1U,2.0,False,0.231,39,True,right,0.0,0.2809,1.0058,0.725,1.8642,2.3306,0.4665,A,-0.03
380,0.49991,1.2,2,0.41659,0.30828,0.84151,380,2.84115,0.55,0.27495,0.77486,5,2D1U,2.0,True,0.476,40,True,right,-0.16664,1.6724,2.4135,0.7411,0.5135,0.8132,0.2997,A,-0.03
381,0.49991,0.1,2,0.20829,0.43325,0.43325,381,1.96629,-0.21,-0.10831,0.39159,5,1D2U,2.0,False,0.466,43,True,right,0.24995,1.2714,1.7714,0.5,0.0302,0.8883,0.8581,A,0.11
382,0.49991,0.1,1,0.20829,0.42492,0.64988,382,2.55786,0.55,0.27495,0.77486,5,2D1U,1.0,True,0.114,40,True,left,0.0,0.1557,1.0396,0.8838,1.6392,2.2478,0.6086,A,0.11
383,0.49991,0.1,2,0.24162,0.20829,0.43325,383,1.758,-0.25,-0.12498,0.37493,5,1D2U,2.0,False,0.2,43,False,right,-0.16664,1.0973,1.5806,0.4833,0.2726,0.7142,0.4416,A,0.11
384,0.49991,1.2,2,0.39993,0.31661,0.79152,384,2.76616,0.51,0.25829,0.75819,5,2D1U,2.0,True,0.183,41,True,right,0.24995,1.8129,2.5379,0.725,0.288,1.0051,0.7171,A,-0.03
385,0.49991,1.2,2,0.23329,0.3666,0.43325,385,2.29124,0.51,0.25829,0.75819,5,2D1U,2.0,True,0.112,41,True,right,0.0,1.1682,1.8929,0.7247,0.2513,0.7185,0.4672,A,-0.03
386,0.49991,1.2,2,0.23329,0.21663,0.8915,386,2.1996,-0.29,-0.14164,0.35827,5,1D2U,1.0,True,0.239,43,False,left,-0.16664,1.5453,1.8704,0.3251,0.3359,0.6365,0.3006,A,-0.03
387,0.49991,0.1,1,0.31661,0.40826,0.45825,387,2.41623,0.47,0.23329,0.7332,5,2D1U,1.0,True,0.383,41,False,left,0.24995,0.2678,1.1089,0.8411,1.3925,2.2508,0.8584,A,0.11
388,0.49991,0.1,1,0.35827,0.39993,0.87484,388,2.49122,-0.29,-0.14164,0.35827,5,1D2U,2.0,True,0.242,43,False,right,0.0,0.309,0.7755,0.4665,1.6013,2.2089,0.6076,A,0.11
389,0.49991,0.1,2,0.28328,0.29994,0.56656,389,2.38289,0.47,0.23329,0.7332,5,2D1U,2.0,True,0.567,41,False,right,-0.16664,1.2763,2.1178,0.8416,0.3182,0.759,0.4408,A,0.11
390,0.49991,1.2,1,0.21663,0.44158,0.82485,390,2.3579,-0.25,-0.12498,0.37493,5,1D2U,2.0,True,0.191,44,True,right,0.24995,0.2307,0.5723,0.3416,1.2888,2.0055,0.7167,A,-0.03
391,0.49991,1.2,1,0.41659,0.29994,0.45825,391,2.39122,0.43,0.21663,0.71653,5,2D1U,2.0,False,0.259,41,False,right,0.0,0.4296,1.1122,0.6827,1.5871,2.0532,0.4661,A,-0.03
392,0.49991,1.2,2,0.39159,0.37493,0.46658,392,2.10794,-0.25,-0.12498,0.37493,5,1D2U,2.0,False,0.114,44,True,right,-0.16664,1.2752,1.6167,0.3415,0.4921,0.7912,0.2992,A,-0.03
393,0.49991,0.1,1,0.44158,0.38326,0.54157,393,2.59952,0.47,0.23329,0.7332,5,2D1U,1.0,True,0.509,42,True,left,0.24995,0.3933,1.2356,0.8423,1.6024,2.4607,0.8583,A,0.11
394,0.49991,0.1,1,0.38326,0.44158,0.44992,394,2.50787,0.47,0.23329,0.7332,5,2D1U,2.0,False,0.113,42,True,right,0.0,0.3318,1.1738,0.842,1.5732,2.1821,0.609,A,0.11
395,0.49991,0.1,1,0.24162,0.24995,0.84151,395,2.59118,0.51,0.25829,0.75819,5,2D1U,1.0,True,0.259,42,False,left,-0.16664,0.1941,1.0607,0.8666,1.9357,2.3773,0.4416,A,0.11
396,0.49991,1.2,1,0.44158,0.25829,0.88317,396,2.84114,0.51,0.25829,0.75819,5,2D1U,2.0,False,0.267,42,False,right,0.24995,0.4586,1.1837,0.7251,1.9585,2.675,0.7165,A,-0.03
397,0.49991,1.2,1,0.27495,0.44158,0.75819,397,2.3329,-0.29,-0.14164,0.35827,5,1D2U,2.0,True,0.266,45,True,right,0.0,0.2879,0.6129,0.325,1.388,1.8545,0.4666,A,-0.03
398,0.49991,1.2,2,0.44158,0.43325,0.69154,398,2.84114,0.55,0.27495,0.77486,5,2D1U,2.0,True,0.113,42,False,right,-0.16664,1.5516,2.2932,0.7415,0.5428,0.8432,0.3004,A,-0.03
399,0.49991,0.1,2,0.37493,0.22496,0.64155,399,2.09962,-0.29,-0.14164,0.35827,5,1D2U,1.0,True,0.113,45,True,left,0.24995,1.6534,2.1276,0.4742,0.2031,1.0619,0.8588,A,0.11
400,0.49991,0.1,1,0.41659,0.29161,0.44158,400,2.02462,-0.25,-0.12498,0.37493,5,1D2U,2.0,True,0.111,46,True,right,0.0,0.3638,0.8472,0.4834,1.2391,1.8473,0.6081,A,0.11
401,0.49991,0.1,1,0.38326,0.23329,0.44158,401,2.3329,0.55,0.27495,0.77486,5,2D1U,2.0,False,0.208,42,False,right,-0.16664,0.3332,1.2174,0.8841,1.6916,2.1338,0.4422,A,0.11
402,0.49991,1.2,1,0.41659,0.23329,0.85817,402,2.79948,0.59,0.29161,0.79152,5,2D1U,2.0,False,0.183,42,False,right,0.24995,0.4364,1.1945,0.7582,1.9439,2.6606,0.7167,A,-0.03
403,0.49991,1.2,1,0.31661,0.31661,0.89983,403,2.40789,-0.25,-0.12498,0.37493,5,1D2U,2.0,True,0.218,46,True,right,0.0,0.3363,0.6778,0.3415,1.5938,2.0609,0.4671,A,-0.03
404,0.49991,1.2,2,0.39159,0.29994,0.42492,404,2.43287,0.63,0.31661,0.81651,5,2D1U,2.0,True,0.17,42,False,right,-0.16664,1.2323,2.016,0.7837,0.4918,0.791,0.2992,A,-0.03
405,0.49991,0.1,1,0.39159,0.31661,0.84151,405,2.44121,-0.21,-0.10831,0.39159,5,1D2U,2.0,True,0.114,46,False,right,0.24995,0.3389,0.8385,0.4996,1.5051,2.3633,0.8582,A,0.11
406,0.49991,0.1,2,0.31661,0.26662,0.74153,406,2.21626,-0.21,-0.10831,0.39159,5,1D2U,2.0,False,0.175,46,False,right,0.0,1.5645,2.0649,0.5004,0.2651,0.873,0.6079,A,0.11
407,0.49991,0.1,1,0.3416,0.26662,0.43325,407,2.35789,0.63,0.31661,0.81651,5,2D1U,2.0,False,0.242,42,False,right,-0.16664,0.2927,1.218,0.9253,1.6844,2.1262,0.4417,A,0.11
408,0.49991,1.2,1,0.22496,0.30828,0.69154,408,2.09962,-0.25,-0.12498,0.37493,5,1D2U,2.0,True,0.113,47,True,right,0.24995,0.2376,0.5793,0.3417,1.1623,1.8792,0.7169,A,-0.03
409,0.49991,1.2,2,0.34993,0.38326,0.80818,409,2.41621,-0.25,-0.12498,0.37493,5,1D2U,1.0,True,0.288,47,True,left,0.0,1.661,2.0031,0.3421,0.3692,0.836,0.4668,A,-0.03
410,0.49991,1.2,2,0.26662,0.39159,0.72486,410,2.27457,-0.21,-0.10831,0.39159,5,1D2U,2.0,False,0.149,48,True,right,-0.16664,1.4067,1.7652,0.3585,0.365,0.6649,0.2999,A,-0.03
411,0.49991,0.1,2,0.33327,0.39159,0.59989,411,2.19959,-0.25,-0.12498,0.37493,5,1D2U,2.0,False,0.114,49,True,right,0.24995,1.5686,2.0518,0.4831,0.1603,1.0181,0.8578,A,0.11
412,0.49991,0.1,2,0.20829,0.21663,0.78319,412,2.5412,0.67,0.33327,0.83318,5,2D1U,2.0,True,0.525,42,False,right,0.0,1.4971,2.439,0.9419,0.155,0.7631,0.6081,A,0.11
413,0.49991,0.1,2,0.37493,0.29161,0.65821,413,2.18293,-0.29,-0.14164,0.35827,5,1D2U,2.0,False,0.459,49,False,right,-0.16664,1.4562,1.9236,0.4673,0.4065,0.8479,0.4414,A,0.11
414,0.49991,1.2,1,0.39993,0.29994,0.46658,414,2.49954,0.67,0.33327,0.83318,5,2D1U,2.0,False,0.115,42,False,right,0.24995,0.413,1.2134,0.8004,1.5709,2.2879,0.717,A,-0.03
415,0.49991,1.2,1,0.24995,0.19996,0.77486,415,2.58285,0.71,0.35827,0.85817,5,2D1U,2.0,False,0.292,42,False,right,0.0,0.2679,1.0926,0.8247,1.884,2.3514,0.4674,A,-0.03
416,0.49991,1.2,2,0.24995,0.37493,0.39993,416,1.85799,-0.33,-0.16664,0.33327,5,1D2U,1.0,True,0.211,49,False,left,-0.16664,1.0669,1.3669,0.3,0.35,0.6502,0.3002,A,-0.03
417,0.49991,0.1,1,0.31661,0.33327,0.7082,417,2.19126,-0.33,-0.16664,0.33327,5,1D2U,2.0,True,0.113,49,False,right,0.24995,0.2661,0.7074,0.4413,1.2411,2.0996,0.8585,A,0.11
418,0.49991,0.1,1,0.29161,0.40826,0.54157,418,2.61619,0.75,0.37493,0.87484,5,2D1U,2.0,False,0.113,42,False,right,0.0,0.2396,1.2229,0.9834,1.7148,2.3229,0.608,A,0.11
419,0.49991,0.1,2,0.33327,0.29994,0.61655,419,2.10794,-0.29,-0.14164,0.35827,5,1D2U,2.0,False,0.45,50,True,right,-0.16664,1.3759,1.8427,0.4668,0.367,0.8092,0.4422,A,0.11
420,0.49991,1.2,1,0.44158,0.34993,0.61655,420,2.79947,0.79,0.39159,0.8915,5,2D1U,2.0,False,2.459,42,False,right,0.24995,0.4539,1.3124,0.8585,1.8207,2.5375,0.7168,A,-0.03
421,0.49991,1.2,2,0.33327,0.20829,0.82485,421,2.78282,0.83,0.41659,0.9165,5,2D1U,2.0,True,0.262,42,False,right,0.0,1.6548,2.5379,0.8831,0.3458,0.813,0.4671,A,-0.03
422,0.49991,1.2,2,0.30828,0.21663,0.79985,422,2.74117,0.83,0.41659,0.9165,5,2D1U,2.0,True,0.134,42,False,right,-0.16664,1.523,2.4059,0.883,0.406,0.7055,0.2994,A,-0.03
423,0.49991,0.1,1,0.25829,0.30828,0.64155,423,2.59953,0.79,0.39159,0.8915,5,2D1U,2.0,False,0.114,43,True,right,0.24995,0.2043,1.2043,0.9999,1.671,2.5293,0.8584,A,0.11
424,0.49991,0.1,1,0.40826,0.23329,0.71653,424,2.19126,-0.33,-0.16664,0.33327,5,1D2U,2.0,True,0.142,51,True,right,0.0,0.3559,0.7976,0.4417,1.4639,2.0723,0.6084,A,0.11
425,0.49991,0.1,1,0.23329,0.37493,0.49991,425,2.52454,0.83,0.41659,0.9165,5,2D1U,2.0,False,0.132,44,True,right,-0.16664,0.1849,1.2109,1.026,1.7444,2.1859,0.4415,A,0.11
426,0.49991,1.2,2,0.40826,0.31661,0.72486,426,2.28291,-0.33,-0.16664,0.33327,5,1D2U,1.0,True,0.116,51,True,left,0.24995,1.7553,2.0558,0.3004,0.2974,1.014,0.7166,A,-0.03
427,0.49991,1.2,1,0.30828,0.23329,0.7332,427,2.13295,-0.29,-0.14164,0.35827,5,1D2U,2.0,True,0.334,52,True,right,0.0,0.3257,0.6504,0.3247,1.3999,1.8676,0.4677,A,-0.03
428,0.49991,1.2,1,0.41659,0.3666,0.53323,428,2.74949,0.87,0.43325,0.93316,5,2D1U,1.0,True,0.159,44,False,left,-0.16664,0.43,1.3304,0.9003,1.9639,2.2637,0.2998,A,-0.03
429,0.49991,0.1,1,0.40826,0.23329,0.5499,429,2.04963,-0.29,-0.14164,0.35827,5,1D2U,2.0,True,0.113,52,True,right,0.24995,0.3542,0.8211,0.4669,1.1957,2.0545,0.8588,A,0.11
430,0.49991,0.1,2,0.29994,0.30828,0.79152,430,2.83281,0.87,0.43325,0.93316,5,2D1U,2.0,True,0.309,44,False,right,0.0,1.5974,2.6391,1.0416,0.2474,0.8557,0.6083,A,0.11
431,0.49991,0.1,1,0.20829,0.23329,0.78319,431,2.09961,-0.25,-0.12498,0.37493,5,1D2U,1.0,False,0.283,52,False,left,-0.16664,0.1537,0.6375,0.4838,1.4543,1.896,0.4417,A,0.11
432,0.49991,1.2,2,0.21663,0.25829,0.58322,432,1.91632,-0.29,-0.14164,0.35827,5,1D2U,1.0,True,0.208,53,True,left,0.24995,1.4267,1.7516,0.3248,0.1099,0.8258,0.7159,A,-0.03
433,0.49991,1.2,1,0.22496,0.30828,0.81651,433,2.76616,0.83,0.41659,0.9165,5,2D1U,1.0,True,0.221,45,True,left,0.0,0.2448,1.1283,0.8835,1.9616,2.4286,0.467,A,-0.03
434,0.49991,1.2,1,0.32494,0.23329,0.59989,434,2.0163,-0.29,-0.14164,0.35827,5,1D2U,2.0,True,0.368,53,True,right,-0.16664,0.3377,0.6628,0.3252,1.3628,1.6625,0.2996,A,-0.03
435,0.49991,0.1,2,0.3416,0.29161,0.5499,435,2.05795,-0.25,-0.12498,0.37493,5,1D2U,1.0,True,0.625,54,True,left,0.24995,1.5222,2.0053,0.4832,0.1635,1.0218,0.8583,A,0.11
436,0.49991,0.1,2,0.29994,0.30828,0.88317,436,2.9078,0.83,0.41659,0.9165,5,2D1U,2.0,True,0.275,45,True,right,0.0,1.6929,2.7183,1.0255,0.2514,0.8599,0.6084,A,0.11
437,0.49991,0.1,2,0.32494,0.24162,0.65821,437,2.09961,-0.25,-0.12498,0.37493,5,1D2U,1.0,True,0.275,54,True,left,-0.16664,1.405,1.8876,0.4826,0.3554,0.7967,0.4413,A,0.11
438,0.49991,1.2,2,0.44992,0.29994,0.77486,438,2.91613,0.79,0.39159,0.8915,5,2D1U,2.0,True,0.192,45,False,right,0.24995,1.8493,2.7073,0.858,0.3414,1.0576,0.7162,A,-0.03
439,0.49991,1.2,1,0.43325,0.32494,0.64988,439,2.79948,0.79,0.39159,0.8915,5,2D1U,1.0,True,0.207,45,False,left,0.0,0.4509,1.3091,0.8582,1.9763,2.4425,0.4662,A,-0.03
440,0.49991,1.2,2,0.35827,0.35827,0.72486,440,2.3329,-0.21,-0.10831,0.39159,5,1D2U,2.0,False,0.15,54,False,right,-0.16664,1.4977,1.8558,0.3581,0.4559,0.7556,0.2997,A,-0.03
441,0.49991,0.1,2,0.31661,0.28328,0.77486,441,2.7495,0.75,0.37493,0.87484,5,2D1U,2.0,True,0.325,45,False,right,0.24995,1.7231,2.7059,0.9828,0.1389,0.9975,0.8586,A,0.11
442,0.49991,0.1,2,0.29161,0.26662,0.84984,442,2.78282,0.75,0.37493,0.87484,5,2D1U,2.0,True,0.208,45,False,right,0.0,1.6499,2.6333,0.9834,0.2419,0.8494,0.6075,A,0.11
443,0.49991,0.1,2,0.19996,0.24995,0.56656,443,1.89131,-0.25,-0.12498,0.37493,5,1D2U,2.0,False,0.517,55,True,right,-0.16664,1.19,1.6733,0.4833,0.2318,0.673,0.4412,A,0.11
444,0.49991,1.2,1,0.39159,0.24162,0.75819,444,2.24958,-0.29,-0.14164,0.35827,5,1D2U,2.0,True,0.167,55,False,right,0.24995,0.4099,0.7342,0.3243,1.3849,2.1011,0.7162,A,-0.03
445,0.49991,1.2,1,0.25829,0.39993,0.68321,445,2.69951,0.71,0.35827,0.85817,5,2D1U,2.0,False,0.112,45,False,right,0.0,0.2709,1.0965,0.8256,1.7962,2.2628,0.4666,A,-0.03
446,0.49991,1.2,1,0.42492,0.21663,0.53323,446,2.03296,-0.29,-0.14164,0.35827,5,1D2U,2.0,True,0.177,55,False,right,-0.16664,0.4372,0.7621,0.3249,1.3959,1.6956,0.2997,A,-0.03
447,0.49991,0.1,1,0.22496,0.21663,0.58322,447,2.39956,0.75,0.37493,0.87484,5,2D1U,2.0,False,0.113,46,True,right,0.24995,0.1774,1.1608,0.9834,1.5691,2.4359,0.8668,A,0.11
448,0.49991,0.1,2,0.29161,0.39159,0.74986,448,2.3079,-0.25,-0.12498,0.37493,5,1D2U,1.0,True,0.11,56,True,left,0.0,1.5533,2.0363,0.4831,0.2451,0.8535,0.6085,A,0.11
449,0.49991,0.1,2,0.42492,0.25829,0.72486,449,2.79948,0.79,0.39159,0.8915,5,2D1U,2.0,True,0.175,46,False,right,-0.16664,1.5711,2.5721,1.0009,0.4544,0.8962,0.4418,A,0.11
450,0.49991,1.2,2,0.27495,0.24995,0.74153,450,2.14127,-0.25,-0.12498,0.37493,5,1D2U,1.0,True,0.166,56,True,left,0.24995,1.6445,1.9858,0.3414,0.1691,0.8862,0.7171,A,-0.03
451,0.49991,1.2,2,0.3666,0.44158,0.66654,451,2.36622,-0.21,-0.10831,0.39159,5,1D2U,2.0,False,0.187,56,False,right,0.0,1.529,1.8882,0.3591,0.3799,0.8465,0.4666,A,-0.03
452,0.49991,1.2,1,0.40826,0.3666,0.86651,452,2.51621,-0.25,-0.12498,0.37493,5,1D2U,1.0,False,0.113,57,True,left,-0.16664,0.422,0.7636,0.3415,1.7306,2.0303,0.2997,A,-0.03
453,0.49991,0.1,1,0.41659,0.26662,0.63322,453,2.70784,0.79,0.39159,0.8915,5,2D1U,2.0,False,0.113,46,False,right,0.24995,0.3678,1.368,1.0002,1.8261,2.6847,0.8585,A,0.11
454,0.49991,0.1,2,0.20829,0.25829,0.43325,454,1.75801,-0.29,-0.14164,0.35827,5,1D2U,2.0,False,0.166,57,False,right,0.0,1.1534,1.6203,0.4669,0.1617,0.7706,0.6088,A,0.11
455,0.49991,0.1,2,0.29994,0.33327,0.53323,455,1.99962,-0.33,-0.16664,0.33327,5,1D2U,2.0,False,0.225,57,False,right,-0.16664,1.2576,1.6985,0.4409,0.3323,0.7739,0.4416,A,0.11
456,0.49991,1.2,1,0.23329,0.25829,0.87484,456,2.78283,0.83,0.41659,0.9165,5,2D1U,2.0,False,0.15,46,False,right,0.24995,0.2454,1.1287,0.8833,1.8949,2.6118,0.7169,A,-0.03
457,0.49991,1.2,2,0.31661,0.19996,0.88317,457,2.21626,-0.37,-0.1833,0.31661,5,1D2U,1.0,True,0.186,57,False,left,0.0,1.7022,1.9855,0.2833,0.3358,0.8022,0.4664,A,-0.03
458,0.49991,1.2,1,0.44158,0.19996,0.64155,458,2.71616,0.87,0.43325,0.93316,5,2D1U,1.0,True,0.111,46,False,left,-0.16664,0.4611,1.3606,0.8994,2.1023,2.4023,0.3,A,-0.03
459,0.49991,0.1,2,0.39993,0.29994,0.66654,459,2.18293,-0.37,-0.1833,0.31661,5,1D2U,2.0,False,0.542,57,False,right,0.24995,1.6971,2.1223,0.4252,0.222,1.0806,0.8586,A,0.11
460,0.49991,0.1,1,0.39159,0.29994,0.54157,460,2.02462,-0.41,-0.20829,0.29161,5,1D2U,2.0,True,0.112,57,False,right,0.0,0.3405,0.7398,0.3993,1.2325,1.8405,0.608,A,0.11
461,0.49991,0.1,1,0.29994,0.21663,0.53323,461,2.48287,0.87,0.43325,0.93316,5,2D1U,1.0,True,0.114,46,False,left,-0.16664,0.2527,1.2939,1.0412,1.8612,2.3027,0.4414,A,0.11
462,0.49991,1.2,2,0.39993,0.39993,0.80818,462,2.39956,-0.41,-0.20829,0.29161,5,1D2U,1.0,True,0.683,57,False,left,0.24995,1.8363,2.0944,0.2581,0.2944,1.0109,0.7165,A,-0.03
463,0.49991,1.2,2,0.19996,0.30828,0.69987,463,2.62452,0.83,0.41659,0.9165,5,2D1U,2.0,True,0.178,47,True,right,0.0,1.4032,2.2863,0.8831,0.2201,0.6859,0.4658,A,-0.03
464,0.49991,1.2,1,0.34993,0.37493,0.60822,464,2.74949,0.83,0.41659,0.9165,5,2D1U,1.0,True,0.311,47,True,left,-0.16664,0.3645,1.2477,0.8832,1.9561,2.2559,0.2999,A,-0.03
465,0.49991,0.1,2,0.24995,0.22496,0.79985,465,2.09128,-0.37,-0.1833,0.31661,5,1D2U,1.0,True,0.113,58,True,left,0.24995,1.6868,2.1111,0.4243,0.0786,0.9371,0.8585,A,0.11
466,0.49991,0.1,1,0.31661,0.42492,0.79985,466,2.93279,0.79,0.39159,0.8915,5,2D1U,2.0,False,0.125,47,False,right,0.0,0.2627,1.2625,0.9998,2.0128,2.6206,0.6079,A,0.11
467,0.49991,0.1,2,0.37493,0.38326,0.53323,467,2.10794,-0.37,-0.1833,0.31661,5,1D2U,1.0,True,0.217,58,True,left,-0.16664,1.3292,1.7543,0.4251,0.4039,0.846,0.4421,A,0.11
468,0.49991,1.2,2,0.29994,0.27495,0.59989,468,2.59119,0.83,0.41659,0.9165,5,2D1U,2.0,True,0.317,48,True,right,0.24995,1.5202,2.404,0.8837,0.1874,0.9039,0.7165,A,-0.03
469,0.49991,1.2,1,0.31661,0.40826,0.88317,469,2.44122,-0.33,-0.16664,0.33327,5,1D2U,2.0,True,0.184,58,False,right,0.0,0.3313,0.6319,0.3006,1.5309,1.998,0.4671,A,-0.03
470,0.49991,1.2,2,0.29994,0.30828,0.59989,470,2.62452,0.83,0.41659,0.9165,5,2D1U,2.0,True,0.14,48,True,right,-0.16664,1.313,2.1959,0.8829,0.3962,0.6952,0.2991,A,-0.03
471,0.49991,0.1,2,0.27495,0.24162,0.40826,471,1.75801,-0.33,-0.16664,0.33327,5,1D2U,2.0,False,0.112,58,False,right,0.24995,1.3175,1.7594,0.4419,0.1009,0.9593,0.8584,A,0.11
472,0.49991,0.1,1,0.42492,0.30828,0.68321,472,2.23293,-0.37,-0.1833,0.31661,5,1D2U,2.0,True,0.113,59,True,right,0.0,0.3743,0.7998,0.4255,1.4328,2.0413,0.6085,A,0.11
473,0.49991,0.1,1,0.3666,0.21663,0.47491,473,2.44955,0.79,0.39159,0.8915,5,2D1U,1.0,True,0.242,49,True,left,-0.16664,0.3149,1.3144,0.9995,1.8228,2.2646,0.4418,A,0.11
474,0.49991,1.2,2,0.37493,0.29994,0.44992,474,1.94131,-0.37,-0.1833,0.31661,5,1D2U,1.0,True,0.111,59,True,left,0.24995,1.4469,1.7312,0.2843,0.2637,0.9802,0.7165,A,-0.03
475,0.49991,1.2,2,0.26662,0.3666,0.44158,475,2.46621,0.79,0.39159,0.8915,5,2D1U,2.0,True,0.113,49,True,right,0.0,1.2051,2.0628,0.8576,0.2802,0.7473,0.4671,A,-0.03
476,0.49991,1.2,2,0.22496,0.21663,0.66654,476,2.48288,0.75,0.37493,0.87484,5,2D1U,2.0,True,0.149,49,False,right,-0.16664,1.3067,2.1485,0.8418,0.3235,0.6239,0.3004,A,-0.03
477,0.49991,0.1,1,0.21663,0.43325,0.75819,477,2.24125,-0.33,-0.16664,0.33327,5,1D2U,2.0,True,0.4,60,True,right,0.24995,0.17,0.6115,0.4416,1.195,2.0534,0.8583,A,0.11
478,0.49991,0.1,1,0.3666,0.38326,0.74986,478,2.3329,-0.33,-0.16664,0.33327,5,1D2U,2.0,True,0.15,60,True,right,0.0,0.3147,0.7559,0.4412,1.4566,2.0649,0.6083,A,0.11
479,0.49991,0.1,1,0.32494,0.40826,0.69154,479,2.79949,0.75,0.37493,0.87484,5,2D1U,1.0,True,0.113,49,False,left,-0.16664,0.2751,1.2589,0.9838,1.9835,2.4251,0.4416,A,0.11
480,0.49991,1.2,1,0.22496,0.24995,0.47491,480,2.3079,0.71,0.35827,0.85817,5,2D1U,1.0,True,0.183,49,False,left,0.24995,0.242,1.0669,0.8249,1.4336,2.1504,0.7167,A,-0.03
481,0.49991,1.2,2,0.29161,0.20829,0.55823,481,1.91631,-0.29,-0.14164,0.35827,5,1D2U,1.0,True,0.29,60,False,left,0.0,1.347,1.6716,0.3247,0.3055,0.7714,0.4659,A,-0.03
482,0.49991,1.2,2,0.24162,0.29161,0.47491,482,2.36622,0.71,0.35827,0.85817,5,2D1U,2.0,True,0.147,49,False,right,-0.16664,1.1286,1.9541,0.8255,0.3371,0.6376,0.3005,A,-0.03
483,0.49991,0.1,1,0.33327,0.3416,0.79985,483,2.80781,0.67,0.33327,0.83318,5,2D1U,1.0,True,0.111,49,False,left,0.24995,0.2861,1.228,0.942,1.853,2.7106,0.8576,A,0.11
484,0.49991,0.1,2,0.42492,0.31661,0.82485,484,2.42456,-0.29,-0.14164,0.35827,5,1D2U,2.0,False,0.113,60,False,right,0.0,1.76,2.2261,0.4661,0.3761,0.9846,0.6085,A,0.11
485,0.49991,0.1,1,0.25829,0.29161,0.42492,485,2.30791,0.67,0.33327,0.83318,5,2D1U,1.0,True,0.183,49,False,left,-0.16664,0.2055,1.1478,0.9423,1.6057,2.0474,0.4417,A,0.11
486,0.49991,1.2,1,0.37493,0.37493,0.51657,486,2.09961,-0.33,-0.16664,0.33327,5,1D2U,2.0,True,0.275,61,True,right,0.24995,0.3876,0.6872,0.2997,1.0955,1.8122,0.7167,A,-0.03
487,0.49991,1.2,1,0.37493,0.23329,0.64988,487,2.57452,0.63,0.31661,0.81651,5,2D1U,2.0,False,0.21,49,False,right,0.0,0.392,1.1751,0.7831,1.8417,2.3082,0.4665,A,-0.03
488,0.49991,1.2,2,0.30828,0.24995,0.44158,488,1.83299,-0.33,-0.16664,0.33327,5,1D2U,2.0,False,0.381,61,True,right,-0.16664,1.1691,1.4689,0.2998,0.4109,0.7102,0.2993,A,-0.03
489,0.49991,0.1,1,0.31661,0.29161,0.84984,489,2.79115,0.67,0.33327,0.83318,5,2D1U,2.0,False,0.516,50,True,right,0.24995,0.2648,1.2061,0.9413,1.8816,2.7401,0.8585,A,0.11
490,0.49991,0.1,2,0.42492,0.20829,0.45825,490,2.44954,0.71,0.35827,0.85817,5,2D1U,2.0,True,0.199,50,False,right,0.0,1.3937,2.3612,0.9675,0.3778,0.9853,0.6075,A,0.11
491,0.49991,0.1,1,0.40826,0.34993,0.58322,491,2.69949,0.71,0.35827,0.85817,5,2D1U,2.0,False,0.176,50,False,right,-0.16664,0.3609,1.327,0.9661,1.9438,2.3846,0.4409,A,0.11
492,0.49991,1.2,2,0.34993,0.26662,0.78319,492,2.21626,-0.37,-0.1833,0.31661,5,1D2U,1.0,True,0.258,61,False,left,0.24995,1.7572,2.0408,0.2836,0.2407,0.9573,0.7166,A,-0.03
493,0.49991,1.2,1,0.38326,0.32494,0.8915,493,2.41622,-0.37,-0.1833,0.31661,5,1D2U,2.0,True,0.24,61,False,right,0.0,0.3981,0.6819,0.2838,1.5899,2.057,0.4672,A,-0.03
494,0.49991,1.2,2,0.35827,0.38326,0.84151,494,2.41622,-0.33,-0.16664,0.33327,5,1D2U,1.0,True,0.139,62,True,left,-0.16664,1.6135,1.9135,0.3001,0.4551,0.7551,0.2999,A,-0.03
495,0.49991,0.1,2,0.24995,0.34993,0.5249,495,2.49953,0.75,0.37493,0.87484,5,2D1U,2.0,True,0.408,50,False,right,0.24995,1.4055,2.3888,0.9833,0.0722,0.9303,0.8581,A,0.11
496,0.49991,0.1,1,0.35827,0.3666,0.5499,496,2.64952,0.75,0.37493,0.87484,5,2D1U,1.0,True,0.113,50,False,left,0.0,0.3068,1.29,0.9832,1.7902,2.3985,0.6083,A,0.11
497,0.49991,0.1,1,0.20829,0.19996,0.69987,497,1.9413,-0.33,-0.16664,0.33327,5,1D2U,2.0,True,0.333,62,True,right,-0.16664,0.1602,0.6018,0.4416,1.3351,1.7768,0.4417,A,0.11
498,0.49991,1.2,2,0.28328,0.39159,0.5499,498,2.58285,0.71,0.35827,0.85817,5,2D1U,2.0,True,0.15,51,True,right,0.24995,1.4554,2.2801,0.8247,0.1719,0.8879,0.7161,A,-0.03
499,0.49991,1.2,2,0.43325,0.27495,0.72486,499,2.79114,0.71,0.35827,0.85817,5,2D1U,2.0,True,0.237,51,True,right,0.0,1.66,2.4851,0.8251,0.4524,0.9191,0.4667,A,-0.03
500,0.49991,1.2,1,0.42492,0.3416,0.78319,500,2.8828,0.67,0.33327,0.83318,5,2D1U,1.0,True,0.111,51,False,left,-0.16664,0.439,1.2389,0.7999,2.1222,2.422,0.2999,A,-0.03
501,0.49991,0.1,2,0.23329,0.24995,0.5499,501,2.36623,0.67,0.33327,0.83318,5,2D1U,2.0,True,0.113,51,False,right,0.24995,1.4183,2.3595,0.9411,0.0603,0.9183,0.858,A,0.11
502,0.49991,0.1,2,0.35827,0.44158,0.53323,502,2.19126,-0.29,-0.14164,0.35827,5,1D2U,1.0,True,0.508,62,False,left,0.0,1.3962,1.8636,0.4674,0.3045,0.9133,0.6089,A,0.11
503,0.49991,0.1,1,0.40826,0.3666,0.84151,503,2.47455,-0.29,-0.14164,0.35827,5,1D2U,2.0,True,0.225,62,False,right,-0.16664,0.358,0.8246,0.4666,1.6995,2.1406,0.4411,A,0.11
504,0.49991,1.2,1,0.21663,0.3416,0.89983,504,2.77448,0.63,0.31661,0.81651,5,2D1U,1.0,True,0.142,51,False,left,0.24995,0.2303,1.0136,0.7834,1.8059,2.5221,0.7163,A,-0.03
505,0.49991,1.2,1,0.3666,0.24162,0.81651,505,2.74115,0.63,0.31661,0.81651,5,2D1U,1.0,True,0.218,51,False,left,0.0,0.3823,1.1662,0.7839,1.999,2.4655,0.4666,A,-0.03
506,0.49991,1.2,1,0.42492,0.44158,0.87484,506,3.03277,0.59,0.29161,0.79152,5,2D1U,1.0,True,0.379,51,False,left,-0.16664,0.4446,1.2036,0.7591,2.1785,2.4787,0.3001,A,-0.03
507,0.49991,0.1,1,0.43325,0.21663,0.79152,507,2.31624,-0.25,-0.12498,0.37493,5,1D2U,2.0,True,0.266,62,False,right,0.24995,0.3821,0.865,0.4829,1.482,2.3482,0.8662,A,0.11
508,0.49991,0.1,2,0.26662,0.33327,0.66654,508,2.55786,0.59,0.29161,0.79152,5,2D1U,2.0,True,0.142,51,False,right,0.0,1.4387,2.3387,0.9,0.2138,0.822,0.6082,A,0.11
509,0.49991,0.1,1,0.33327,0.42492,0.55823,509,2.19126,-0.25,-0.12498,0.37493,5,1D2U,1.0,False,0.113,62,False,left,-0.16664,0.2804,0.7637,0.4833,1.3555,1.7973,0.4418,A,0.11
510,0.49991,1.2,2,0.28328,0.24162,0.87484,510,2.25792,-0.29,-0.14164,0.35827,5,1D2U,1.0,True,0.167,63,True,left,0.24995,1.7852,2.1108,0.3256,0.1774,0.8942,0.7168,A,-0.03
511,0.49991,1.2,2,0.37493,0.21663,0.46658,511,2.33291,0.55,0.27495,0.77486,5,2D1U,2.0,True,0.133,51,False,right,0.0,1.3394,2.081,0.7416,0.389,0.856,0.467,A,-0.03
512,0.49991,1.2,2,0.43325,0.34993,0.68321,512,2.32457,-0.29,-0.14164,0.35827,5,1D2U,1.0,True,0.109,63,True,left,-0.16664,1.5297,1.8549,0.3252,0.5296,0.8294,0.2998,A,-0.03
513,0.49991,0.1,1,0.42492,0.29161,0.60822,513,2.59952,0.55,0.27495,0.77486,5,2D1U,1.0,True,0.683,51,False,left,0.24995,0.3785,1.2607,0.8823,1.6945,2.553,0.8584,A,0.11
514,0.49991,0.1,1,0.44992,0.23329,0.49991,514,2.05796,-0.25,-0.12498,0.37493,5,1D2U,2.0,True,0.184,64,True,right,0.0,0.3978,0.8816,0.4838,1.3312,1.9392,0.6081,A,0.11
515,0.49991,0.1,2,0.3666,0.40826,0.45825,515,2.10795,-0.25,-0.12498,0.37493,5,1D2U,2.0,False,0.114,64,True,right,-0.16664,1.2476,1.7303,0.4827,0.3975,0.8385,0.441,A,0.11
516,0.49991,1.2,2,0.3666,0.29994,0.56656,516,2.4912,0.51,0.25829,0.75819,5,2D1U,2.0,True,0.114,51,False,right,0.24995,1.5569,2.2816,0.7247,0.2565,0.9738,0.7173,A,-0.03
517,0.49991,1.2,2,0.34993,0.44992,0.64155,517,2.6995,0.51,0.25829,0.75819,5,2D1U,2.0,True,0.177,51,False,right,0.0,1.4893,2.2143,0.725,0.3644,0.8309,0.4665,A,-0.03
518,0.49991,1.2,2,0.29161,0.28328,0.75819,518,2.19126,-0.29,-0.14164,0.35827,5,1D2U,2.0,False,0.121,65,True,right,-0.16664,1.4638,1.7885,0.3247,0.3891,0.6886,0.2995,A,-0.03
519,0.49991,0.1,2,0.33327,0.42492,0.45825,519,2.04962,-0.33,-0.16664,0.33327,5,1D2U,2.0,False,0.113,65,False,right,0.24995,1.4266,1.8681,0.4415,0.1591,1.0182,0.8591,A,0.11
520,0.49991,0.1,1,0.43325,0.44158,0.44992,520,2.55786,0.47,0.23329,0.7332,5,2D1U,2.0,False,0.112,51,False,right,0.0,0.3821,1.2243,0.8422,1.6241,2.2324,0.6083,A,0.11
521,0.49991,0.1,1,0.33327,0.3666,0.7332,521,2.69117,0.51,0.25829,0.75819,5,2D1U,1.0,True,0.142,52,True,left,-0.16664,0.2801,1.147,0.8669,1.9135,2.3553,0.4418,A,0.11
522,0.49991,1.2,1,0.33327,0.24162,0.65821,522,2.04962,-0.37,-0.1833,0.31661,5,1D2U,2.0,True,0.142,65,False,right,0.24995,0.3457,0.629,0.2834,1.179,1.8957,0.7167,A,-0.03
523,0.49991,1.2,1,0.39159,0.43325,0.77486,523,2.8578,0.51,0.25829,0.75819,5,2D1U,2.0,False,0.115,52,True,right,0.0,0.4056,1.1307,0.7251,1.9221,2.3884,0.4663,A,-0.03
524,0.49991,1.2,2,0.24995,0.26662,0.89983,524,2.23292,-0.37,-0.1833,0.31661,5,1D2U,2.0,False,0.195,65,False,right,-0.16664,1.5666,1.8495,0.2828,0.3506,0.6496,0.2989,A,-0.03
525,0.49991,0.1,1,0.40826,0.25829,0.62488,525,2.5662,0.55,0.27495,0.77486,5,2D1U,2.0,False,0.113,52,False,right,0.24995,0.3564,1.2393,0.883,1.6897,2.5479,0.8582,A,0.11
526,0.49991,0.1,2,0.44158,0.31661,0.48324,526,2.03295,-0.41,-0.20829,0.29161,5,1D2U,1.0,True,0.291,65,False,left,0.0,1.4301,1.8304,0.4003,0.3885,0.9968,0.6084,A,0.11
527,0.49991,0.1,1,0.38326,0.39993,0.67487,527,2.24958,-0.41,-0.20829,0.29161,5,1D2U,2.0,True,0.3,65,False,right,-0.16664,0.3313,0.7313,0.3999,1.4397,1.8816,0.4419,A,0.11
528,0.49991,1.2,1,0.42492,0.34993,0.39993,528,2.46621,0.59,0.29161,0.79152,5,2D1U,2.0,False,0.115,52,False,right,0.24995,0.4384,1.1964,0.758,1.4875,2.2047,0.7171,A,-0.03
529,0.49991,1.2,2,0.26662,0.39159,0.76652,529,2.74115,0.63,0.31661,0.81651,5,2D1U,2.0,True,0.217,52,False,right,0.0,1.5285,2.3118,0.7833,0.2785,0.7449,0.4664,A,-0.03
530,0.49991,1.2,1,0.32494,0.28328,0.60822,530,2.53286,0.63,0.31661,0.81651,5,2D1U,1.0,True,0.163,52,False,left,-0.16664,0.338,1.1211,0.7832,1.8295,2.1294,0.2999,A,-0.03
531,0.49991,0.1,1,0.3416,0.39993,0.69154,531,2.7245,0.59,0.29161,0.79152,5,2D1U,2.0,False,0.291,53,True,right,0.24995,0.2887,1.1892,0.9005,1.7058,2.564,0.8583,A,0.11
532,0.49991,0.1,1,0.25829,0.42492,0.46658,532,1.96631,-0.37,-0.1833,0.31661,5,1D2U,2.0,True,0.116,66,True,right,0.0,0.2099,0.6355,0.4256,1.0525,1.6606,0.6081,A,0.11
533,0.49991,0.1,2,0.3416,0.22496,0.74986,533,2.63284,0.63,0.31661,0.81651,5,2D1U,2.0,True,0.225,54,True,right,-0.16664,1.5174,2.4422,0.9248,0.375,0.8178,0.4427,A,0.11
534,0.49991,1.2,1,0.40826,0.33327,0.47491,534,2.03296,-0.37,-0.1833,0.31661,5,1D2U,2.0,True,0.25,66,True,right,0.24995,0.4282,0.7115,0.2833,1.0787,1.7952,0.7165,A,-0.03
535,0.49991,1.2,1,0.31661,0.24162,0.81651,535,2.69116,0.63,0.31661,0.81651,5,2D1U,2.0,False,0.232,54,True,right,0.0,0.3302,1.1136,0.7834,1.9464,2.4135,0.4671,A,-0.03
536,0.49991,1.2,1,0.20829,0.33327,0.85817,536,2.23291,-0.33,-0.16664,0.33327,5,1D2U,2.0,True,0.19,66,False,right,-0.16664,0.2222,0.5223,0.3002,1.4809,1.7805,0.2996,A,-0.03
537,0.49991,0.1,1,0.24995,0.41659,0.49158,537,2.49121,0.67,0.33327,0.83318,5,2D1U,2.0,False,0.266,54,False,right,0.24995,0.1991,1.1405,0.9414,1.4571,2.3155,0.8584,A,0.11
538,0.49991,0.1,1,0.39993,0.24162,0.50824,538,2.50787,0.71,0.35827,0.85817,5,2D1U,2.0,False,0.159,54,False,right,0.0,0.3517,1.3184,0.9667,1.7759,2.3848,0.6089,A,0.11
539,0.49991,0.1,2,0.30828,0.27495,0.65821,539,2.61619,0.75,0.37493,0.87484,5,2D1U,2.0,True,0.184,54,False,right,-0.16664,1.3941,2.3772,0.9832,0.3435,0.7849,0.4414,A,0.11
540,0.49991,1.2,1,0.24162,0.40826,0.87484,540,2.3579,-0.33,-0.16664,0.33327,5,1D2U,2.0,True,0.111,66,False,right,0.24995,0.2567,0.5563,0.2997,1.3222,2.0396,0.7174,A,-0.03
541,0.49991,1.2,2,0.34993,0.37493,0.48324,541,2.06628,-0.29,-0.14164,0.35827,5,1D2U,1.0,True,0.125,66,False,left,0.0,1.3288,1.6539,0.325,0.3623,0.829,0.4667,A,-0.03
542,0.49991,1.2,2,0.33327,0.29161,0.63322,542,2.63285,0.75,0.37493,0.87484,5,2D1U,2.0,True,0.113,54,False,right,-0.16664,1.381,2.2227,0.8417,0.431,0.7306,0.2996,A,-0.03
543,0.49991,0.1,2,0.40826,0.33327,0.56656,543,2.16627,-0.29,-0.14164,0.35827,5,1D2U,2.0,False,0.112,66,False,right,0.24995,1.606,2.0721,0.4661,0.2308,1.0894,0.8586,A,0.11
544,0.49991,0.1,2,0.44158,0.30828,0.44158,544,2.02462,-0.33,-0.16664,0.33327,5,1D2U,1.0,True,0.112,67,True,left,0.0,1.3938,1.8355,0.4416,0.3939,1.0022,0.6083,A,0.11
545,0.49991,0.1,2,0.29161,0.41659,0.59156,545,2.13294,-0.33,-0.16664,0.33327,5,1D2U,2.0,False,0.115,67,True,right,-0.16664,1.3075,1.7491,0.4416,0.3241,0.7658,0.4417,A,0.11
546,0.49991,1.2,2,0.29161,0.27495,0.7082,546,2.09128,-0.37,-0.1833,0.31661,5,1D2U,1.0,True,0.167,67,False,left,0.24995,1.621,1.9042,0.2832,0.1793,0.8955,0.7163,A,-0.03
547,0.49991,1.2,2,0.37493,0.29161,0.40826,547,2.43288,0.71,0.35827,0.85817,5,2D1U,2.0,True,0.15,55,True,right,0.0,1.286,2.1115,0.8255,0.3947,0.8615,0.4669,A,-0.03
548,0.49991,1.2,2,0.29161,0.31661,0.48324,548,1.90798,-0.37,-0.1833,0.31661,5,1D2U,2.0,False,0.208,67,False,right,-0.16664,1.19,1.4733,0.2833,0.3902,0.6894,0.2993,A,-0.03
549,0.49991,0.1,2,0.41659,0.44158,0.40826,549,2.62451,0.71,0.35827,0.85817,5,2D1U,2.0,True,0.425,55,True,right,0.24995,1.4572,2.424,0.9668,0.2407,1.0983,0.8576,A,0.11
550,0.49991,0.1,1,0.3666,0.24995,0.67487,550,2.08294,-0.41,-0.20829,0.29161,5,1D2U,2.0,True,0.168,67,False,right,0.0,0.3187,0.7185,0.3997,1.3436,1.9514,0.6078,A,0.11
551,0.49991,0.1,2,0.38326,0.43325,0.76652,551,2.91612,0.67,0.33327,0.83318,5,2D1U,2.0,True,0.113,55,False,right,-0.16664,1.5779,2.5196,0.9417,0.4197,0.8612,0.4414,A,0.11
552,0.49991,1.2,2,0.44158,0.21663,0.76652,552,2.21625,-0.41,-0.20829,0.29161,5,1D2U,1.0,True,0.25,67,False,left,0.24995,1.8296,2.0878,0.2582,0.3295,1.0463,0.7167,A,-0.03
553,0.49991,1.2,2,0.33327,0.38326,0.69987,553,2.74949,0.67,0.33327,0.83318,5,2D1U,2.0,True,0.142,55,False,right,0.0,1.5366,2.3362,0.7996,0.3529,0.8195,0.4667,A,-0.03
554,0.49991,1.2,1,0.39993,0.19996,0.68321,554,2.09962,-0.37,-0.1833,0.31661,5,1D2U,2.0,True,0.213,68,True,right,-0.16664,0.4138,0.6964,0.2827,1.4798,1.7804,0.3005,A,-0.03
555,0.49991,0.1,2,0.3666,0.30828,0.59156,555,2.08296,-0.37,-0.1833,0.31661,5,1D2U,1.0,True,0.458,68,True,left,0.24995,1.5932,2.0181,0.4248,0.1932,1.0516,0.8584,A,0.11
556,0.49991,0.1,1,0.34993,0.20829,0.74153,556,2.61617,0.63,0.31661,0.81651,5,2D1U,1.0,True,0.234,55,False,left,0.0,0.2996,1.2245,0.9249,1.9163,2.5244,0.6081,A,0.11
557,0.49991,0.1,2,0.34993,0.20829,0.82485,557,2.69949,0.63,0.31661,0.81651,5,2D1U,2.0,True,0.258,55,False,right,-0.16664,1.5961,2.5209,0.9247,0.3786,0.8207,0.4421,A,0.11
558,0.49991,1.2,1,0.20829,0.39993,0.64155,558,2.08295,-0.33,-0.16664,0.33327,5,1D2U,2.0,True,0.183,68,False,right,0.24995,0.2228,0.5227,0.2999,1.056,1.7728,0.7168,A,-0.03
559,0.49991,1.2,1,0.44158,0.24995,0.46658,559,2.44954,0.59,0.29161,0.79152,5,2D1U,1.0,True,0.208,55,False,left,0.0,0.4551,1.2135,0.7584,1.6972,2.1636,0.4664,A,-0.03
560,0.49991,1.2,1,0.39993,0.37493,0.57489,560,2.64118,0.59,0.29161,0.79152,5,2D1U,1.0,True,0.116,55,False,left,-0.16664,0.4132,1.1715,0.7582,1.8465,2.1469,0.3004,A,-0.03
561,0.49991,0.1,1,0.39159,0.21663,0.84151,561,2.28291,-0.33,-0.16664,0.33327,5,1D2U,2.0,True,0.133,68,False,right,0.24995,0.343,0.7846,0.4416,1.4515,2.3085,0.857,A,0.11
562,0.49991,0.1,1,0.33327,0.34993,0.39993,562,2.3579,0.55,0.27495,0.77486,5,2D1U,1.0,True,0.112,55,False,left,0.0,0.2842,1.1679,0.8838,1.5181,2.1261,0.6081,A,0.11
563,0.49991,0.1,1,0.25829,0.3416,0.77486,563,2.23293,-0.29,-0.14164,0.35827,5,1D2U,2.0,True,0.217,68,False,right,-0.16664,0.2097,0.6771,0.4674,1.4856,1.927,0.4413,A,0.11
564,0.49991,1.2,2,0.29161,0.35827,0.67487,564,2.59952,0.55,0.27495,0.77486,5,2D1U,2.0,True,0.113,55,False,right,0.24995,1.5928,2.3345,0.7418,0.1847,0.9008,0.7161,A,-0.03
565,0.49991,1.2,2,0.43325,0.35827,0.53323,565,2.58285,0.51,0.25829,0.75819,5,2D1U,2.0,True,0.154,55,False,right,0.0,1.4678,2.193,0.7252,0.451,0.9182,0.4671,A,-0.03
566,0.49991,1.2,2,0.28328,0.39993,0.8915,566,2.43289,-0.29,-0.14164,0.35827,5,1D2U,1.0,True,0.675,68,False,left,-0.16664,1.5932,1.9184,0.3253,0.3848,0.6844,0.2996,A,-0.03
567,0.49991,0.1,1,0.25829,0.25829,0.59989,567,2.37457,0.51,0.25829,0.75819,5,2D1U,2.0,False,0.114,55,False,right,0.24995,0.2056,1.0725,0.8669,1.4975,2.3561,0.8585,A,0.11
568,0.49991,0.1,2,0.24162,0.32494,0.74153,568,2.58286,0.55,0.27495,0.77486,5,2D1U,2.0,True,0.167,56,True,right,0.0,1.4908,2.3743,0.8835,0.1907,0.7995,0.6088,A,0.11
569,0.49991,0.1,2,0.22496,0.24162,0.61655,569,2.3579,0.55,0.27495,0.77486,5,2D1U,2.0,True,0.284,56,True,right,-0.16664,1.2681,2.1518,0.8836,0.2599,0.7015,0.4416,A,0.11
570,0.49991,1.2,2,0.33327,0.40826,0.71653,570,2.3329,-0.25,-0.12498,0.37493,5,1D2U,1.0,True,0.112,68,False,left,0.24995,1.674,2.0154,0.3415,0.2238,0.9404,0.7167,A,-0.03
571,0.49991,1.2,1,0.19996,0.34993,0.47491,571,2.2829,0.51,0.25829,0.75819,5,2D1U,2.0,False,0.229,57,True,right,0.0,0.2126,0.9378,0.7252,1.4296,1.8962,0.4666,A,-0.03
572,0.49991,1.2,2,0.27495,0.42492,0.8915,572,2.86614,0.55,0.27495,0.77486,5,2D1U,2.0,True,0.112,58,True,right,-0.16664,1.5787,2.3203,0.7416,0.3704,0.6701,0.2997,A,-0.03
573,0.49991,0.1,2,0.33327,0.22496,0.67487,573,2.10794,-0.25,-0.12498,0.37493,5,1D2U,1.0,True,0.157,68,False,left,0.24995,1.6374,2.1268,0.4894,0.1545,1.0123,0.8578,A,0.11
574,0.49991,0.1,1,0.3666,0.3666,0.8915,574,2.5162,-0.21,-0.10831,0.39159,5,1D2U,2.0,True,0.112,68,False,right,0.0,0.3152,0.8149,0.4997,1.656,2.265,0.609,A,0.11
575,0.49991,0.1,1,0.37493,0.44992,0.67487,575,2.39122,-0.21,-0.10831,0.39159,5,1D2U,2.0,True,0.117,68,False,right,-0.16664,0.3281,0.8272,0.4991,1.5355,1.9771,0.4416,A,0.11
576,0.49991,1.2,1,0.20829,0.3666,0.7082,576,2.55786,0.55,0.27495,0.77486,5,2D1U,2.0,False,0.125,58,True,right,0.24995,0.224,0.9626,0.7387,1.5628,2.2794,0.7165,A,-0.03
577,0.49991,1.2,1,0.29994,0.33327,0.88317,577,2.43288,-0.17,-0.08332,0.41659,5,1D2U,2.0,True,0.111,68,False,right,0.0,0.3137,0.697,0.3833,1.5973,2.0637,0.4665,A,-0.03
578,0.49991,1.2,1,0.35827,0.40826,0.57489,578,2.25792,-0.17,-0.08332,0.41659,5,1D2U,2.0,True,0.113,68,False,right,-0.16664,0.3729,0.7564,0.3835,1.431,1.7309,0.3,A,-0.03
579,0.49991,0.1,1,0.20829,0.23329,0.8915,579,2.62451,0.59,0.29161,0.79152,5,2D1U,2.0,False,0.113,58,False,right,0.24995,0.1581,1.0577,0.8996,1.7749,2.6332,0.8583,A,0.11
580,0.49991,0.1,2,0.27495,0.26662,0.43325,580,1.90798,-0.13,-0.06665,0.43325,5,1D2U,2.0,False,0.133,68,False,right,0.0,1.2173,1.7591,0.5418,0.2255,0.8343,0.6088,A,0.11
581,0.49991,0.1,1,0.29994,0.27495,0.50824,581,1.99963,-0.17,-0.08332,0.41659,5,1D2U,2.0,True,0.234,69,True,right,-0.16664,0.2453,0.7703,0.525,1.3118,1.7536,0.4418,A,0.11
582,0.49991,1.2,1,0.33327,0.33327,0.59156,582,2.57452,0.63,0.31661,0.81651,5,2D1U,2.0,False,0.113,58,False,right,0.24995,0.3512,1.1338,0.7826,1.6172,2.3333,0.7161,A,-0.03
583,0.49991,1.2,1,0.38326,0.29994,0.75819,583,2.35789,-0.17,-0.08332,0.41659,5,1D2U,2.0,True,0.202,69,True,right,0.0,0.4023,0.7863,0.384,1.5612,2.0281,0.4669,A,-0.03
584,0.49991,1.2,2,0.3666,0.32494,0.66654,584,2.29124,-0.13,-0.06665,0.43325,5,1D2U,2.0,False,0.112,70,True,right,-0.16664,1.4524,1.8526,0.4002,0.4691,0.7696,0.3005,A,-0.03
585,0.49991,0.1,1,0.29161,0.22496,0.63322,585,2.06629,-0.17,-0.08332,0.41659,5,1D2U,2.0,True,0.115,71,True,right,0.24995,0.2406,0.7663,0.5257,1.2246,2.0892,0.8646,A,0.11
586,0.49991,0.1,1,0.39159,0.33327,0.78319,586,2.84114,0.67,0.33327,0.83318,5,2D1U,2.0,False,0.114,58,False,right,0.0,0.344,1.2855,0.9415,2.0192,2.6274,0.6082,A,0.11
587,0.49991,0.1,2,0.24162,0.41659,0.58322,587,2.15793,-0.17,-0.08332,0.41659,5,1D2U,2.0,False,0.113,71,True,right,-0.16664,1.2455,1.7706,0.5251,0.2699,0.7116,0.4417,A,0.11
588,0.49991,1.2,1,0.29161,0.24162,0.77486,588,2.66617,0.71,0.35827,0.85817,5,2D1U,2.0,False,0.191,58,False,right,0.24995,0.3081,1.1328,0.8248,1.7997,2.5162,0.7165,A,-0.03
