,Unnamed: 0,standardDur,audNoise,order,preDur,postDur,isiDur,trial_num,totalDur,delta_dur_percents,deltaDurS,testDurS,intensities,current_stair,responses,is_correct,response_rts,stair_num_reversal,stair_is_reversal,response_keys,conflictDur,recordedOnsetVisualTest,recordedOffsetVisualTest,recordedDurVisualTest,recordedOnsetVisualStandard,recordedOffsetVisualStandard,recordedDurVisualStandard,modalityPostCue
0,0,0.50017,1.2,1,0.21674,0.35012,0.75026,0,1.86731,-0.9,-0.45016,0.05002,5,3D1U,1.0,False,0.568,0,False,left,0.0,0.2209,0.2714,0.0505,1.0205,1.5205,0.5,V
1,1,0.50017,0.1,1,0.41681,0.3918,0.79194,1,2.15074,-0.9,-0.45016,0.05002,5,1D2U,2.0,True,0.339,0,False,right,0.0,0.4183,0.4682,0.0499,1.2601,1.7597,0.4996,A
2,2,0.50017,1.2,2,0.30844,0.36679,0.42515,2,1.65057,-0.9,-0.45016,0.05002,5,3D1U,1.0,True,1.157,0,False,left,0.0,1.2313,1.2818,0.0505,0.3068,0.8057,0.4989,V
3,3,0.50017,0.1,1,0.3918,0.27509,0.51685,3,1.73393,-0.9,-0.45016,0.05002,5,1D2U,2.0,True,0.365,0,False,right,0.0,0.3895,0.4393,0.0498,0.9548,1.4567,0.5018,A
4,4,0.50017,1.2,2,0.27509,0.27509,0.71691,4,1.81728,-0.9,-0.45016,0.05002,5,2D1U,1.0,True,0.775,0,False,left,0.0,1.4893,1.538,0.0487,0.2719,0.7718,0.4999,A
5,5,0.50017,0.1,2,0.34178,0.44182,0.56686,5,1.90065,-0.9,-0.45016,0.05002,5,1D3U,1.0,True,0.307,0,False,left,0.0,1.4062,1.4561,0.05,0.3387,0.8386,0.4999,V
6,6,0.50017,1.2,1,0.40014,0.20841,0.50851,6,2.56756,0.9,0.45016,0.95033,5,lapse_rate,2.0,False,0.388,0,False,right,0.0,0.4006,1.3505,0.9498,1.8585,2.3581,0.4997,A
7,7,0.50017,1.2,2,0.25842,0.37513,0.67523,7,1.94233,-0.74,-0.36679,0.13338,5,3D1U,1.0,True,0.433,0,False,left,0.0,1.4285,1.5623,0.1339,0.254,0.7542,0.5002,A
8,8,0.50017,0.1,2,0.33345,0.33345,0.71691,8,2.01736,-0.74,-0.36679,0.13338,5,2D1U,1.0,True,0.352,0,False,left,0.0,1.5464,1.6796,0.1333,0.3296,0.8298,0.5002,V
9,9,0.50017,1.2,1,0.40847,0.37513,0.8753,9,2.29245,-0.74,-0.36679,0.13338,5,1D2U,2.0,True,0.37,0,False,right,0.0,0.4101,0.5447,0.1346,1.4184,1.9203,0.5019,A
10,10,0.50017,0.1,2,0.35846,0.25842,0.77527,10,1.94234,-0.9,-0.45016,0.05002,5,1D3U,1.0,True,0.524,0,False,left,0.0,1.6324,1.6827,0.0503,0.3571,0.8581,0.5009,A
11,11,0.50017,0.1,2,0.24175,0.25009,0.56686,11,2.5092,0.9,0.45016,0.95033,5,lapse_rate,2.0,True,0.342,0,False,right,0.0,1.3049,2.2545,0.9496,0.2386,0.7373,0.4987,A
12,12,0.50017,1.2,1,0.35012,0.34178,0.40847,12,1.80895,-0.58,-0.29177,0.20841,5,3D1U,2.0,True,0.546,0,False,right,0.0,0.3452,0.5539,0.2087,0.9619,1.463,0.5011,A
13,13,0.50017,0.1,1,0.30844,0.42515,0.43348,13,1.87565,-0.58,-0.29177,0.20841,5,2D1U,2.0,True,0.349,0,False,right,0.0,0.3095,0.5181,0.2085,0.9515,1.4518,0.5003,V
14,14,0.50017,1.2,1,0.3918,0.26676,0.68357,14,1.97568,-0.74,-0.36679,0.13338,5,1D2U,2.0,True,0.255,0,False,right,0.0,0.389,0.5218,0.1328,1.2052,1.7054,0.5002,A
15,15,0.50017,0.1,1,0.37513,0.25009,0.41681,15,1.59222,-0.9,-0.45016,0.05002,5,1D3U,2.0,True,0.326,0,False,right,0.0,0.374,0.4241,0.0502,0.8414,1.3411,0.4997,A
16,16,0.50017,0.1,2,0.22508,0.33345,0.68357,16,1.79229,-0.9,-0.45016,0.05002,5,lapse_rate,1.0,True,0.369,0,False,left,0.0,1.4082,1.4577,0.0495,0.2239,0.7238,0.4999,V
17,17,0.50017,1.2,2,0.30844,0.33345,0.65856,17,2.00903,-0.58,-0.29177,0.20841,5,1D2U,1.0,True,0.568,0,False,left,0.0,1.4688,1.6768,0.208,0.3097,0.811,0.5013,A
18,18,0.50017,0.1,2,0.41681,0.38347,0.40847,18,2.00069,-0.42,-0.20841,0.29177,5,3D1U,1.0,True,0.322,0,False,left,0.0,1.3251,1.6165,0.2914,0.4159,0.9166,0.5007,V
19,19,0.50017,1.2,1,0.20841,0.3918,0.83362,19,2.22577,-0.42,-0.20841,0.29177,5,2D1U,2.0,True,0.269,0,False,right,0.0,0.208,0.4991,0.2911,1.332,1.832,0.5,A
20,20,0.50017,0.1,2,0.26676,0.43348,0.59187,20,1.92566,-0.74,-0.36679,0.13338,5,1D3U,1.0,True,0.279,0,False,left,0.0,1.3541,1.4864,0.1322,0.2616,0.7621,0.5005,V
21,21,0.50017,1.2,2,0.38347,0.24175,0.54185,21,1.71726,-0.9,-0.45016,0.05002,5,lapse_rate,1.0,True,0.645,0,False,left,0.0,1.4286,1.4775,0.0489,0.3864,0.8863,0.4999,A
22,22,0.50017,1.2,2,0.38347,0.40014,0.6669,22,2.15909,-0.58,-0.29177,0.20841,5,1D2U,2.0,False,0.317,0,False,right,0.0,1.5528,1.7603,0.2075,0.3857,0.8848,0.4991,V
23,23,0.50017,0.1,1,0.29177,0.35846,0.69191,23,2.2091,-0.26,-0.13338,0.36679,5,3D1U,2.0,True,0.318,0,False,right,0.0,0.2928,0.6607,0.3679,1.3515,1.8521,0.5006,V
24,24,0.50017,1.2,2,0.3001,0.34178,0.58353,24,1.85896,-0.74,-0.36679,0.13338,5,1D3U,1.0,True,1.028,0,False,left,0.0,1.3813,1.5144,0.1331,0.2982,0.7982,0.5,A
25,25,0.50017,0.1,2,0.29177,0.40847,0.54185,25,2.69259,0.9,0.45016,0.95033,5,lapse_rate,2.0,True,0.401,0,False,right,0.0,1.3336,2.2831,0.9495,0.2922,0.7927,0.5005,V
26,26,0.50017,0.1,1,0.31678,0.27509,0.8753,26,2.33413,-0.26,-0.13338,0.36679,5,2D1U,2.0,True,0.292,0,False,right,0.0,0.3156,0.6819,0.3663,1.5573,2.0568,0.4995,A
27,27,0.50017,1.2,2,0.38347,0.3918,0.64189,27,2.36749,-0.1,-0.05002,0.45016,5,2D1U,2.0,False,0.341,0,False,right,0.0,1.5247,1.9744,0.4496,0.383,0.8833,0.5003,A
28,28,0.50017,0.1,2,0.23341,0.25009,0.50017,28,1.61722,-0.74,-0.36679,0.13338,5,1D3U,1.0,True,1.203,0,False,left,0.0,1.232,1.3653,0.1333,0.2317,0.7317,0.5001,A
29,29,0.50017,1.2,1,0.29177,0.21674,0.81695,29,2.27579,-0.1,-0.05002,0.45016,5,3D1U,2.0,True,0.295,0,False,right,0.0,0.2887,0.7395,0.4508,1.5561,2.0572,0.5011,A
30,30,0.50017,0.1,1,0.27509,0.3001,0.70858,30,1.95066,-0.66,-0.33345,0.16672,5,1D2U,2.0,True,0.598,1,True,right,0.0,0.2724,0.4393,0.1669,1.1477,1.6472,0.4995,V
31,31,0.50017,1.2,1,0.33345,0.29177,0.4835,31,1.65891,-0.9,-0.45016,0.05002,5,lapse_rate,2.0,True,0.635,0,False,right,0.0,0.3347,0.3847,0.05,0.8673,1.3681,0.5009,V
32,32,0.50017,1.2,2,0.26676,0.41681,0.60854,32,2.00069,-0.58,-0.29177,0.20841,5,1D3U,2.0,False,0.529,0,False,right,0.0,1.3761,1.5859,0.2098,0.2681,0.769,0.5009,A
33,33,0.50017,0.1,2,0.20841,0.40014,0.68357,33,1.95901,-0.66,-0.33345,0.16672,5,1D2U,1.0,True,0.376,1,True,left,0.0,1.3879,1.5541,0.1662,0.2045,0.704,0.4995,A
34,34,0.50017,1.2,2,0.42515,0.44182,0.47516,34,1.89232,-0.9,-0.45016,0.05002,5,lapse_rate,1.0,True,0.647,0,False,left,0.0,1.3985,1.4484,0.0499,0.4232,0.9235,0.5003,V
35,35,0.50017,1.2,1,0.32511,0.40847,0.41681,35,2.10072,-0.1,-0.05002,0.45016,5,2D1U,2.0,True,0.592,0,False,right,0.0,0.3266,0.7776,0.451,1.1936,1.6941,0.5005,A
36,36,0.50017,0.1,2,0.41681,0.22508,0.51685,36,2.19243,0.06,0.03334,0.53352,5,3D1U,2.0,True,0.367,0,False,right,0.0,1.4289,1.9624,0.5335,0.4124,0.9124,0.5,V
37,37,0.50017,1.2,1,0.24175,0.20007,0.55853,37,1.66724,-0.66,-0.33345,0.16672,5,1D3U,2.0,True,0.407,1,True,right,0.0,0.241,0.4084,0.1674,0.9663,1.4661,0.4998,V
38,38,0.50017,0.1,1,0.3918,0.41681,0.58353,38,2.42583,0.06,0.03334,0.53352,5,2D1U,2.0,False,0.295,0,False,right,0.0,0.3904,0.9245,0.534,1.5077,2.0078,0.5001,V
39,39,0.50017,1.2,1,0.29177,0.40847,0.71691,39,2.10905,-0.62,-0.30844,0.19173,5,1D2U,2.0,True,0.3,2,True,right,0.0,0.2894,0.4817,0.1923,1.1984,1.698,0.4997,V
40,40,0.50017,1.2,1,0.25842,0.35846,0.45016,40,2.51754,0.9,0.45016,0.95033,5,lapse_rate,2.0,False,0.272,0,False,right,0.0,0.256,1.2074,0.9514,1.6572,2.1561,0.499,A
41,41,0.50017,0.1,1,0.28343,0.40014,0.42515,41,2.14241,0.06,0.03334,0.53352,5,3D1U,2.0,False,0.237,0,False,right,0.0,0.2812,0.8153,0.5341,1.2406,1.7404,0.4998,A
42,42,0.50017,1.2,1,0.23341,0.31678,0.59187,42,1.80895,-0.66,-0.33345,0.16672,5,1D3U,2.0,True,0.64,1,True,right,0.0,0.2321,0.3993,0.1672,0.9915,1.4913,0.4999,A
43,43,0.50017,0.1,2,0.3918,0.34178,0.89197,43,2.31745,-0.62,-0.30844,0.19173,5,1D2U,1.0,True,0.369,2,True,left,0.0,1.7832,1.9746,0.1915,0.3916,0.8911,0.4995,V
44,44,0.50017,1.2,2,0.20007,0.25009,0.51685,44,2.07572,0.22,0.10837,0.60854,5,2D1U,2.0,True,0.342,0,False,right,0.0,1.22,1.8278,0.6077,0.2016,0.7024,0.5008,A
45,45,0.50017,0.1,2,0.42515,0.34178,0.60854,45,1.92566,-0.9,-0.45016,0.05002,5,lapse_rate,1.0,True,0.338,0,False,left,0.0,1.5361,1.586,0.0499,0.4267,0.9279,0.5012,V
46,46,0.50017,0.1,1,0.38347,0.23341,0.52518,46,2.25077,0.22,0.10837,0.60854,5,3D1U,2.0,False,0.382,0,False,right,0.0,0.3815,0.9899,0.6083,1.5152,2.0153,0.5001,V
47,47,0.50017,0.1,1,0.28343,0.29177,0.85029,47,2.87599,0.9,0.45016,0.95033,5,lapse_rate,2.0,False,0.267,0,False,right,0.0,0.2821,1.233,0.9509,2.0826,2.5828,0.5002,A
48,48,0.50017,1.2,2,0.24175,0.30844,0.60854,48,2.35081,0.38,0.19173,0.69191,5,3D1U,2.0,True,1.17,0,False,right,0.0,1.3473,2.0393,0.692,0.2389,0.7386,0.4997,A
49,49,0.50017,0.1,2,0.42515,0.35012,0.50017,49,1.98402,-0.58,-0.29177,0.20841,5,1D2U,1.0,True,0.297,2,False,left,0.0,1.4302,1.6368,0.2065,0.4281,0.9289,0.5008,V
50,50,0.50017,1.2,2,0.40014,0.25842,0.42515,50,1.7506,-0.66,-0.33345,0.16672,5,1D3U,2.0,False,0.567,1,True,right,0.0,1.3232,1.4892,0.166,0.3973,0.898,0.5007,A
51,51,0.50017,0.1,1,0.20007,0.20841,0.71691,51,2.2341,0.22,0.10837,0.60854,5,2D1U,2.0,False,0.515,0,False,right,0.0,0.2001,0.808,0.6079,1.5297,2.025,0.4953,A
52,52,0.50017,1.2,1,0.32511,0.36679,0.85029,52,2.73427,0.38,0.19173,0.69191,5,2D1U,2.0,False,0.374,0,False,right,0.0,0.3223,1.0139,0.6916,1.8631,2.364,0.5009,A
53,53,0.50017,0.1,2,0.38347,0.21674,0.88364,53,2.1174,-0.74,-0.36679,0.13338,5,1D3U,1.0,True,0.541,1,False,left,0.0,1.7691,1.9023,0.1331,0.3855,0.8855,0.4999,A
54,54,0.50017,1.2,2,0.32511,0.32511,0.63355,54,2.47585,0.38,0.19173,0.69191,5,3D1U,2.0,True,0.329,0,False,right,0.0,1.4589,2.1498,0.6909,0.3244,0.8254,0.501,A
55,55,0.50017,0.1,1,0.20841,0.38347,0.43348,55,1.73394,-0.58,-0.29177,0.20841,5,1D2U,2.0,True,0.259,2,False,right,0.0,0.2081,0.4168,0.2086,0.8498,1.3509,0.5011,A
56,56,0.50017,0.1,2,0.42515,0.25842,0.58353,56,1.81729,-0.9,-0.45016,0.05002,5,lapse_rate,1.0,True,0.342,0,False,left,0.0,1.5106,1.5604,0.0497,0.4276,0.9271,0.4996,A
57,57,0.50017,1.2,2,0.41681,0.35846,0.43348,57,1.94233,-0.54,-0.26676,0.23341,5,1D2U,2.0,False,0.424,2,False,right,0.0,1.348,1.5811,0.2332,0.4135,0.9146,0.5011,V
58,58,0.50017,0.1,2,0.29177,0.29177,0.4835,58,2.25912,0.38,0.19173,0.69191,5,3D1U,2.0,True,0.386,0,False,right,0.0,1.2768,1.9689,0.6921,0.2937,0.793,0.4993,A
59,59,0.50017,1.2,2,0.21674,0.31678,0.64189,59,1.80896,-0.74,-0.36679,0.13338,5,1D3U,1.0,True,0.674,1,False,left,0.0,1.3532,1.4871,0.1339,0.2139,0.7122,0.4983,V
60,60,0.50017,0.1,1,0.3001,0.24175,0.4835,60,1.57554,-0.9,-0.45016,0.05002,5,lapse_rate,2.0,True,0.628,0,False,right,0.0,0.2982,0.3482,0.0499,0.8316,1.3326,0.501,A
61,61,0.50017,0.1,2,0.27509,0.35012,0.67523,61,2.56754,0.54,0.26676,0.76693,5,2D1U,2.0,True,0.377,0,False,right,0.0,1.453,2.2199,0.7669,0.2778,0.7782,0.5004,A
62,62,0.50017,1.2,2,0.22508,0.32511,0.55853,62,1.8173,-0.58,-0.29177,0.20841,5,1D2U,1.0,True,0.35,3,True,left,0.0,1.2789,1.4865,0.2076,0.2205,0.7208,0.5003,A
63,63,0.50017,0.1,2,0.35846,0.40014,0.63355,63,2.0257,-0.74,-0.36679,0.13338,5,1D3U,1.0,True,0.228,1,False,left,0.0,1.4895,1.6231,0.1336,0.3553,0.8562,0.5009,A
64,64,0.50017,1.2,2,0.30844,0.44182,0.45849,64,2.47585,0.54,0.26676,0.76693,5,2D1U,2.0,True,0.383,0,False,right,0.0,1.2609,2.0274,0.7666,0.3028,0.803,0.5001,V
65,65,0.50017,1.2,2,0.41681,0.44182,0.60021,65,2.90934,0.9,0.45016,0.95033,5,lapse_rate,2.0,True,0.345,0,False,right,0.0,1.5119,2.4626,0.9507,0.4128,0.9129,0.5,V
66,66,0.50017,0.1,1,0.34178,0.26676,0.60021,66,2.35914,0.3,0.15005,0.65022,5,3D1U,1.0,True,0.416,1,True,left,0.0,0.3436,0.9934,0.6498,1.5936,2.0941,0.5006,V
67,67,0.50017,1.2,2,0.31678,0.25842,0.69191,67,1.91733,-0.7,-0.35012,0.15005,5,1D3U,2.0,False,0.46,2,True,right,0.0,1.5119,1.6607,0.1487,0.3195,0.8192,0.4997,V
68,68,0.50017,0.1,2,0.26676,0.23341,0.8753,68,2.08405,-0.58,-0.29177,0.20841,5,1D2U,1.0,True,0.318,3,True,left,0.0,1.6396,1.8476,0.208,0.2645,0.7641,0.4996,V
69,69,0.50017,1.2,1,0.32511,0.44182,0.55019,69,2.46751,0.3,0.15005,0.65022,5,3D1U,2.0,False,0.39,1,True,right,0.0,0.3226,0.9734,0.6508,1.5233,2.0251,0.5018,A
70,70,0.50017,0.1,2,0.42515,0.29177,0.90031,70,2.85099,0.46,0.23341,0.73359,5,2D1U,2.0,True,0.359,1,True,right,0.0,1.8274,2.561,0.7336,0.4276,0.9276,0.5,V
71,71,0.50017,1.2,2,0.43348,0.38347,0.7586,71,3.02605,0.9,0.45016,0.95033,5,lapse_rate,2.0,True,0.228,0,False,right,0.0,1.6882,2.6386,0.9504,0.4299,0.9302,0.5003,V
72,72,0.50017,0.1,1,0.44182,0.25842,0.43348,72,1.68391,-0.9,-0.45016,0.05002,5,lapse_rate,1.0,False,0.507,0,False,left,0.0,0.4442,0.4934,0.0491,0.9266,1.4271,0.5005,V
73,73,0.50017,1.2,1,0.32511,0.31678,0.85029,73,2.65925,0.34,0.16672,0.6669,5,3D1U,2.0,False,0.99,2,True,right,0.0,0.3263,0.9938,0.6676,1.8437,2.3431,0.4994,A
74,74,0.50017,0.1,2,0.25842,0.34178,0.74192,74,2.57588,0.46,0.23341,0.73359,5,2D1U,2.0,True,0.379,1,True,right,0.0,1.5024,2.2365,0.7341,0.2607,0.7615,0.5008,V
75,75,0.50017,1.2,1,0.23341,0.33345,0.5752,75,1.77561,-0.74,-0.36679,0.13338,5,1D3U,2.0,True,0.667,3,True,right,0.0,0.2311,0.3641,0.133,0.9392,1.4398,0.5006,A
76,76,0.50017,0.1,2,0.27509,0.3918,0.80028,76,2.20075,-0.54,-0.26676,0.23341,5,1D2U,1.0,True,0.298,4,True,left,0.0,1.5743,1.8073,0.233,0.2737,0.7747,0.501,A
77,77,0.50017,1.2,2,0.34178,0.37513,0.65856,77,2.56755,0.38,0.19173,0.69191,5,2D1U,2.0,True,0.301,1,False,right,0.0,1.5022,2.1939,0.6916,0.344,0.8444,0.5005,A
78,78,0.50017,1.2,2,0.25009,0.30844,0.89197,78,2.00069,-0.9,-0.45016,0.05002,5,lapse_rate,2.0,False,0.487,0,False,right,0.0,1.6391,1.6886,0.0495,0.247,0.7466,0.4995,A
79,79,0.50017,0.1,2,0.20007,0.31678,0.8753,79,2.0257,-0.74,-0.36679,0.13338,5,1D3U,1.0,True,0.376,3,True,left,0.0,1.5752,1.7086,0.1334,0.2002,0.7004,0.5002,V
80,80,0.50017,1.2,2,0.35846,0.40847,0.68357,80,2.64258,0.38,0.19173,0.69191,5,3D1U,2.0,True,0.464,2,False,right,0.0,1.5372,2.2285,0.6913,0.3543,0.8538,0.4995,A
81,81,0.50017,0.1,1,0.35012,0.36679,0.51685,81,1.96734,-0.54,-0.26676,0.23341,5,1D2U,2.0,True,1.268,4,True,right,0.0,0.3478,0.5808,0.233,1.0977,1.5979,0.5002,A
82,82,0.50017,1.2,1,0.20841,0.21674,0.72525,82,1.70059,-0.9,-0.45016,0.05002,5,lapse_rate,2.0,True,0.824,0,False,right,0.0,0.2041,0.2546,0.0505,0.9797,1.4792,0.4994,A
83,83,0.50017,1.2,2,0.34178,0.26676,0.53352,83,2.33414,0.38,0.19173,0.69191,5,3D1U,2.0,True,0.274,2,False,right,0.0,1.3748,2.0659,0.691,0.3415,0.8412,0.4997,V
84,84,0.50017,0.1,1,0.40014,0.24175,0.62522,84,2.01737,-0.5,-0.25009,0.25009,5,1D2U,2.0,True,0.194,4,False,right,0.0,0.4011,0.6499,0.2487,1.2755,1.7752,0.4997,A
85,85,0.50017,1.2,1,0.42515,0.32511,0.54185,85,2.48419,0.38,0.19173,0.69191,5,2D1U,2.0,False,0.269,1,False,right,0.0,0.4238,1.1158,0.692,1.6567,2.1572,0.5005,A
86,86,0.50017,0.1,1,0.41681,0.25009,0.6669,86,1.96735,-0.74,-0.36679,0.13338,5,1D3U,2.0,True,0.157,3,True,right,0.0,0.4193,0.5529,0.1337,1.2196,1.719,0.4994,V
87,87,0.50017,1.2,1,0.33345,0.30844,0.62522,87,1.91733,-0.7,-0.35012,0.15005,5,1D3U,2.0,True,0.232,4,True,right,0.0,0.3364,0.486,0.1496,1.1114,1.6104,0.499,V
88,88,0.50017,0.1,2,0.3001,0.30844,0.45016,88,2.25078,0.38,0.19173,0.69191,5,3D1U,2.0,True,1.101,2,False,right,0.0,1.2508,1.9435,0.6927,0.301,0.8018,0.5008,V
89,89,0.50017,1.2,2,0.25842,0.42515,0.63355,89,2.52587,0.42,0.20841,0.70858,5,2D1U,2.0,True,0.531,2,True,right,0.0,1.3878,2.0964,0.7086,0.2545,0.7552,0.5007,A
90,90,0.50017,0.1,1,0.36679,0.25009,0.89197,90,2.25911,-0.5,-0.25009,0.25009,5,1D2U,2.0,True,0.295,4,False,right,0.0,0.3641,0.6148,0.2506,1.5069,2.006,0.4991,V
91,91,0.50017,0.1,1,0.44182,0.26676,0.56686,91,1.82563,-0.9,-0.45016,0.05002,5,lapse_rate,2.0,True,1.198,0,False,right,0.0,0.4423,0.4925,0.0502,1.0583,1.5581,0.4997,V
92,92,0.50017,0.1,2,0.37513,0.41681,0.65856,92,2.00069,-0.9,-0.45016,0.05002,5,lapse_rate,1.0,True,0.292,0,False,left,0.0,1.5351,1.5845,0.0494,0.3767,0.8761,0.4993,A
93,93,0.50017,1.2,1,0.40014,0.40847,0.65022,93,2.6259,0.34,0.16672,0.6669,5,3D1U,2.0,False,0.395,3,True,right,0.0,0.3961,1.0635,0.6674,1.7124,2.2134,0.501,A
94,94,0.50017,0.1,2,0.44182,0.40014,0.7586,94,2.36749,-0.46,-0.23341,0.26676,5,1D2U,1.0,True,0.287,4,False,left,0.0,1.6961,1.9623,0.2662,0.4372,0.9374,0.5002,V
95,95,0.50017,1.2,1,0.35846,0.43348,0.70858,95,2.15074,-0.7,-0.35012,0.15005,5,1D3U,2.0,True,1.015,4,True,right,0.0,0.3565,0.5059,0.1494,1.2151,1.7153,0.5002,V
96,96,0.50017,0.1,1,0.34178,0.32511,0.40014,96,2.27578,0.42,0.20841,0.70858,5,2D1U,2.0,False,0.275,2,True,right,0.0,0.3391,1.047,0.7079,1.4475,1.9474,0.5,A
97,97,0.50017,1.2,1,0.25009,0.43348,0.4835,97,2.40083,0.46,0.23341,0.73359,5,2D1U,2.0,False,0.768,2,False,right,0.0,0.2524,0.9868,0.7345,1.4688,1.9696,0.5008,V
98,98,0.50017,0.1,2,0.26676,0.30844,0.54185,98,1.88398,-0.46,-0.23341,0.26676,5,1D2U,1.0,True,0.251,4,False,left,0.0,1.3106,1.5767,0.2662,0.2688,0.7689,0.5001,V
99,99,0.50017,1.2,1,0.21674,0.26676,0.51685,99,1.65057,-0.7,-0.35012,0.15005,5,1D3U,1.0,False,1.059,4,True,left,0.0,0.2176,0.3674,0.1499,0.8833,1.3845,0.5013,V
100,100,0.50017,1.2,1,0.35012,0.44182,0.62522,100,2.86766,0.9,0.45016,0.95033,5,lapse_rate,2.0,False,0.332,0,False,right,0.0,0.3463,1.2964,0.9502,1.9207,2.4215,0.5009,V
101,101,0.50017,0.1,2,0.40847,0.3918,0.65856,101,2.65091,0.38,0.19173,0.69191,5,3D1U,2.0,True,0.226,4,True,right,0.0,1.5677,2.2597,0.692,0.4097,0.9091,0.4995,V
102,102,0.50017,1.2,1,0.29177,0.31678,0.79194,102,2.85099,0.9,0.45016,0.95033,5,lapse_rate,1.0,True,0.322,0,False,left,0.0,0.2891,1.2396,0.9504,2.0303,2.5306,0.5003,V
103,103,0.50017,1.2,2,0.35846,0.27509,0.45849,103,1.88398,-0.42,-0.20841,0.29177,5,1D2U,1.0,True,1.621,4,False,left,0.0,1.3149,1.6064,0.2915,0.357,0.8573,0.5004,A
104,104,0.50017,0.1,1,0.32511,0.42515,0.75026,104,2.6926,0.38,0.19173,0.69191,5,3D1U,1.0,True,0.231,4,True,left,0.0,0.3258,1.0178,0.692,1.7678,2.2677,0.4999,V
105,105,0.50017,1.2,1,0.31678,0.35846,0.55853,105,2.4842,0.5,0.25009,0.75026,5,2D1U,2.0,False,0.463,2,False,right,0.0,0.319,1.0693,0.7503,1.6287,2.1277,0.499,V
106,106,0.50017,0.1,2,0.35012,0.26676,0.86697,106,2.1174,-0.74,-0.36679,0.13338,5,1D3U,1.0,True,0.358,5,True,left,0.0,1.7173,1.8505,0.1332,0.351,0.8506,0.4996,A
107,107,0.50017,1.2,2,0.25842,0.35846,0.41681,107,2.30079,0.54,0.26676,0.76693,5,2D1U,1.0,False,0.632,2,False,left,0.0,1.1744,1.9405,0.7661,0.2569,0.7573,0.5005,V
108,108,0.50017,0.1,1,0.20841,0.21674,0.45016,108,1.50886,-0.74,-0.36679,0.13338,5,1D3U,2.0,True,0.561,5,True,right,0.0,0.2106,0.3438,0.1332,0.7943,1.2943,0.4999,A
109,109,0.50017,1.2,2,0.37513,0.20841,0.62522,109,2.40084,0.38,0.19173,0.69191,5,3D1U,2.0,True,0.267,4,True,right,0.0,1.5048,2.1945,0.6896,0.3775,0.8773,0.4998,A
110,110,0.50017,0.1,1,0.28343,0.40847,0.55853,110,2.04237,-0.42,-0.20841,0.29177,5,1D2U,2.0,True,0.291,4,False,right,0.0,0.2794,0.5719,0.2925,1.1295,1.6299,0.5004,A
111,111,0.50017,0.1,2,0.33345,0.38347,0.75026,111,2.91768,0.9,0.45016,0.95033,5,lapse_rate,2.0,True,0.23,0,False,right,0.0,1.5797,2.5288,0.9491,0.3293,0.8296,0.5003,A
112,112,0.50017,0.1,2,0.20007,0.38347,0.79194,112,2.82598,0.9,0.45016,0.95033,5,lapse_rate,2.0,True,0.248,0,False,right,0.0,1.4896,2.4395,0.9499,0.1981,0.6977,0.4996,V
113,113,0.50017,1.2,1,0.35846,0.43348,0.73359,113,2.6926,0.34,0.16672,0.6669,5,3D1U,1.0,True,0.557,5,True,left,0.0,0.3615,1.0275,0.666,1.7617,2.262,0.5004,A
114,114,0.50017,0.1,2,0.21674,0.43348,0.80028,114,2.74261,0.58,0.29177,0.79194,5,2D1U,2.0,True,0.279,2,False,right,0.0,1.514,2.3049,0.7909,0.2135,0.7149,0.5014,V
115,115,0.50017,1.2,1,0.23341,0.25842,0.64189,115,1.94233,-0.38,-0.19173,0.30844,5,1D2U,2.0,True,1.095,4,False,right,0.0,0.2315,0.5401,0.3086,1.1816,1.6817,0.5001,V
116,116,0.50017,0.1,2,0.25009,0.3001,0.64189,116,1.82563,-0.74,-0.36679,0.13338,5,1D3U,1.0,True,0.323,5,True,left,0.0,1.3949,1.5276,0.1326,0.2525,0.7534,0.5009,V
117,117,0.50017,1.2,1,0.28343,0.34178,0.85863,117,2.13406,-0.7,-0.35012,0.15005,5,1D3U,2.0,True,0.283,6,True,right,0.0,0.2845,0.4346,0.15,1.2936,1.7928,0.4992,A
118,118,0.50017,0.1,1,0.37513,0.36679,0.50851,118,2.4175,0.34,0.16672,0.6669,5,3D1U,1.0,True,0.249,5,True,left,0.0,0.3763,1.0434,0.6671,1.5516,2.0525,0.5009,V
119,119,0.50017,1.2,2,0.40847,0.3001,0.88364,119,2.1424,-0.9,-0.45016,0.05002,5,lapse_rate,1.0,True,0.5,0,False,left,0.0,1.7897,1.8394,0.0497,0.4065,0.9067,0.5003,V
120,120,0.50017,1.2,1,0.43348,0.26676,0.61688,120,2.60923,0.58,0.29177,0.79194,5,2D1U,1.0,True,0.351,2,False,left,0.0,0.4369,1.2291,0.7922,1.8457,2.3452,0.4995,A
121,121,0.50017,0.1,2,0.29177,0.25842,0.79194,121,2.15074,-0.38,-0.19173,0.30844,5,1D2U,1.0,True,0.292,4,False,left,0.0,1.5794,1.8873,0.3079,0.2869,0.7874,0.5005,V
122,122,0.50017,1.2,1,0.44182,0.25842,0.69191,122,2.22577,-0.34,-0.16672,0.33345,5,1D2U,2.0,True,0.234,4,False,right,0.0,0.4424,0.7756,0.3332,1.4662,1.9664,0.5003,A
123,123,0.50017,0.1,2,0.30844,0.21674,0.83362,123,2.52587,0.34,0.16672,0.6669,5,3D1U,2.0,True,0.31,5,True,right,0.0,1.6386,2.3054,0.6667,0.3048,0.8048,0.5,V
124,124,0.50017,1.2,2,0.40014,0.3001,0.6669,124,2.01736,-0.7,-0.35012,0.15005,5,1D3U,1.0,True,0.781,6,True,left,0.0,1.5694,1.7202,0.1508,0.402,0.903,0.501,A
125,125,0.50017,0.1,1,0.33345,0.33345,0.52518,125,2.45918,0.54,0.26676,0.76693,5,2D1U,2.0,False,0.295,3,True,right,0.0,0.3312,1.0972,0.7661,1.6226,2.1223,0.4997,V
126,126,0.50017,0.1,2,0.34178,0.23341,0.61688,126,2.64257,0.9,0.45016,0.95033,5,lapse_rate,2.0,True,0.305,0,False,right,0.0,1.4595,2.41,0.9504,0.344,0.8432,0.4992,V
127,127,0.50017,1.2,2,0.31678,0.3001,0.61688,127,1.88398,-0.7,-0.35012,0.15005,5,1D3U,1.0,True,0.59,6,True,left,0.0,1.4305,1.5817,0.1512,0.3138,0.8137,0.4999,A
128,128,0.50017,0.1,2,0.21674,0.3918,0.49184,128,1.934,-0.34,-0.16672,0.33345,5,1D2U,1.0,True,0.28,4,False,left,0.0,1.206,1.5393,0.3333,0.2143,0.7146,0.5002,A
129,129,0.50017,1.2,1,0.41681,0.21674,0.60854,129,2.39248,0.3,0.15005,0.65022,5,3D1U,2.0,False,0.33,5,False,right,0.0,0.4163,1.0664,0.6501,1.6746,2.1746,0.5001,A
130,130,0.50017,0.1,1,0.40847,0.34178,0.84196,130,3.04271,0.9,0.45016,0.95033,5,lapse_rate,1.0,True,0.241,0,False,left,0.0,0.4074,1.3572,0.9498,2.1989,2.6988,0.4999,A
131,131,0.50017,0.1,1,0.40847,0.41681,0.84196,131,2.95935,0.58,0.29177,0.79194,5,2D1U,2.0,False,0.386,4,True,right,0.0,0.404,1.1964,0.7924,2.0373,2.5372,0.4999,V
132,132,0.50017,1.2,1,0.35012,0.29177,0.52518,132,1.83396,-0.66,-0.33345,0.16672,5,1D3U,2.0,True,0.772,6,False,right,0.0,0.3499,0.5164,0.1664,1.042,1.5414,0.4994,A
133,133,0.50017,0.1,2,0.28343,0.29177,0.41681,133,1.8423,-0.3,-0.15005,0.35012,5,1D2U,1.0,True,0.455,4,False,left,0.0,1.2004,1.5496,0.3493,0.2833,0.7832,0.4999,V
134,134,0.50017,1.2,2,0.31678,0.29177,0.54185,134,1.70059,-0.9,-0.45016,0.05002,5,lapse_rate,1.0,True,0.665,0,False,left,0.0,1.3573,1.4065,0.0492,0.3151,0.8151,0.5,A
135,135,0.50017,1.2,2,0.3918,0.33345,0.61688,135,2.5092,0.34,0.16672,0.6669,5,3D1U,2.0,True,0.311,6,True,right,0.0,1.5081,2.1748,0.6667,0.3914,0.8919,0.5005,A
136,136,0.50017,0.1,2,0.43348,0.25009,0.67523,136,2.66758,0.62,0.30844,0.80861,5,2D1U,2.0,True,0.36,4,False,right,0.0,1.6068,2.4151,0.8083,0.4321,0.9319,0.4998,V
137,137,0.50017,1.2,1,0.23341,0.44182,0.74192,137,2.72593,0.62,0.30844,0.80861,5,2D1U,2.0,False,0.446,4,False,right,0.0,0.2322,1.0403,0.8081,1.7824,2.2821,0.4997,A
138,138,0.50017,0.1,1,0.34178,0.25009,0.76693,138,2.02569,-0.66,-0.33345,0.16672,5,1D3U,1.0,False,0.517,6,False,left,0.0,0.3376,0.5039,0.1663,1.271,1.771,0.5,A
139,139,0.50017,1.2,1,0.30844,0.44182,0.68357,139,2.28412,-0.3,-0.15005,0.35012,5,1D2U,2.0,True,0.269,4,False,right,0.0,0.3069,0.6568,0.3499,1.3403,1.8402,0.5,A
140,140,0.50017,0.1,2,0.27509,0.20007,0.88364,140,2.52587,0.34,0.16672,0.6669,5,3D1U,2.0,True,0.202,6,True,right,0.0,1.6536,2.3206,0.667,0.2705,0.7709,0.5004,V
141,141,0.50017,1.2,1,0.45016,0.21674,0.82528,141,2.94268,0.9,0.45016,0.95033,5,lapse_rate,2.0,False,0.33,0,False,right,0.0,0.4514,1.4016,0.9502,2.2261,2.7272,0.501,A
142,142,0.50017,1.2,2,0.3918,0.37513,0.56686,142,2.66758,0.66,0.33345,0.83362,5,2D1U,2.0,True,1.069,4,False,right,0.0,1.4597,2.2927,0.833,0.3927,0.8931,0.5004,V
143,143,0.50017,0.1,1,0.40847,0.42515,0.73359,143,2.43417,-0.26,-0.13338,0.36679,5,1D2U,2.0,True,0.229,4,False,right,0.0,0.4085,0.776,0.3675,1.5092,2.0081,0.4989,A
144,144,0.50017,1.2,1,0.28343,0.41681,0.6669,144,2.01736,-0.7,-0.35012,0.15005,5,1D3U,2.0,True,0.202,7,True,right,0.0,0.2789,0.4288,0.15,1.0956,1.5954,0.4998,A
145,145,0.50017,0.1,2,0.40014,0.20007,0.70024,145,2.46752,0.34,0.16672,0.6669,5,3D1U,2.0,True,0.107,6,True,right,0.0,1.5953,2.2632,0.6678,0.3951,0.8954,0.5003,A
146,146,0.50017,1.2,2,0.31678,0.25009,0.76693,146,2.48419,0.3,0.15005,0.65022,5,3D1U,2.0,True,0.293,7,True,right,0.0,1.5826,2.2317,0.649,0.3147,0.8152,0.5006,A
147,147,0.50017,0.1,2,0.32511,0.43348,0.89197,147,2.51752,-0.26,-0.13338,0.36679,5,1D2U,1.0,True,0.188,4,False,left,0.0,1.7163,2.082,0.3657,0.3241,0.8242,0.5001,V
148,148,0.50017,1.2,2,0.20007,0.25009,0.52518,148,1.62556,-0.7,-0.35012,0.15005,5,1D3U,1.0,True,0.347,7,True,left,0.0,1.2258,1.3756,0.1498,0.2003,0.7006,0.5003,A
149,149,0.50017,0.1,2,0.43348,0.40014,0.42515,149,2.40916,0.3,0.15005,0.65022,5,3D1U,2.0,True,0.14,7,True,right,0.0,1.3561,2.0069,0.6508,0.4306,0.9319,0.5013,A
150,150,0.50017,1.2,2,0.40014,0.22508,0.90031,150,2.85932,0.66,0.33345,0.83362,5,2D1U,2.0,True,1.012,4,False,right,0.0,1.7968,2.6301,0.8332,0.3966,0.8968,0.5002,V
151,151,0.50017,0.1,1,0.3918,0.43348,0.86697,151,2.58422,-0.22,-0.10837,0.3918,5,1D2U,2.0,True,0.216,4,False,right,0.0,0.3882,0.7798,0.3917,1.6465,2.147,0.5005,V
152,152,0.50017,1.2,2,0.22508,0.33345,0.42515,152,1.87565,-0.22,-0.10837,0.3918,5,1D2U,1.0,True,0.365,4,False,left,0.0,1.1528,1.5439,0.3911,0.2281,0.7287,0.5006,A
153,153,0.50017,0.1,2,0.37513,0.27509,0.53352,153,2.33413,0.3,0.15005,0.65022,5,3D1U,2.0,True,0.273,7,True,right,0.0,1.4097,2.0598,0.6501,0.377,0.8765,0.4995,A
154,154,0.50017,1.2,2,0.35846,0.3001,0.90031,154,2.86765,0.62,0.30844,0.80861,5,2D1U,2.0,True,0.192,5,True,right,0.0,1.7568,2.5659,0.8091,0.3574,0.8569,0.4995,A
155,155,0.50017,0.1,1,0.28343,0.27509,0.51685,155,2.38415,0.62,0.30844,0.80861,5,2D1U,2.0,False,0.4,5,True,right,0.0,0.2813,1.0907,0.8094,1.6064,2.1068,0.5004,V
156,156,0.50017,1.2,1,0.37513,0.44182,0.73359,156,2.20076,-0.7,-0.35012,0.15005,5,1D3U,2.0,True,0.217,7,True,right,0.0,0.3704,0.5197,0.1493,1.2544,1.754,0.4997,A
157,157,0.50017,0.1,2,0.29177,0.35846,0.45016,157,2.23411,0.26,0.13338,0.63355,5,3D1U,2.0,True,0.108,7,False,right,0.0,1.2409,1.8733,0.6323,0.2906,0.7906,0.5,V
158,158,0.50017,1.2,2,0.29177,0.43348,0.52518,158,2.58422,0.66,0.33345,0.83362,5,2D1U,2.0,True,0.829,6,True,right,0.0,1.3152,2.1487,0.8335,0.291,0.7904,0.4995,A
159,159,0.50017,0.1,2,0.27509,0.40014,0.70858,159,2.7176,0.66,0.33345,0.83362,5,2D1U,2.0,True,0.315,6,True,right,0.0,1.4797,2.3141,0.8344,0.2717,0.7717,0.5,V
160,160,0.50017,1.2,2,0.40847,0.38347,0.40014,160,2.10072,-0.18,-0.0917,0.40847,5,1D2U,1.0,True,0.383,4,False,left,0.0,1.3098,1.7181,0.4083,0.41,0.9103,0.5003,A
161,161,0.50017,0.1,2,0.40014,0.21674,0.74192,161,2.02569,-0.66,-0.33345,0.16672,5,1D3U,1.0,True,0.276,8,True,left,0.0,1.6426,1.8084,0.1658,0.4019,0.9013,0.4994,A
162,162,0.50017,1.2,2,0.25009,0.24175,0.70858,162,2.5092,0.62,0.30844,0.80861,5,2D1U,1.0,False,0.932,7,True,left,0.0,1.4578,2.2666,0.8087,0.2488,0.7499,0.5011,V
163,163,0.50017,0.1,2,0.36679,0.20007,0.76693,163,2.24243,-0.18,-0.0917,0.40847,5,1D2U,1.0,True,0.409,4,False,left,0.0,1.6307,2.0402,0.4095,0.3659,0.8643,0.4984,V
164,164,0.50017,1.2,1,0.25009,0.34178,0.69191,164,2.21743,-0.14,-0.06669,0.43348,5,1D2U,2.0,True,0.221,4,False,right,0.0,0.2465,0.6799,0.4334,1.3719,1.8714,0.4994,A
165,165,0.50017,0.1,2,0.23341,0.35846,0.58353,165,2.30912,0.26,0.13338,0.63355,5,3D1U,2.0,True,0.188,7,False,right,0.0,1.3192,1.9521,0.6329,0.2347,0.7352,0.5005,V
166,166,0.50017,1.2,1,0.21674,0.30844,0.69191,166,1.88398,-0.66,-0.33345,0.16672,5,1D3U,2.0,True,0.17,8,True,right,0.0,0.216,0.3814,0.1653,1.0732,1.5735,0.5003,V
167,167,0.50017,0.1,2,0.42515,0.24175,0.61688,167,2.21743,-0.14,-0.06669,0.43348,5,1D2U,1.0,True,0.558,4,False,left,0.0,1.5393,1.9728,0.4335,0.4231,0.9233,0.5002,V
168,168,0.50017,1.2,1,0.40014,0.34178,0.59187,168,2.00068,-0.66,-0.33345,0.16672,5,1D3U,2.0,True,0.209,8,True,right,0.0,0.3946,0.5614,0.1668,1.1531,1.6528,0.4997,V
169,169,0.50017,0.1,1,0.33345,0.38347,0.44182,169,1.85064,-0.62,-0.30844,0.19173,5,1D3U,2.0,True,0.167,8,False,right,0.0,0.3331,0.5247,0.1917,0.9665,1.4669,0.5004,V
170,170,0.50017,1.2,2,0.22508,0.27509,0.76693,170,2.40082,0.26,0.13338,0.63355,5,3D1U,2.0,True,0.216,7,False,right,0.0,1.4887,2.1219,0.6332,0.2228,0.722,0.4992,A
171,171,0.50017,0.1,2,0.42515,0.30844,0.85863,171,2.92601,0.66,0.33345,0.83362,5,2D1U,2.0,True,0.213,8,True,right,0.0,1.7851,2.6182,0.8331,0.4264,0.9266,0.5002,A
172,172,0.50017,1.2,1,0.25842,0.28343,0.79194,172,2.02569,-0.62,-0.30844,0.19173,5,1D3U,1.0,False,0.296,8,False,left,0.0,0.2546,0.4465,0.1919,1.2388,1.7387,0.4999,V
173,173,0.50017,0.1,2,0.29177,0.3918,0.60854,173,2.24244,-0.1,-0.05002,0.45016,5,1D2U,2.0,False,0.175,4,False,right,0.0,1.398,1.848,0.4499,0.2899,0.7898,0.5,A
174,174,0.50017,1.2,1,0.25842,0.21674,0.43348,174,2.01735,0.22,0.10837,0.60854,5,3D1U,2.0,False,0.284,7,False,right,0.0,0.2606,0.8692,0.6086,1.3023,1.8036,0.5013,V
175,175,0.50017,0.1,1,0.33345,0.40847,0.85029,175,2.926,0.66,0.33345,0.83362,5,2D1U,1.0,True,0.231,8,True,left,0.0,0.3328,1.1668,0.834,2.0161,2.5161,0.5,A
176,176,0.50017,1.2,2,0.3918,0.43348,0.60854,176,2.7426,0.62,0.30844,0.80861,5,2D1U,2.0,True,0.343,9,True,right,0.0,1.4959,2.3049,0.8091,0.3888,0.8884,0.4995,A
177,177,0.50017,0.1,2,0.43348,0.40014,0.83362,177,2.80096,0.26,0.13338,0.63355,5,3D1U,2.0,True,0.274,8,True,right,0.0,1.7623,2.3952,0.6329,0.4283,0.9286,0.5004,A
178,178,0.50017,1.2,2,0.34178,0.20841,0.7586,178,2.24244,-0.14,-0.06669,0.43348,5,1D2U,2.0,False,1.076,5,True,right,0.0,1.6004,2.0336,0.4332,0.3427,0.8425,0.4998,V
179,179,0.50017,0.1,2,0.35846,0.44182,0.64189,179,2.10906,-0.66,-0.33345,0.16672,5,1D3U,1.0,True,0.228,9,True,left,0.0,1.4986,1.6657,0.1671,0.357,0.8573,0.5003,V
180,180,0.50017,1.2,2,0.29177,0.34178,0.70024,180,2.64257,0.62,0.30844,0.80861,5,2D1U,2.0,True,0.317,9,True,right,0.0,1.4938,2.301,0.8073,0.2938,0.7938,0.5,A
181,181,0.50017,0.1,2,0.37513,0.25842,0.80861,181,2.73427,0.58,0.29177,0.79194,5,2D1U,2.0,True,0.305,9,False,right,0.0,1.6874,2.4785,0.791,0.3783,0.8782,0.4999,A
182,182,0.50017,1.2,2,0.33345,0.24175,0.41681,182,1.6589,-0.66,-0.33345,0.16672,5,1D3U,1.0,True,0.378,9,True,left,0.0,1.2516,1.4184,0.1668,0.3341,0.8345,0.5004,V
183,183,0.50017,0.1,1,0.43348,0.27509,0.83362,183,2.67591,0.26,0.13338,0.63355,5,3D1U,2.0,False,0.284,8,True,right,0.0,0.43,1.0628,0.6328,1.8966,2.3967,0.5001,A
184,184,0.50017,1.2,1,0.37513,0.23341,0.70024,184,2.21742,-0.18,-0.0917,0.40847,5,1D2U,1.0,False,0.571,5,False,left,0.0,0.3738,0.7823,0.4085,1.4821,1.9823,0.5002,V
185,185,0.50017,0.1,1,0.43348,0.33345,0.51685,185,2.57589,0.58,0.29177,0.79194,5,2D1U,1.0,True,0.312,9,False,left,0.0,0.4301,1.221,0.7909,1.7372,2.2383,0.5011,V
186,186,0.50017,1.2,2,0.28343,0.29177,0.43348,186,1.67557,-0.66,-0.33345,0.16672,5,1D3U,1.0,True,0.326,9,True,left,0.0,1.2147,1.3818,0.1671,0.2819,0.7819,0.5,A
187,187,0.50017,0.1,1,0.27509,0.26676,0.80861,187,2.50085,0.3,0.15005,0.65022,5,3D1U,2.0,False,1.174,8,False,right,0.0,0.2723,0.9227,0.6505,1.7309,2.2302,0.4993,V
188,188,0.50017,1.2,2,0.25842,0.30844,0.56686,188,2.40082,0.54,0.26676,0.76693,5,2D1U,1.0,False,0.492,9,False,left,0.0,1.3253,2.0921,0.7668,0.2588,0.7589,0.5001,V
189,189,0.50017,0.1,1,0.33345,0.25009,0.85863,189,2.13407,-0.62,-0.30844,0.19173,5,1D3U,2.0,True,0.316,10,True,right,0.0,0.3305,0.5218,0.1914,1.3809,1.8815,0.5006,V
190,190,0.50017,1.2,1,0.36679,0.3001,0.55853,190,2.11739,-0.22,-0.10837,0.3918,5,1D2U,2.0,True,0.196,5,False,right,0.0,0.3647,0.7568,0.3921,1.3148,1.8148,0.5,V
191,191,0.50017,0.1,2,0.25842,0.30844,0.55019,191,2.28412,0.34,0.16672,0.6669,5,3D1U,2.0,True,0.166,8,False,right,0.0,1.3101,1.977,0.6669,0.2596,0.7604,0.5008,A
192,192,0.50017,1.2,1,0.44182,0.23341,0.65022,192,2.01735,-0.62,-0.30844,0.19173,5,1D3U,2.0,True,0.953,10,True,right,0.0,0.4404,0.6323,0.1919,1.2822,1.7819,0.4997,V
193,193,0.50017,0.1,1,0.27509,0.28343,0.60854,193,2.05903,-0.22,-0.10837,0.3918,5,1D2U,1.0,False,0.673,5,False,left,0.0,0.2762,0.668,0.3918,1.2771,1.7765,0.4994,V
194,194,0.50017,1.2,2,0.25842,0.35012,0.77527,194,2.55088,0.34,0.16672,0.6669,5,3D1U,2.0,True,0.306,8,False,right,0.0,1.5303,2.1969,0.6666,0.2553,0.7554,0.5001,A
195,195,0.50017,0.1,1,0.29177,0.37513,0.71691,195,2.55088,0.34,0.16672,0.6669,5,3D1U,2.0,False,0.407,8,False,right,0.0,0.2872,0.9541,0.6669,1.6708,2.17,0.4992,V
196,196,0.50017,1.2,2,0.42515,0.27509,0.54185,196,2.5342,0.58,0.29177,0.79194,5,2D1U,2.0,True,0.161,10,True,right,0.0,1.4652,2.2562,0.791,0.4235,0.9264,0.5028,A
197,197,0.50017,0.1,2,0.22508,0.42515,0.79194,197,2.30913,-0.26,-0.13338,0.36679,5,1D2U,1.0,True,0.167,5,False,left,0.0,1.5203,1.8871,0.3668,0.2278,0.729,0.5013,A
198,198,0.50017,1.2,2,0.36679,0.27509,0.61688,198,2.55087,0.58,0.29177,0.79194,5,2D1U,2.0,True,0.234,10,True,right,0.0,1.4841,2.2761,0.7919,0.3675,0.8674,0.5,V
199,199,0.50017,0.1,2,0.36679,0.34178,0.4835,199,2.38415,0.38,0.19173,0.69191,5,3D1U,2.0,True,0.246,8,False,right,0.0,1.3538,2.0451,0.6913,0.3701,0.8701,0.5,V
200,200,0.50017,1.2,1,0.3918,0.40847,0.6669,200,2.65925,0.38,0.19173,0.69191,5,3D1U,2.0,False,0.222,8,False,right,0.0,0.3879,1.0792,0.6913,1.7466,2.2464,0.4999,A
201,201,0.50017,0.1,1,0.41681,0.34178,0.52518,201,1.97567,-0.62,-0.30844,0.19173,5,1D3U,2.0,True,0.107,10,True,right,0.0,0.4172,0.609,0.1919,1.1336,1.6334,0.4999,A
202,202,0.50017,1.2,2,0.22508,0.34178,0.70858,202,2.54254,0.54,0.26676,0.76693,5,2D1U,2.0,True,0.218,11,True,right,0.0,1.4343,2.2009,0.7666,0.2253,0.7259,0.5006,V
203,203,0.50017,0.1,2,0.21674,0.29177,0.84196,203,2.55922,0.42,0.20841,0.70858,5,3D1U,2.0,True,0.202,8,False,right,0.0,1.5564,2.264,0.7077,0.2133,0.7133,0.4999,V
204,204,0.50017,1.2,1,0.25009,0.42515,0.51685,204,2.05905,-0.26,-0.13338,0.36679,5,1D2U,1.0,False,0.705,5,False,left,0.0,0.2508,0.6177,0.3669,1.1339,1.6341,0.5002,A
205,205,0.50017,0.1,1,0.3001,0.45016,0.85029,205,2.30913,-0.58,-0.29177,0.20841,5,1D3U,2.0,True,0.239,10,False,right,0.0,0.2972,0.5052,0.208,1.3559,1.8559,0.5,A
206,206,0.50017,1.2,2,0.43348,0.36679,0.50017,206,2.56754,0.54,0.26676,0.76693,5,2D1U,2.0,True,0.5,11,True,right,0.0,1.4284,2.1958,0.7674,0.4289,0.9292,0.5003,A
207,207,0.50017,0.1,1,0.35846,0.41681,0.41681,207,2.44251,0.5,0.25009,0.75026,5,2D1U,2.0,False,0.616,11,False,right,0.0,0.3561,1.1055,0.7494,1.5228,2.0234,0.5006,V
208,208,0.50017,1.2,1,0.43348,0.41681,0.74192,208,2.4425,-0.3,-0.15005,0.35012,5,1D2U,2.0,True,0.176,5,False,right,0.0,0.4317,0.7813,0.3496,1.5235,2.0227,0.4992,V
209,209,0.50017,0.1,2,0.3918,0.40014,0.51685,209,2.01737,-0.58,-0.29177,0.20841,5,1D3U,1.0,True,0.184,10,False,left,0.0,1.4086,1.6172,0.2087,0.3923,0.8924,0.5002,V
210,210,0.50017,1.2,1,0.22508,0.3001,0.65856,210,2.39249,0.42,0.20841,0.70858,5,3D1U,2.0,False,0.311,8,False,right,0.0,0.2217,0.9301,0.7084,1.5883,2.0881,0.4999,A
211,211,0.50017,0.1,1,0.35846,0.29177,0.6669,211,2.58423,0.54,0.26676,0.76693,5,2D1U,1.0,True,0.24,12,True,left,0.0,0.3567,1.1243,0.7676,1.7896,2.2904,0.5008,V
212,212,0.50017,1.2,1,0.21674,0.32511,0.81695,212,2.59256,0.46,0.23341,0.73359,5,3D1U,1.0,True,0.407,8,False,left,0.0,0.2139,0.9481,0.7342,1.7638,2.2638,0.5,V
213,213,0.50017,0.1,1,0.26676,0.27509,0.64189,213,2.03403,-0.3,-0.15005,0.35012,5,1D2U,2.0,True,0.251,5,False,right,0.0,0.2685,0.6183,0.3498,1.2602,1.7603,0.5001,V
214,214,0.50017,1.2,2,0.31678,0.30844,0.81695,214,2.15075,-0.58,-0.29177,0.20841,5,1D3U,1.0,True,0.282,10,False,left,0.0,1.6314,1.8397,0.2082,0.3141,0.8144,0.5003,V
215,215,0.50017,0.1,1,0.40014,0.25009,0.60021,215,2.51754,0.54,0.26676,0.76693,5,2D1U,1.0,True,1.102,12,True,left,0.0,0.4006,1.1669,0.7663,1.7674,2.2669,0.4995,A
216,216,0.50017,1.2,1,0.33345,0.41681,0.72525,216,2.72594,0.5,0.25009,0.75026,5,2D1U,2.0,False,0.108,13,True,right,0.0,0.329,1.08,0.7509,1.8042,2.3036,0.4994,A
217,217,0.50017,0.1,2,0.33345,0.3918,0.86697,217,2.45918,-0.26,-0.13338,0.36679,5,1D2U,1.0,True,0.197,6,True,left,0.0,1.7018,2.0688,0.3671,0.3344,0.8346,0.5002,A
218,218,0.50017,1.2,2,0.40847,0.33345,0.82528,218,2.80096,0.46,0.23341,0.73359,5,3D1U,2.0,True,0.43,8,False,right,0.0,1.7307,2.4647,0.734,0.4052,0.9058,0.5005,A
219,219,0.50017,0.1,2,0.38347,0.33345,0.62522,219,2.60924,0.54,0.26676,0.76693,5,2D1U,2.0,True,0.254,14,True,right,0.0,1.5034,2.2704,0.767,0.3779,0.8789,0.501,V
220,220,0.50017,1.2,1,0.21674,0.38347,0.6669,220,2.00069,-0.54,-0.26676,0.23341,5,1D3U,2.0,True,0.218,10,False,right,0.0,0.2167,0.45,0.2333,1.1174,1.6167,0.4992,A
221,221,0.50017,0.1,2,0.25009,0.23341,0.55853,221,1.90899,-0.26,-0.13338,0.36679,5,1D2U,2.0,False,1.186,6,True,right,0.0,1.3081,1.6754,0.3673,0.2499,0.75,0.5001,A
222,222,0.50017,1.2,2,0.24175,0.25842,0.80028,222,2.15074,-0.3,-0.15005,0.35012,5,1D2U,2.0,False,0.314,7,True,right,0.0,1.5445,1.8953,0.3508,0.2443,0.7443,0.5,A
223,223,0.50017,0.1,1,0.20841,0.3918,0.50851,223,1.8423,-0.54,-0.26676,0.23341,5,1D3U,2.0,True,0.114,10,False,right,0.0,0.2091,0.4423,0.2332,0.9503,1.4505,0.5002,A
224,224,0.50017,1.2,1,0.25842,0.26676,0.55853,224,2.35081,0.54,0.26676,0.76693,5,2D1U,1.0,True,0.25,14,True,left,0.0,0.2532,1.0197,0.7665,1.5787,2.0784,0.4998,A
225,225,0.50017,0.1,2,0.28343,0.33345,0.53352,225,2.38416,0.46,0.23341,0.73359,5,3D1U,2.0,True,0.193,8,False,right,0.0,1.3121,2.0451,0.733,0.2798,0.7797,0.5,V
226,226,0.50017,1.2,1,0.20841,0.28343,0.68357,226,2.38416,0.42,0.20841,0.70858,5,3D1U,2.0,False,0.206,9,True,right,0.0,0.2087,0.9168,0.708,1.5996,2.1001,0.5005,A
227,227,0.50017,0.1,1,0.33345,0.21674,0.74192,227,2.52587,0.46,0.23341,0.73359,5,3D1U,1.0,True,0.526,10,True,left,0.0,0.3304,1.0632,0.7329,1.8058,2.3058,0.4999,V
228,228,0.50017,1.2,2,0.28343,0.3918,0.84196,228,2.25077,-0.54,-0.26676,0.23341,5,1D3U,1.0,True,0.318,10,False,left,0.0,1.6248,1.8584,0.2336,0.2832,0.7832,0.5,A
229,229,0.50017,0.1,1,0.36679,0.34178,0.89197,229,2.3508,-0.5,-0.25009,0.25009,5,1D3U,2.0,True,0.268,10,False,right,0.0,0.3654,0.6165,0.2511,1.5069,2.0066,0.4997,V
230,230,0.50017,1.2,2,0.23341,0.35012,0.42515,230,2.25911,0.5,0.25009,0.75026,5,2D1U,2.0,True,0.109,15,True,right,0.0,1.1542,1.9045,0.7503,0.2287,0.729,0.5003,A
231,231,0.50017,0.1,2,0.40014,0.33345,0.55853,231,2.12574,-0.34,-0.16672,0.33345,5,1D2U,1.0,True,0.54,7,False,left,0.0,1.4618,1.7947,0.3329,0.4028,0.903,0.5001,V
232,232,0.50017,1.2,1,0.22508,0.33345,0.58353,232,2.37582,0.46,0.23341,0.73359,5,3D1U,2.0,False,0.487,10,True,right,0.0,0.2253,0.9593,0.7341,1.5422,2.0425,0.5003,A
233,233,0.50017,0.1,1,0.35846,0.25009,0.55853,233,2.41751,0.5,0.25009,0.75026,5,2D1U,1.0,True,0.287,15,True,left,0.0,0.3571,1.1077,0.7505,1.6656,2.1653,0.4997,V
234,234,0.50017,1.2,1,0.31678,0.3001,0.49184,234,1.94234,-0.34,-0.16672,0.33345,5,1D2U,2.0,True,0.238,7,False,right,0.0,0.313,0.6467,0.3337,1.1381,1.6383,0.5002,A
235,235,0.50017,0.1,1,0.27509,0.35012,0.86697,235,2.34247,-0.3,-0.15005,0.35012,5,1D2U,2.0,True,0.259,8,True,right,0.0,0.2743,0.6241,0.3498,1.4914,1.9914,0.5001,V
236,236,0.50017,1.2,1,0.42515,0.21674,0.58353,236,1.97568,-0.5,-0.25009,0.25009,5,1D3U,2.0,True,0.677,10,False,right,0.0,0.4209,0.6711,0.2502,1.2541,1.7543,0.5002,V
237,237,0.50017,0.1,2,0.32511,0.36679,0.41681,237,1.959,-0.3,-0.15005,0.35012,5,1D2U,1.0,True,0.177,8,True,left,0.0,1.2438,1.594,0.3502,0.3271,0.8272,0.5001,A
238,238,0.50017,1.2,1,0.3918,0.30844,0.76693,238,2.70093,0.46,0.23341,0.73359,5,2D1U,2.0,False,0.305,15,False,right,0.0,0.3885,1.1215,0.733,1.8887,2.3881,0.4994,A
239,239,0.50017,0.1,2,0.31678,0.3001,0.5752,239,2.44251,0.5,0.25009,0.75026,5,3D1U,2.0,True,0.721,10,False,right,0.0,1.3932,2.1437,0.7505,0.3183,0.8184,0.5,A
240,240,0.50017,1.2,1,0.35846,0.43348,0.59187,240,2.63424,0.5,0.25009,0.75026,5,3D1U,2.0,False,0.211,10,False,right,0.0,0.3612,1.1108,0.7496,1.7032,2.2033,0.5001,A
241,241,0.50017,0.1,1,0.20841,0.42515,0.68357,241,2.06739,-0.5,-0.25009,0.25009,5,1D3U,2.0,True,0.221,10,False,right,0.0,0.2076,0.458,0.2504,1.1413,1.6401,0.4988,V
242,242,0.50017,1.2,2,0.31678,0.45016,0.56686,242,2.58423,0.5,0.25009,0.75026,5,2D1U,2.0,True,0.481,16,True,right,0.0,1.3832,2.1333,0.7501,0.3167,0.8163,0.4996,V
243,243,0.50017,0.1,2,0.34178,0.31678,0.46683,243,1.89232,-0.46,-0.23341,0.26676,5,1D3U,1.0,True,0.355,10,False,left,0.0,1.3079,1.5763,0.2683,0.3421,0.841,0.499,A
244,244,0.50017,1.2,1,0.31678,0.40014,0.63355,244,2.1174,-0.46,-0.23341,0.26676,5,1D3U,1.0,False,0.431,10,False,left,0.0,0.3181,0.5846,0.2665,1.2186,1.7179,0.4993,A
245,245,0.50017,0.1,1,0.24175,0.41681,0.53352,245,2.05904,-0.26,-0.13338,0.36679,5,1D2U,2.0,True,0.109,8,False,right,0.0,0.2407,0.6073,0.3666,1.1406,1.6403,0.4997,A
246,246,0.50017,1.2,1,0.37513,0.3918,0.45849,246,2.49252,0.54,0.26676,0.76693,5,3D1U,2.0,False,0.205,10,False,right,0.0,0.3748,1.1417,0.767,1.5998,2.1002,0.5004,A
247,247,0.50017,0.1,1,0.25842,0.30844,0.89197,247,2.70926,0.5,0.25009,0.75026,5,2D1U,1.0,True,0.254,16,True,left,0.0,0.2545,1.0046,0.75,1.896,2.3957,0.4997,V
248,248,0.50017,1.2,1,0.26676,0.44182,0.86697,248,2.86766,0.58,0.29177,0.79194,5,3D1U,2.0,False,0.128,10,False,right,0.0,0.2678,1.0598,0.792,1.9267,2.4271,0.5005,V
249,249,0.50017,0.1,1,0.25842,0.40014,0.54185,249,2.06737,-0.26,-0.13338,0.36679,5,1D2U,2.0,True,0.272,8,False,right,0.0,0.2547,0.6213,0.3666,1.1628,1.6631,0.5003,V
250,250,0.50017,1.2,1,0.30844,0.22508,0.70858,250,1.99236,-0.5,-0.25009,0.25009,5,1D3U,2.0,True,0.241,11,True,right,0.0,0.3075,0.5574,0.2499,1.2661,1.7661,0.5,A
251,251,0.50017,0.1,1,0.30844,0.33345,0.41681,251,2.29246,0.46,0.23341,0.73359,5,2D1U,2.0,False,0.244,17,True,right,0.0,0.3055,1.0389,0.7335,1.4562,1.9555,0.4993,A
252,252,0.50017,1.2,2,0.24175,0.23341,0.65856,252,2.02569,-0.22,-0.10837,0.3918,5,1D2U,1.0,True,0.316,8,False,left,0.0,1.4006,1.7923,0.3917,0.2423,0.7426,0.5003,A
253,253,0.50017,0.1,1,0.3001,0.21674,0.86697,253,2.13407,-0.5,-0.25009,0.25009,5,1D3U,2.0,True,0.158,11,True,right,0.0,0.3037,0.5534,0.2497,1.4194,1.9202,0.5009,V
254,254,0.50017,1.2,2,0.40014,0.3918,0.7586,254,2.85932,0.62,0.30844,0.80861,5,3D1U,2.0,True,0.223,10,False,right,0.0,1.6543,2.4631,0.8088,0.3961,0.8953,0.4992,A
255,255,0.50017,0.1,2,0.41681,0.44182,0.85863,255,2.96769,0.5,0.25009,0.75026,5,2D1U,2.0,True,0.283,18,True,right,0.0,1.777,2.5284,0.7514,0.4195,0.9198,0.5002,V
256,256,0.50017,1.2,2,0.37513,0.40847,0.40847,256,2.08404,-0.22,-0.10837,0.3918,5,1D2U,2.0,False,0.467,8,False,right,0.0,1.2848,1.6768,0.392,0.3763,0.8769,0.5006,A
257,257,0.50017,0.1,2,0.23341,0.42515,0.65022,257,2.05904,-0.5,-0.25009,0.25009,5,1D3U,1.0,True,0.109,11,True,left,0.0,1.3857,1.6353,0.2496,0.2358,0.7359,0.5,V
258,258,0.50017,1.2,1,0.41681,0.30844,0.65856,258,2.15074,-0.46,-0.23341,0.26676,5,1D3U,2.0,True,0.198,12,True,right,0.0,0.4201,0.6862,0.2661,1.3445,1.8451,0.5006,V
259,259,0.50017,0.1,2,0.21674,0.37513,0.63355,259,2.09238,-0.26,-0.13338,0.36679,5,1D2U,1.0,True,0.223,9,True,left,0.0,1.3517,1.7183,0.3666,0.2191,0.7188,0.4997,A
260,260,0.50017,1.2,2,0.29177,0.28343,0.80861,260,2.69259,0.62,0.30844,0.80861,5,3D1U,2.0,True,0.202,10,False,right,0.0,1.5993,2.4077,0.8083,0.2911,0.7914,0.5003,V
261,261,0.50017,0.1,1,0.43348,0.25009,0.45016,261,2.38416,0.5,0.25009,0.75026,5,2D1U,2.0,False,0.211,18,True,right,0.0,0.4335,1.1837,0.7502,1.634,2.134,0.5,V
262,262,0.50017,1.2,1,0.32511,0.28343,0.80861,262,2.18408,-0.46,-0.23341,0.26676,5,1D3U,2.0,True,0.228,12,True,right,0.0,0.3251,0.5916,0.2665,1.4002,1.9004,0.5002,A
263,263,0.50017,0.1,1,0.21674,0.30844,0.86697,263,2.25911,-0.26,-0.13338,0.36679,5,1D2U,2.0,True,0.11,9,True,right,0.0,0.2145,0.5812,0.3667,1.4472,1.9479,0.5007,A
264,264,0.50017,1.2,1,0.22508,0.23341,0.71691,264,2.4425,0.54,0.26676,0.76693,5,2D1U,2.0,False,0.243,18,False,right,0.0,0.2263,0.9932,0.7669,1.7099,2.2095,0.4996,V
265,265,0.50017,0.1,1,0.36679,0.35846,0.80861,265,2.84264,0.62,0.30844,0.80861,5,3D1U,1.0,True,0.145,10,False,left,0.0,0.3694,1.1776,0.8082,1.9865,2.4862,0.4997,V
266,266,0.50017,1.2,2,0.29177,0.30844,0.7836,266,2.67592,0.58,0.29177,0.79194,5,3D1U,2.0,True,0.229,11,True,right,0.0,1.5777,2.3684,0.7907,0.2946,0.7941,0.4995,A
267,267,0.50017,0.1,2,0.37513,0.45016,0.79194,267,2.90934,0.58,0.29177,0.79194,5,3D1U,2.0,True,0.112,11,True,right,0.0,1.6652,2.4561,0.7909,0.374,0.873,0.4991,A
268,268,0.50017,1.2,1,0.37513,0.34178,0.43348,268,2.4425,0.58,0.29177,0.79194,5,3D1U,2.0,False,0.287,11,True,right,0.0,0.3778,1.1701,0.7923,1.6029,2.1023,0.4993,A
269,269,0.50017,0.1,2,0.28343,0.3001,0.75026,269,2.10072,-0.46,-0.23341,0.26676,5,1D3U,1.0,True,0.263,12,True,left,0.0,1.5336,1.8006,0.2669,0.2839,0.7829,0.499,A
270,270,0.50017,1.2,1,0.22508,0.29177,0.64189,270,2.05071,-0.22,-0.10837,0.3918,5,1D2U,1.0,False,0.39,10,True,left,0.0,0.2228,0.6139,0.3911,1.2564,1.7559,0.4995,V
271,271,0.50017,0.1,1,0.3918,0.29177,0.63355,271,2.60923,0.58,0.29177,0.79194,5,2D1U,2.0,False,0.49,18,False,right,0.0,0.3923,1.1834,0.7911,1.8169,2.3162,0.4992,A
272,272,0.50017,1.2,2,0.25009,0.36679,0.68357,272,2.60923,0.62,0.30844,0.80861,5,3D1U,2.0,True,0.109,12,True,right,0.0,1.4321,2.2408,0.8087,0.2486,0.7487,0.5001,V
273,273,0.50017,0.1,2,0.43348,0.25009,0.54185,273,2.09238,-0.26,-0.13338,0.36679,5,1D2U,1.0,True,0.541,11,True,left,0.0,1.4746,1.8411,0.3665,0.4328,0.9322,0.4994,A
274,274,0.50017,1.2,1,0.33345,0.37513,0.76693,274,2.26745,-0.42,-0.20841,0.29177,5,1D3U,2.0,True,0.227,12,False,right,0.0,0.3301,0.6214,0.2913,1.3878,1.8877,0.4999,A
275,275,0.50017,0.1,1,0.28343,0.41681,0.53352,275,2.54254,0.62,0.30844,0.80861,5,2D1U,2.0,False,0.359,18,False,right,0.0,0.2816,1.0906,0.8091,1.6237,2.1235,0.4999,V
276,276,0.50017,1.2,1,0.26676,0.28343,0.85029,276,2.70926,0.62,0.30844,0.80861,5,3D1U,1.0,True,0.214,12,True,left,0.0,0.2651,1.0734,0.8083,1.9223,2.4232,0.5009,V
277,277,0.50017,0.1,1,0.20841,0.26676,0.56686,277,1.83397,-0.42,-0.20841,0.29177,5,1D3U,2.0,True,2.06,12,False,right,0.0,0.2051,0.496,0.291,1.0638,1.5634,0.4995,V
278,278,0.50017,1.2,1,0.35012,0.24175,0.63355,278,2.01736,-0.42,-0.20841,0.29177,5,1D3U,2.0,True,0.636,12,False,right,0.0,0.3531,0.6442,0.291,1.2784,1.7783,0.4999,A
279,279,0.50017,0.1,1,0.40014,0.29177,0.44182,279,2.00069,-0.26,-0.13338,0.36679,5,1D2U,1.0,False,0.317,11,True,left,0.0,0.4008,0.7674,0.3667,1.209,1.7087,0.4997,A
280,280,0.50017,1.2,2,0.34178,0.25842,0.85029,280,2.78428,0.66,0.33345,0.83362,5,2D1U,2.0,True,0.91,18,False,right,0.0,1.6938,2.5275,0.8337,0.3432,0.844,0.5008,A
281,281,0.50017,0.1,2,0.27509,0.32511,0.67523,281,2.58421,0.62,0.30844,0.80861,5,3D1U,2.0,True,0.974,12,True,right,0.0,1.454,2.2613,0.8073,0.2777,0.7782,0.5006,A
282,282,0.50017,1.2,2,0.40014,0.40847,0.4835,282,2.1424,-0.3,-0.15005,0.35012,5,1D2U,2.0,False,3.181,11,False,right,0.0,1.3819,1.7315,0.3496,0.3984,0.8984,0.5,V
283,283,0.50017,0.1,2,0.45016,0.43348,0.65856,283,2.87599,0.66,0.33345,0.83362,5,2D1U,2.0,True,0.542,18,False,right,0.0,1.6089,2.4424,0.8335,0.4505,0.9508,0.5003,A
284,284,0.50017,1.2,2,0.22508,0.25009,0.76693,284,2.05071,-0.38,-0.19173,0.30844,5,1D3U,2.0,False,0.326,12,False,right,0.0,1.4958,1.8037,0.308,0.2283,0.7284,0.5002,V
285,285,0.50017,0.1,2,0.36679,0.40847,0.85863,285,2.926,0.58,0.29177,0.79194,5,3D1U,2.0,True,0.267,13,True,right,0.0,1.7243,2.516,0.7917,0.3656,0.8661,0.5005,A
286,286,0.50017,1.2,2,0.31678,0.35846,0.5752,286,2.08406,-0.34,-0.16672,0.33345,5,1D2U,2.0,False,0.635,11,False,right,0.0,1.3919,1.7244,0.3325,0.3164,0.8166,0.5002,A
287,287,0.50017,0.1,1,0.24175,0.40847,0.5752,287,2.5342,0.62,0.30844,0.80861,5,2D1U,1.0,True,0.144,19,True,left,0.0,0.242,1.0503,0.8083,1.6253,2.126,0.5007,V
288,288,0.50017,1.2,2,0.21674,0.29177,0.40847,288,1.72559,-0.38,-0.19173,0.30844,5,1D2U,1.0,True,0.589,11,False,left,0.0,1.1236,1.4319,0.3082,0.2148,0.7151,0.5003,A
289,289,0.50017,0.1,2,0.26676,0.45016,0.68357,289,2.2091,-0.38,-0.19173,0.30844,5,1D2U,1.0,True,0.108,11,False,left,0.0,1.4502,1.7584,0.3082,0.2682,0.7676,0.4995,V
290,290,0.50017,1.2,2,0.35846,0.31678,0.40014,290,2.36749,0.58,0.29177,0.79194,5,3D1U,2.0,True,0.271,13,True,right,0.0,1.2613,2.0528,0.7915,0.361,0.8601,0.4991,A
291,291,0.50017,0.1,1,0.36679,0.36679,0.49184,291,2.01736,-0.42,-0.20841,0.29177,5,1D3U,1.0,False,0.536,13,True,left,0.0,0.3655,0.6558,0.2904,1.1476,1.6474,0.4998,V
292,292,0.50017,1.2,2,0.27509,0.32511,0.72525,292,2.09238,-0.46,-0.23341,0.26676,5,1D3U,1.0,True,0.399,13,False,left,0.0,1.4963,1.7624,0.2661,0.2706,0.771,0.5004,A
293,293,0.50017,0.1,1,0.23341,0.21674,0.46683,293,1.68391,-0.46,-0.23341,0.26676,5,1D3U,2.0,True,0.365,13,False,right,0.0,0.2294,0.4959,0.2665,0.9629,1.4626,0.4997,V
294,294,0.50017,1.2,2,0.40847,0.40847,0.60021,294,2.25077,-0.34,-0.16672,0.33345,5,1D2U,1.0,True,0.704,12,True,left,0.0,1.5115,1.8447,0.3332,0.4114,0.9113,0.4999,V
295,295,0.50017,0.1,2,0.38347,0.28343,0.7586,295,2.71761,0.58,0.29177,0.79194,5,3D1U,1.0,False,0.662,13,True,left,0.0,1.6419,2.4341,0.7922,0.3835,0.8837,0.5002,A
296,296,0.50017,1.2,2,0.26676,0.45016,0.63355,296,2.65925,0.62,0.30844,0.80861,5,2D1U,1.0,False,1.808,19,True,left,0.0,1.4015,2.2095,0.808,0.2675,0.7674,0.5,V
297,297,0.50017,0.1,1,0.3918,0.34178,0.44182,297,2.50919,0.66,0.33345,0.83362,5,2D1U,1.0,True,0.227,20,True,left,0.0,0.3878,1.222,0.8342,1.6631,2.1635,0.5004,A
298,298,0.50017,1.2,1,0.20007,0.42515,0.73359,298,2.66759,0.62,0.30844,0.80861,5,3D1U,2.0,False,0.225,14,True,right,0.0,0.1969,1.0054,0.8085,1.7387,2.2385,0.4999,V
299,299,0.50017,0.1,2,0.24175,0.41681,0.64189,299,2.06738,-0.46,-0.23341,0.26676,5,1D3U,1.0,True,0.211,13,False,left,0.0,1.3793,1.6455,0.2662,0.237,0.7376,0.5005,V
300,300,0.50017,1.2,2,0.45016,0.37513,0.75026,300,2.36749,-0.42,-0.20841,0.29177,5,1D3U,1.0,True,0.52,14,True,left,0.0,1.7014,1.993,0.2915,0.4514,0.9508,0.4994,V
301,301,0.50017,0.1,1,0.42515,0.32511,0.7836,301,2.36748,-0.34,-0.16672,0.33345,5,1D2U,2.0,True,0.242,12,True,right,0.0,0.4215,0.7563,0.3349,1.5377,2.0386,0.5009,A
302,302,0.50017,1.2,1,0.37513,0.20841,0.50851,302,1.94234,-0.3,-0.15005,0.35012,5,1D2U,2.0,True,0.231,12,False,right,0.0,0.3705,0.7204,0.3499,1.2295,1.7296,0.5001,A
303,303,0.50017,0.1,1,0.23341,0.26676,0.69191,303,2.04237,-0.3,-0.15005,0.35012,5,1D2U,2.0,True,0.23,12,False,right,0.0,0.229,0.5786,0.3497,1.2708,1.7701,0.4994,A
304,304,0.50017,1.2,2,0.43348,0.31678,0.70858,304,2.25078,-0.42,-0.20841,0.29177,5,1D3U,1.0,True,0.491,14,True,left,0.0,1.6413,1.9336,0.2923,0.4337,0.9334,0.4997,A
305,305,0.50017,0.1,1,0.42515,0.28343,0.70858,305,2.2091,-0.42,-0.20841,0.29177,5,1D3U,2.0,True,0.108,14,True,right,0.0,0.4249,0.7173,0.2924,1.4249,1.9248,0.4998,A
306,306,0.50017,1.2,2,0.42515,0.33345,0.68357,306,2.77596,0.66,0.33345,0.83362,5,2D1U,2.0,True,0.59,20,True,right,0.0,1.605,2.4371,0.8322,0.4215,0.9213,0.4998,A
307,307,0.50017,0.1,1,0.21674,0.3001,0.83362,307,2.65924,0.62,0.30844,0.80861,5,2D1U,1.0,True,0.256,21,True,left,0.0,0.2189,1.0284,0.8095,1.8633,2.3612,0.4979,V
