,Unnamed: 0,standardDur,audNoise,order,preDur,postDur,isiDur,trial_num,total_audio_dur,delta_dur_percents,deltaDurS,testDurS,intensities,current_stair,responses,is_correct,response_rts,stair_num_reversal,stair_is_reversal,response_keys
0,0,0.5,0.1,1,0.3667,0.3,0.8833,0,2.1,-0.9,-0.45,0.05,5,3D1U,2.0,True,0.172,0,False,right
1,1,0.5,0.1,2,0.2,0.4333,0.4167,1,2.45,0.8,0.4,0.9,5,lapse_rate,1.0,False,0.161,0,False,left
2,2,0.5,0.1,2,0.2833,0.4167,0.4833,2,1.7333,-0.9,-0.45,0.05,5,2D1U,1.0,True,0.615,0,False,left
3,3,0.5,0.1,2,0.2333,0.2667,0.9,3,2.0333,-0.74,-0.3667,0.1333,5,3D1U,1.0,True,0.384,0,False,left
4,4,0.5,0.1,2,0.3833,0.35,0.5167,4,1.85,-0.8,-0.4,0.1,5,lapse_rate,1.0,True,0.392,0,False,left
5,5,0.5,0.1,2,0.3667,0.4,0.7,5,2.0167,-0.9,-0.45,0.05,5,1D3U,1.0,True,0.309,0,False,left
6,6,0.5,0.1,2,0.4333,0.3667,0.7167,6,2.0667,-0.9,-0.45,0.05,5,1D2U,1.0,True,0.416,0,False,left
7,7,0.5,0.1,1,0.25,0.3333,0.8833,7,2.0999,-0.74,-0.3667,0.1333,5,2D1U,2.0,True,0.258,0,False,right
8,8,0.5,0.1,1,0.3333,0.4167,0.45,8,1.75,-0.9,-0.45,0.05,5,1D2U,2.0,True,0.301,0,False,right
9,9,0.5,0.1,1,0.3167,0.4167,0.8833,9,2.1667,-0.9,-0.45,0.05,5,1D3U,1.0,False,0.334,0,False,left
10,10,0.5,0.1,1,0.2333,0.35,0.5,10,2.4833,0.8,0.4,0.9,5,lapse_rate,1.0,True,0.408,0,False,left
11,11,0.5,0.1,2,0.3167,0.35,0.4667,11,1.8501,-0.58,-0.2833,0.2167,5,3D1U,1.0,True,0.459,0,False,left
12,12,0.5,0.1,2,0.2667,0.3167,0.8833,12,2.25,-0.42,-0.2167,0.2833,5,3D1U,1.0,True,0.516,0,False,left
13,13,0.5,0.1,1,0.3833,0.2167,0.6167,13,1.85,-0.74,-0.3667,0.1333,5,1D2U,2.0,True,0.2,0,False,right
14,14,0.5,0.1,1,0.3833,0.2167,0.5333,14,1.85,-0.58,-0.2833,0.2167,5,2D1U,2.0,True,0.283,0,False,right
15,15,0.5,0.1,1,0.3667,0.2167,0.6667,15,1.8001,-0.9,-0.45,0.05,5,1D3U,2.0,True,0.267,0,False,right
16,16,0.5,0.1,1,0.3833,0.2333,0.8667,16,2.0833,-0.8,-0.4,0.1,5,lapse_rate,2.0,True,0.232,0,False,right
17,17,0.5,0.1,1,0.3333,0.4167,0.45,17,2.0667,-0.26,-0.1333,0.3667,5,3D1U,2.0,True,0.259,0,False,right
18,18,0.5,0.1,1,0.3833,0.4333,0.4833,18,1.8499,-0.9,-0.45,0.05,5,1D3U,2.0,True,0.242,0,False,right
19,19,0.5,0.1,2,0.2833,0.4333,0.8667,19,2.9833,0.8,0.4,0.9,5,lapse_rate,2.0,True,0.274,0,False,right
20,20,0.5,0.1,2,0.3333,0.4333,0.7333,20,2.2832,-0.42,-0.2167,0.2833,5,2D1U,1.0,True,0.374,0,False,left
21,21,0.5,0.1,1,0.35,0.3833,0.65,21,2.0166,-0.74,-0.3667,0.1333,5,1D2U,2.0,True,0.241,0,False,right
22,22,0.5,0.1,1,0.4167,0.2833,0.6,22,1.85,-0.9,-0.45,0.05,5,1D3U,2.0,True,0.284,0,False,right
23,23,0.5,0.1,2,0.2667,0.3667,0.65,23,2.1501,-0.26,-0.1333,0.3667,5,2D1U,2.0,False,0.382,0,False,right
24,24,0.5,0.1,2,0.3333,0.2667,0.4833,24,2.0333,-0.1,-0.05,0.45,5,3D1U,2.0,False,0.333,0,False,right
25,25,0.5,0.1,2,0.3,0.3,0.7167,25,2.7167,0.8,0.4,0.9,5,lapse_rate,2.0,True,0.334,0,False,right
26,26,0.5,0.1,1,0.2333,0.45,0.8667,26,2.2667,-0.58,-0.2833,0.2167,5,1D2U,2.0,True,0.307,0,False,right
27,27,0.5,0.1,2,0.2667,0.35,0.5667,27,1.7834,-0.8,-0.4,0.1,5,lapse_rate,1.0,True,0.4,0,False,left
28,28,0.5,0.1,1,0.3667,0.3,0.45,28,1.8334,-0.58,-0.2833,0.2167,5,1D2U,2.0,True,0.334,0,False,right
29,29,0.5,0.1,1,0.3667,0.3667,0.5167,29,2.2001,-0.1,-0.05,0.45,5,3D1U,2.0,True,0.391,0,False,right
30,30,0.5,0.1,1,0.3667,0.4167,0.6333,30,2.2834,-0.26,-0.1333,0.3667,5,2D1U,2.0,True,0.383,0,False,right
31,31,0.5,0.1,1,0.4,0.25,0.6667,31,1.9,-0.82,-0.4167,0.0833,5,1D3U,2.0,True,0.278,1,True,right
32,32,0.5,0.1,2,0.3333,0.2333,0.4333,32,1.9499,-0.1,-0.05,0.45,5,2D1U,2.0,False,0.35,0,False,right
33,33,0.5,0.1,2,0.2333,0.45,0.4667,33,1.9333,-0.42,-0.2167,0.2833,5,1D2U,1.0,True,0.31,0,False,left
34,34,0.5,0.1,2,0.2333,0.3333,0.85,34,2.0166,-0.8,-0.4,0.1,5,lapse_rate,1.0,True,0.407,0,False,left
35,35,0.5,0.1,2,0.45,0.4333,0.7167,35,2.1833,-0.82,-0.4167,0.0833,5,1D3U,1.0,True,0.326,1,True,left
36,36,0.5,0.1,2,0.4333,0.2833,0.7833,36,2.5332,0.06,0.0333,0.5333,5,3D1U,2.0,True,0.308,0,False,right
37,37,0.5,0.1,1,0.3833,0.4333,0.7667,37,2.3666,-0.42,-0.2167,0.2833,5,1D2U,2.0,True,0.258,0,False,right
38,38,0.5,0.1,1,0.2833,0.2667,0.5333,38,1.6666,-0.82,-0.4167,0.0833,5,1D3U,2.0,True,0.301,1,True,right
39,39,0.5,0.1,2,0.2833,0.3167,0.7167,39,2.2667,-0.1,-0.05,0.45,5,2D1U,2.0,False,0.302,0,False,right
40,40,0.5,0.1,2,0.45,0.4167,0.5667,40,2.4667,0.06,0.0333,0.5333,5,3D1U,2.0,True,0.232,0,False,right
41,41,0.5,0.1,2,0.3,0.3667,0.4,41,1.6667,-0.8,-0.4,0.1,5,lapse_rate,1.0,True,0.391,0,False,left
42,42,0.5,0.1,2,0.35,0.3,0.8,42,2.4833,0.06,0.0333,0.5333,5,3D1U,2.0,True,0.282,0,False,right
43,43,0.5,0.1,2,0.2167,0.3,0.5833,43,1.7333,-0.74,-0.3667,0.1333,5,1D3U,1.0,True,0.375,1,False,left
44,44,0.5,0.1,1,0.2667,0.25,0.6167,44,2.5334,0.8,0.4,0.9,5,lapse_rate,1.0,True,0.292,0,False,left
45,45,0.5,0.1,2,0.25,0.3833,0.4667,45,2.0167,-0.18,-0.0833,0.4167,5,2D1U,1.0,True,0.399,1,True,left
46,46,0.5,0.1,1,0.25,0.45,0.5,46,2.0667,-0.26,-0.1333,0.3667,5,1D2U,2.0,True,0.292,0,False,right
47,47,0.5,0.1,2,0.2333,0.4,0.4833,47,2.0499,-0.14,-0.0667,0.4333,5,2D1U,1.0,True,0.375,2,True,left
48,48,0.5,0.1,2,0.35,0.3167,0.7333,48,2.0333,-0.74,-0.3667,0.1333,5,1D3U,1.0,True,0.449,1,False,left
49,49,0.5,0.1,1,0.2333,0.3167,0.8833,49,2.8333,0.8,0.4,0.9,5,lapse_rate,1.0,True,0.417,0,False,left
50,50,0.5,0.1,1,0.3167,0.3,0.6,50,2.2,-0.02,-0.0167,0.4833,5,3D1U,1.0,False,0.533,1,True,left
51,51,0.5,0.1,2,0.3333,0.2,0.5,51,1.9,-0.26,-0.1333,0.3667,5,1D2U,1.0,True,0.667,0,False,left
52,52,0.5,0.1,1,0.25,0.4167,0.8333,52,2.45,-0.1,-0.05,0.45,5,1D2U,2.0,True,0.3,0,False,right
53,53,0.5,0.1,1,0.2333,0.3167,0.6833,53,1.8666,-0.74,-0.3667,0.1333,5,1D3U,2.0,True,0.233,1,False,right
54,54,0.5,0.1,2,0.2167,0.2333,0.6833,54,2.0833,-0.1,-0.05,0.45,5,2D1U,2.0,False,0.357,2,False,right
55,55,0.5,0.1,1,0.3667,0.35,0.7667,55,2.4667,-0.02,-0.0167,0.4833,5,3D1U,2.0,True,0.317,1,True,right
56,56,0.5,0.1,1,0.4333,0.25,0.6,56,2.6833,0.8,0.4,0.9,5,lapse_rate,1.0,True,0.233,0,False,left
57,57,0.5,0.1,2,0.2667,0.4167,0.85,57,2.5501,0.02,0.0167,0.5167,5,3D1U,2.0,True,0.327,2,True,right
58,58,0.5,0.1,2,0.3167,0.2333,0.45,58,1.95,-0.1,-0.05,0.45,5,2D1U,2.0,False,0.41,2,False,right
59,59,0.5,0.1,2,0.2333,0.25,0.5333,59,1.6833,-0.66,-0.3333,0.1667,5,1D3U,1.0,True,0.435,1,False,left
60,60,0.5,0.1,1,0.2333,0.45,0.6167,60,1.9,-0.8,-0.4,0.1,5,lapse_rate,1.0,False,0.349,0,False,left
61,61,0.5,0.1,2,0.4,0.3,0.7667,61,2.4167,-0.1,-0.05,0.45,5,1D2U,2.0,False,0.342,0,False,right
62,62,0.5,0.1,1,0.4,0.2333,0.6,62,1.9,-0.66,-0.3333,0.1667,5,1D3U,2.0,True,0.375,1,False,right
63,63,0.5,0.1,1,0.35,0.4333,0.7333,63,2.4333,-0.18,-0.0833,0.4167,5,1D2U,2.0,True,0.31,1,True,right
64,64,0.5,0.1,2,0.2167,0.2833,0.75,64,1.85,-0.8,-0.4,0.1,5,lapse_rate,1.0,True,0.525,0,False,left
65,65,0.5,0.1,2,0.35,0.3,0.4833,65,2.0666,-0.14,-0.0667,0.4333,5,2D1U,1.0,True,0.433,3,True,left
66,66,0.5,0.1,1,0.4333,0.2167,0.7167,66,2.3834,0.02,0.0167,0.5167,5,3D1U,1.0,True,0.376,2,True,left
67,67,0.5,0.1,2,0.4333,0.3833,0.7167,67,2.55,0.02,0.0167,0.5167,5,3D1U,2.0,True,0.25,2,True,right
68,68,0.5,0.1,1,0.2833,0.2833,0.85,68,2.3333,-0.18,-0.0833,0.4167,5,1D2U,2.0,True,0.285,1,True,right
69,69,0.5,0.1,1,0.35,0.2167,0.6833,69,2.1833,-0.14,-0.0667,0.4333,5,1D2U,2.0,True,0.225,2,True,right
70,70,0.5,0.1,1,0.4333,0.4333,0.75,70,2.5666,-0.1,-0.05,0.45,5,2D1U,1.0,False,0.161,4,True,left
71,71,0.5,0.1,1,0.45,0.2667,0.5,71,1.8834,-0.66,-0.3333,0.1667,5,1D3U,2.0,True,0.183,1,False,right
72,72,0.5,0.1,1,0.25,0.2167,0.7333,72,1.9167,-0.58,-0.2833,0.2167,5,1D3U,2.0,True,0.25,1,False,right
73,73,0.5,0.1,2,0.3167,0.35,0.5167,73,2.1167,-0.14,-0.0667,0.4333,5,1D2U,2.0,False,0.257,2,True,right
74,74,0.5,0.1,2,0.2167,0.2833,0.45,74,1.8667,-0.18,-0.0833,0.4167,5,1D2U,2.0,False,0.3,3,True,right
75,75,0.5,0.1,1,0.3833,0.3167,0.7333,75,2.4166,-0.02,-0.0167,0.4833,5,3D1U,2.0,True,0.2,3,True,right
76,76,0.5,0.1,2,0.3333,0.25,0.9,76,2.4333,-0.1,-0.05,0.45,5,2D1U,2.0,False,0.249,4,True,right
77,77,0.5,0.1,2,0.4333,0.3167,0.8833,77,2.65,0.02,0.0167,0.5167,5,3D1U,2.0,True,0.162,4,True,right
78,78,0.5,0.1,1,0.3167,0.3667,0.8167,78,2.3834,-0.22,-0.1167,0.3833,5,1D2U,2.0,True,0.225,3,False,right
79,79,0.5,0.1,2,0.4333,0.3333,0.5,79,2.1999,-0.14,-0.0667,0.4333,5,2D1U,2.0,False,0.351,5,True,right
80,80,0.5,0.1,1,0.35,0.4167,0.6333,80,2.3333,-0.14,-0.0667,0.4333,5,2D1U,2.0,True,0.701,5,True,right
81,81,0.5,0.1,1,0.4333,0.35,0.5333,81,2.0333,-0.58,-0.2833,0.2167,5,1D3U,2.0,True,0.558,1,False,right
82,82,0.5,0.1,1,0.25,0.3333,0.4667,82,2.0,-0.1,-0.05,0.45,5,2D1U,2.0,True,0.349,6,True,right
83,83,0.5,0.1,1,0.3167,0.3167,0.55,83,2.0667,-0.22,-0.1167,0.3833,5,1D2U,1.0,False,0.657,3,False,left
84,84,0.5,0.1,2,0.4333,0.3667,0.5667,84,2.0834,-0.58,-0.2833,0.2167,5,1D3U,1.0,True,0.459,1,False,left
85,85,0.5,0.1,2,0.4167,0.2667,0.8167,85,2.2501,-0.5,-0.25,0.25,5,1D3U,1.0,True,0.415,1,False,left
86,86,0.5,0.1,2,0.4333,0.35,0.85,86,2.65,0.02,0.0167,0.5167,5,3D1U,2.0,True,0.707,4,True,right
87,87,0.5,0.1,2,0.4167,0.25,0.6167,87,2.2501,-0.06,-0.0333,0.4667,5,2D1U,1.0,True,0.442,6,False,left
88,88,0.5,0.1,2,0.3,0.35,0.4833,88,2.0,-0.26,-0.1333,0.3667,5,1D2U,1.0,True,0.408,3,False,left
89,89,0.5,0.1,1,0.4333,0.3167,0.5,89,2.2667,0.02,0.0167,0.5167,5,3D1U,1.0,True,0.343,4,True,left
90,90,0.5,0.1,1,0.2667,0.3667,0.4167,90,1.8001,-0.5,-0.25,0.25,5,1D3U,2.0,True,0.159,1,False,right
91,91,0.5,0.1,2,0.3167,0.3833,0.4667,91,1.9167,-0.5,-0.25,0.25,5,1D3U,1.0,True,0.35,1,False,left
92,92,0.5,0.1,1,0.3667,0.35,0.5833,92,2.1667,-0.26,-0.1333,0.3667,5,1D2U,2.0,True,0.277,3,False,right
93,93,0.5,0.1,1,0.2667,0.3,0.55,93,2.1,-0.02,-0.0167,0.4833,5,2D1U,2.0,True,0.242,6,False,right
94,94,0.5,0.1,2,0.2167,0.3833,0.7667,94,2.35,-0.02,-0.0167,0.4833,5,3D1U,2.0,False,0.25,5,True,right
95,95,0.5,0.1,2,0.4333,0.2833,0.8167,95,2.3166,-0.42,-0.2167,0.2833,5,1D3U,1.0,True,0.5,1,False,left
96,96,0.5,0.1,2,0.2167,0.3,0.55,96,1.95,-0.22,-0.1167,0.3833,5,1D2U,2.0,False,0.583,4,True,right
97,97,0.5,0.1,2,0.45,0.3667,0.8167,97,2.6167,-0.02,-0.0167,0.4833,5,3D1U,1.0,True,0.325,5,True,left
98,98,0.5,0.1,1,0.2667,0.4167,0.8667,98,2.5668,0.02,0.0167,0.5167,5,3D1U,2.0,False,0.275,6,True,right
99,99,0.5,0.1,2,0.2333,0.2333,0.7,99,2.0333,-0.26,-0.1333,0.3667,5,1D2U,1.0,True,0.477,5,True,left
100,100,0.5,0.1,1,0.4,0.2167,0.7667,100,2.4001,0.02,0.0167,0.5167,5,2D1U,1.0,True,0.366,6,False,left
101,101,0.5,0.1,2,0.3167,0.35,0.85,101,2.3,-0.42,-0.2167,0.2833,5,1D3U,1.0,True,0.459,1,False,left
102,102,0.5,0.1,2,0.3833,0.3333,0.8,102,2.2999,-0.42,-0.2167,0.2833,5,1D3U,2.0,False,0.324,1,False,right
103,103,0.5,0.1,1,0.2667,0.4167,0.6667,103,2.3834,0.06,0.0333,0.5333,5,3D1U,2.0,False,0.3,6,False,right
104,104,0.5,0.1,1,0.3667,0.3667,0.7667,104,2.3668,-0.26,-0.1333,0.3667,5,1D2U,2.0,True,0.232,5,True,right
105,105,0.5,0.1,1,0.2333,0.3667,0.7667,105,2.25,-0.22,-0.1167,0.3833,5,1D2U,2.0,True,0.351,6,True,right
106,106,0.5,0.1,2,0.2833,0.35,0.6167,106,2.2667,0.02,0.0167,0.5167,5,2D1U,2.0,True,0.415,6,False,right
107,107,0.5,0.1,1,0.2667,0.4333,0.6167,107,2.0834,-0.46,-0.2333,0.2667,5,1D3U,2.0,True,0.307,2,True,right
108,108,0.5,0.1,2,0.4167,0.4333,0.6,108,2.5,0.1,0.05,0.55,5,3D1U,2.0,True,0.583,6,False,right
109,109,0.5,0.1,1,0.3667,0.3833,0.5667,109,2.2,-0.22,-0.1167,0.3833,5,1D2U,2.0,True,0.3,6,True,right
110,110,0.5,0.1,2,0.4333,0.35,0.6667,110,2.3667,-0.18,-0.0833,0.4167,5,1D2U,2.0,False,0.558,6,False,right
111,111,0.5,0.1,2,0.3333,0.3167,0.55,111,2.1833,-0.02,-0.0167,0.4833,5,2D1U,2.0,False,0.308,7,True,right
112,112,0.5,0.1,2,0.3,0.3667,0.5333,112,1.9667,-0.46,-0.2333,0.2667,5,1D3U,1.0,True,0.341,2,True,left
113,113,0.5,0.1,1,0.45,0.3167,0.55,113,2.3,-0.02,-0.0167,0.4833,5,2D1U,1.0,False,0.833,7,True,left
114,114,0.5,0.1,2,0.3833,0.3,0.4333,114,2.1666,0.1,0.05,0.55,5,3D1U,2.0,True,0.36,6,False,right
115,115,0.5,0.1,2,0.2333,0.3333,0.5167,115,1.9666,-0.22,-0.1167,0.3833,5,1D2U,2.0,False,0.316,7,True,right
116,116,0.5,0.1,1,0.2167,0.45,0.4333,116,1.8667,-0.46,-0.2333,0.2667,5,1D3U,2.0,True,0.434,2,True,right
117,117,0.5,0.1,1,0.2833,0.4167,0.9,117,2.5667,-0.06,-0.0333,0.4667,5,2D1U,2.0,True,0.225,7,False,right
118,118,0.5,0.1,1,0.3167,0.3333,0.5667,118,2.0834,-0.26,-0.1333,0.3667,5,1D2U,2.0,True,0.408,7,False,right
119,119,0.5,0.1,1,0.3167,0.25,0.7833,119,2.4,0.1,0.05,0.55,5,3D1U,2.0,False,0.333,6,False,right
120,120,0.5,0.1,2,0.3167,0.3667,0.7167,120,2.1834,-0.42,-0.2167,0.2833,5,1D3U,1.0,True,0.491,3,True,left
121,121,0.5,0.1,1,0.25,0.3167,0.5,121,1.85,-0.42,-0.2167,0.2833,5,1D3U,2.0,True,0.326,3,True,right
122,122,0.5,0.1,1,0.2667,0.2333,0.7833,122,2.35,0.14,0.0667,0.5667,5,3D1U,2.0,False,0.341,6,False,right
123,123,0.5,0.1,1,0.4,0.3167,0.6333,123,2.1333,-0.42,-0.2167,0.2833,5,1D3U,2.0,True,0.366,3,True,right
124,124,0.5,0.1,2,0.4333,0.4167,0.4333,124,2.2666,-0.02,-0.0167,0.4833,5,2D1U,1.0,True,0.325,8,True,left
125,125,0.5,0.1,2,0.2,0.25,0.7,125,2.1667,0.02,0.0167,0.5167,5,2D1U,2.0,True,0.334,8,False,right
126,126,0.5,0.1,2,0.2667,0.2167,0.8167,126,2.1668,-0.26,-0.1333,0.3667,5,1D2U,1.0,True,0.5,7,False,left
127,127,0.5,0.1,1,0.2167,0.4167,0.45,127,2.1667,0.18,0.0833,0.5833,5,3D1U,2.0,False,0.24,6,False,right
128,128,0.5,0.1,2,0.3667,0.25,0.4333,128,1.8667,-0.38,-0.1833,0.3167,5,1D3U,1.0,True,0.583,3,False,left
129,129,0.5,0.1,1,0.3833,0.3833,0.7333,129,2.3166,-0.38,-0.1833,0.3167,5,1D3U,2.0,True,0.208,3,False,right
130,130,0.5,0.1,1,0.25,0.3167,0.6667,130,2.2501,0.02,0.0167,0.5167,5,2D1U,1.0,True,0.442,8,False,left
131,131,0.5,0.1,1,0.4,0.3167,0.5167,131,2.1167,-0.22,-0.1167,0.3833,5,1D2U,2.0,True,0.424,8,True,right
132,132,0.5,0.1,1,0.25,0.25,0.45,132,1.7667,-0.38,-0.1833,0.3167,5,1D3U,2.0,True,0.491,3,False,right
133,133,0.5,0.1,2,0.3833,0.35,0.4333,133,2.2833,0.22,0.1167,0.6167,5,3D1U,2.0,True,0.217,6,False,right
134,134,0.5,0.1,1,0.4,0.3167,0.8667,134,2.5667,-0.02,-0.0167,0.4833,5,2D1U,2.0,True,0.417,9,True,right
135,135,0.5,0.1,1,0.45,0.3667,0.7333,135,2.4333,-0.22,-0.1167,0.3833,5,1D2U,2.0,True,0.308,8,True,right
136,136,0.5,0.1,2,0.3,0.35,0.4833,136,1.9666,-0.34,-0.1667,0.3333,5,1D3U,1.0,True,0.358,3,False,left
137,137,0.5,0.1,2,0.4,0.2167,0.6167,137,2.2501,0.02,0.0167,0.5167,5,2D1U,2.0,True,0.292,10,True,right
138,138,0.5,0.1,2,0.25,0.3333,0.4167,138,2.1167,0.22,0.1167,0.6167,5,3D1U,1.0,False,0.299,6,False,left
139,139,0.5,0.1,1,0.3833,0.3,0.5667,139,2.1667,-0.18,-0.0833,0.4167,5,1D2U,2.0,True,0.251,8,False,right
140,140,0.5,0.1,2,0.2667,0.4167,0.4167,140,2.0168,-0.18,-0.0833,0.4167,5,1D2U,2.0,False,0.2,8,False,right
141,141,0.5,0.1,1,0.3333,0.3667,0.8667,141,2.4,-0.34,-0.1667,0.3333,5,1D3U,2.0,True,0.309,3,False,right
142,142,0.5,0.1,1,0.2667,0.2667,0.6833,142,2.35,0.26,0.1333,0.6333,5,3D1U,2.0,False,0.366,6,False,right
143,143,0.5,0.1,1,0.3833,0.25,0.7,143,2.35,0.02,0.0167,0.5167,5,2D1U,2.0,False,0.275,10,True,right
144,144,0.5,0.1,1,0.3,0.2,0.7667,144,2.15,-0.22,-0.1167,0.3833,5,1D2U,2.0,True,0.402,9,True,right
145,145,0.5,0.1,1,0.4333,0.3,0.45,145,2.0166,-0.34,-0.1667,0.3333,5,1D3U,1.0,False,0.341,3,False,left
146,146,0.5,0.1,2,0.3833,0.35,0.75,146,2.6333,0.3,0.15,0.65,5,3D1U,2.0,True,0.258,6,False,right
147,147,0.5,0.1,1,0.3667,0.3833,0.6833,147,2.4666,0.06,0.0333,0.5333,5,2D1U,2.0,False,0.392,10,False,right
148,148,0.5,0.1,1,0.2333,0.2,0.8,148,2.2833,0.1,0.05,0.55,5,2D1U,2.0,False,0.374,10,False,right
149,149,0.5,0.1,1,0.2167,0.3,0.6167,149,2.2834,0.3,0.15,0.65,5,3D1U,1.0,True,0.334,6,False,left
150,150,0.5,0.1,2,0.2167,0.4333,0.4667,150,2.2667,0.3,0.15,0.65,5,3D1U,2.0,True,0.216,6,False,right
151,151,0.5,0.1,1,0.3167,0.3,0.8333,151,2.5167,0.14,0.0667,0.5667,5,2D1U,2.0,False,0.265,10,False,right
152,152,0.5,0.1,1,0.2667,0.3,0.5167,152,2.1667,0.18,0.0833,0.5833,5,2D1U,1.0,True,0.4,10,False,left
153,153,0.5,0.1,1,0.3833,0.2333,0.65,153,2.3999,0.26,0.1333,0.6333,5,3D1U,2.0,False,0.516,7,True,right
