Unnamed: 0,standardDur,audNoise,order,preDur,postDur,isiDur,trial_num,totalDur,delta_dur_percents,deltaDurS,testDurS,intensities,current_stair,responses,is_correct,response_rts,stair_num_reversal,stair_is_reversal,response_keys,conflictDur,recordedOnsetVisualTest,recordedOffsetVisualTest,recordedDurVisualTest,recordedOnsetVisualStandard,recordedOffsetVisualStandard,recordedDurVisualStandard,modalityCue,VisualPSE
0,0.49979,1.2,1,0.22491,0.36652,0.74136,0,1.88256,-0.9,-0.44982,0.04998,5,2D1U,2.0,True,0.592,0,False,right,0.1666,0.2128,0.2884,0.0756,0.9375,1.6306,0.6932,A,0.025
1,0.49979,0.1,1,0.43316,0.36652,0.88297,1,3.13205,0.9,0.44982,0.94961,5,lapse_rate,1.0,True,0.521,0,False,left,-0.0833,0.3766,1.4516,1.0749,2.3184,2.8599,0.5416,A,0.125
2,0.49979,1.2,2,0.26656,0.35819,0.49979,2,1.67431,-0.9,-0.44982,0.04998,5,1D2U,1.0,True,0.562,0,False,left,0.1666,1.3597,1.426,0.0662,0.176,0.867,0.691,A,0.025
3,0.49979,0.1,2,0.25823,0.2499,0.74136,3,1.88256,-0.74,-0.36652,0.13328,5,2D1U,1.0,True,0.498,0,False,left,-0.0833,1.4682,1.6686,0.2004,0.2429,0.7853,0.5424,A,0.125
4,0.49979,0.1,2,0.27489,0.24157,0.56643,4,1.63266,-0.9,-0.44982,0.04998,5,lapse_rate,1.0,True,0.533,0,False,left,0.1666,1.4344,1.5513,0.1169,0.1348,0.926,0.7912,A,0.125
5,0.49979,0.1,1,0.39984,0.39984,0.67472,5,2.02417,-0.9,-0.44982,0.04998,5,1D2U,2.0,True,0.354,0,False,right,-0.0833,0.3403,0.5146,0.1742,1.1735,1.7147,0.5412,A,0.125
6,0.49979,0.1,1,0.31654,0.38318,0.6414,6,2.79052,0.9,0.44982,0.94961,5,lapse_rate,1.0,True,0.483,0,False,left,0.1666,0.2559,1.3317,1.0758,1.8315,2.6234,0.7919,A,0.125
7,0.49979,1.2,1,0.4165,0.20825,0.69971,7,2.0325,-0.58,-0.29155,0.20825,5,2D1U,2.0,True,0.759,0,False,right,-0.0833,0.4089,0.6414,0.2325,1.3751,1.8169,0.4418,A,0.025
8,0.49979,0.1,1,0.39151,0.31654,0.78301,8,2.94046,0.9,0.44982,0.94961,5,lapse_rate,1.0,True,0.425,0,False,left,0.1666,0.3315,1.4065,1.075,2.0489,2.8408,0.7919,A,0.125
9,0.49979,1.2,2,0.25823,0.34986,0.57476,9,1.81592,-0.74,-0.36652,0.13328,5,1D2U,1.0,True,0.471,0,False,left,-0.0833,1.2973,1.447,0.1498,0.29,0.731,0.4411,A,0.025
10,0.49979,0.1,1,0.40817,0.24157,0.51645,10,1.95753,-0.42,-0.20825,0.29155,5,2D1U,2.0,True,0.476,0,False,right,0.1666,0.3473,0.7638,0.4165,1.1387,1.9305,0.7918,A,0.125
11,0.49979,1.2,2,0.34153,0.44149,0.82466,11,2.15745,-0.9,-0.44982,0.04998,5,lapse_rate,1.0,True,0.702,0,False,left,-0.0833,1.6317,1.6985,0.0668,0.3735,0.815,0.4414,A,0.025
12,0.49979,0.1,2,0.30821,0.44149,0.44982,12,1.83259,-0.74,-0.36652,0.13328,5,1D2U,1.0,True,0.439,0,False,left,0.1666,1.3473,1.5473,0.2,0.1629,0.9548,0.7918,A,0.125
13,0.49979,1.2,1,0.2499,0.30821,0.50812,13,1.93254,-0.26,-0.13328,0.36652,5,2D1U,1.0,False,1.413,0,False,left,-0.0833,0.2389,0.6312,0.3923,1.1721,1.6133,0.4412,A,0.025
14,0.49979,1.2,1,0.24157,0.30821,0.54977,14,1.64932,-0.9,-0.44982,0.04998,5,lapse_rate,2.0,True,0.425,0,False,right,0.1666,0.2314,0.3059,0.0744,0.7649,1.4564,0.6915,A,0.025
15,0.49979,1.2,1,0.23324,0.38318,0.43316,15,1.75762,-0.58,-0.29155,0.20825,5,1D2U,2.0,True,2.048,0,False,right,-0.0833,0.2236,0.4558,0.2321,0.9222,1.3647,0.4426,A,0.025
16,0.49979,0.1,1,0.43316,0.26656,0.56643,16,2.13246,-0.26,-0.13328,0.36652,5,2D1U,2.0,True,1.516,0,False,right,0.1666,0.3772,0.8696,0.4924,1.2937,2.0852,0.7916,A,0.125
17,0.49979,0.1,2,0.36652,0.28322,0.74136,17,2.34071,-0.1,-0.04998,0.44982,5,2D1U,1.0,True,0.432,0,False,left,-0.0833,1.5738,2.0902,0.5164,0.3481,0.89,0.5419,A,0.125
18,0.49979,0.1,1,0.2499,0.39151,0.79134,18,1.98252,-0.9,-0.44982,0.04998,5,lapse_rate,2.0,True,0.407,0,False,right,0.1666,0.1876,0.3628,0.1751,1.0134,1.8048,0.7914,A,0.125
19,0.49979,1.2,2,0.37485,0.4165,0.61641,19,2.1158,-0.58,-0.29155,0.20825,5,1D2U,1.0,True,0.658,0,False,left,-0.0833,1.4539,1.6783,0.2244,0.4038,0.8454,0.4416,A,0.025
20,0.49979,1.2,1,0.23324,0.29988,0.83299,20,2.39901,0.06,0.03332,0.53311,5,2D1U,1.0,True,1.038,0,False,left,0.1666,0.2216,0.7798,0.5582,1.5208,2.2129,0.6922,A,0.025
21,0.49979,0.1,2,0.20825,0.27489,0.6414,21,1.91588,-0.42,-0.20825,0.29155,5,1D2U,1.0,True,0.38,0,False,left,-0.0833,1.3127,1.6706,0.3579,0.1871,0.7292,0.5421,A,0.125
22,0.49979,1.2,1,0.2499,0.22491,0.77468,22,2.69889,0.9,0.44982,0.94961,5,lapse_rate,1.0,True,0.423,0,False,left,0.1666,0.2378,1.2127,0.9748,1.8952,2.5874,0.6923,A,0.025
23,0.49979,0.1,2,0.22491,0.25823,0.68305,23,1.95753,-0.42,-0.20825,0.29155,5,1D2U,1.0,True,0.415,0,False,left,-0.0833,1.3765,1.7342,0.3576,0.2096,0.7506,0.5411,A,0.125
24,0.49979,1.2,1,0.19992,0.42483,0.4165,24,2.07415,0.06,0.03332,0.53311,5,2D1U,1.0,True,0.486,0,False,left,0.1666,0.1868,0.7453,0.5586,1.0701,1.7621,0.692,A,0.025
25,0.49979,0.1,2,0.29155,0.44149,0.88297,25,3.06541,0.9,0.44982,0.94961,5,lapse_rate,1.0,False,1.23,0,False,left,-0.0833,1.6443,2.6613,1.0169,0.2776,0.8193,0.5417,A,0.125
26,0.49979,0.1,1,0.32487,0.34153,0.5581,26,1.77427,-0.9,-0.44982,0.04998,5,lapse_rate,2.0,True,0.478,0,False,right,0.1666,0.2674,0.4429,0.1755,0.8592,1.651,0.7918,A,0.125
27,0.49979,1.2,1,0.35819,0.43316,0.51645,27,2.29905,-0.02,-0.00833,0.49146,5,2D1U,1.0,False,0.348,1,True,left,-0.0833,0.3452,0.8613,0.5161,1.4117,1.8539,0.4422,A,0.025
28,0.49979,0.1,2,0.30821,0.38318,0.65806,28,2.21576,-0.26,-0.13328,0.36652,5,1D2U,1.0,True,0.518,0,False,left,0.1666,1.556,1.9884,0.4324,0.1638,0.9561,0.7923,A,0.125
29,0.49979,0.1,2,0.34153,0.21658,0.44149,29,1.99085,-0.02,-0.00833,0.49146,5,2D1U,1.0,True,0.466,1,True,left,-0.0833,1.2513,1.8093,0.558,0.3264,0.8678,0.5414,A,0.125
30,0.49979,0.1,1,0.31654,0.19992,0.84965,30,2.81551,0.9,0.44982,0.94961,5,lapse_rate,1.0,True,0.365,0,False,left,0.1666,0.2613,1.3362,1.0749,2.0444,999.0,996.9556,A,0.125
31,0.49979,1.2,1,0.35819,0.44982,0.75802,31,2.43234,-0.26,-0.13328,0.36652,5,1D2U,1.0,False,1.563,0,False,left,-0.0833,0.3524,0.7436,0.3912,1.5354,1.9772,0.4419,A,0.025
32,0.49979,1.2,1,0.29155,0.39151,0.6414,32,2.33237,0.02,0.00833,0.50812,5,2D1U,1.0,True,0.397,2,True,left,0.1666,0.2827,0.8154,0.5327,1.3655,2.0581,0.6926,A,0.025
33,0.49979,0.1,1,0.34986,0.3332,0.59975,33,1.83258,-0.9,-0.44982,0.04998,5,lapse_rate,2.0,True,0.444,0,False,right,-0.0833,0.2877,0.4628,0.1751,1.0461,1.5877,0.5416,A,0.125
34,0.49979,0.1,1,0.24157,0.20825,0.73303,34,2.01584,-0.34,-0.1666,0.3332,5,1D2U,1.0,False,2.074,1,True,left,0.1666,0.1874,0.6458,0.4584,1.237,2.0284,0.7914,A,0.125
35,0.49979,0.1,2,0.44149,0.32487,0.45815,35,2.01585,-0.42,-0.20825,0.29155,5,1D2U,1.0,True,0.409,1,False,left,-0.0833,1.3639,1.7243,0.3605,0.4223,0.9637,0.5414,A,0.125
36,0.49979,1.2,2,0.35819,0.22491,0.51645,36,2.10746,0.02,0.00833,0.50812,5,2D1U,1.0,False,0.421,2,True,left,0.1666,1.4685,1.9939,0.5254,0.2697,0.9606,0.6909,A,0.025
37,0.49979,0.1,2,0.4165,0.34153,0.79134,37,2.09914,-0.9,-0.44982,0.04998,5,lapse_rate,1.0,True,0.416,0,False,left,-0.0833,1.6704,1.7891,0.1187,0.3956,0.9376,0.542,A,0.125
38,0.49979,1.2,2,0.28322,0.28322,0.74969,38,2.34903,0.06,0.03332,0.53311,5,2D1U,1.0,False,0.403,2,False,left,0.1666,1.6272,2.1776,0.5504,0.1942,0.886,0.6918,A,0.025
39,0.49979,0.1,1,0.42483,0.40817,0.70804,39,2.33238,-0.42,-0.20825,0.29155,5,1D2U,2.0,True,0.417,1,False,right,-0.0833,0.3636,0.7796,0.416,1.4717,2.0131,0.5413,A,0.125
40,0.49979,1.2,1,0.25823,0.20825,0.63307,40,2.54895,0.9,0.44982,0.94961,5,lapse_rate,1.0,True,0.442,0,False,left,0.1666,0.2482,1.2237,0.9755,1.7661,2.457,0.6909,A,0.025
41,0.49979,1.2,1,0.29988,0.44982,0.46647,41,2.66557,0.9,0.44982,0.94961,5,lapse_rate,1.0,True,0.424,0,False,left,-0.0833,0.2878,1.263,0.9752,1.7632,2.2043,0.4411,A,0.025
42,0.49979,0.1,1,0.37485,0.39151,0.84132,42,2.65724,0.1,0.04998,0.54977,5,2D1U,1.0,True,0.465,2,False,left,0.1666,0.3192,0.9942,0.675,1.6935,2.4852,0.7916,A,0.125
43,0.49979,1.2,2,0.25823,0.26656,0.62474,43,1.95753,-0.38,-0.19159,0.30821,5,1D2U,1.0,True,0.466,2,True,left,-0.0833,1.3473,1.6726,0.3253,0.2895,0.7312,0.4418,A,0.025
44,0.49979,1.2,1,0.3332,0.23324,0.56643,44,2.18243,0.1,0.04998,0.54977,5,2D1U,1.0,True,0.542,2,False,left,0.1666,0.3236,0.8981,0.5745,1.3731,2.065,0.6919,A,0.025
45,0.49979,0.1,2,0.35819,0.42483,0.64973,45,2.24075,-0.38,-0.19159,0.30821,5,1D2U,1.0,True,0.408,2,True,left,-0.0833,1.4719,1.8464,0.3745,0.3391,0.8804,0.5412,A,0.125
46,0.49979,0.1,1,0.34153,0.22491,0.67472,46,2.69056,0.9,0.44982,0.94961,5,lapse_rate,1.0,True,0.467,0,False,left,0.1666,0.2834,1.3587,1.0753,1.8916,2.6838,0.7922,A,0.125
47,0.49979,0.1,2,0.23324,0.44149,0.52478,47,2.64891,0.9,0.44982,0.94961,5,lapse_rate,2.0,True,1.833,0,False,right,-0.0833,1.2276,2.2451,1.0175,0.2196,0.7612,0.5416,A,0.125
48,0.49979,0.1,2,0.34153,0.24157,0.79967,48,2.21576,-0.34,-0.1666,0.3332,5,1D2U,1.0,True,0.385,2,False,left,0.1666,1.7294,2.1301,0.4007,0.1964,0.9875,0.7911,A,0.125
49,0.49979,1.2,1,0.26656,0.39151,0.59975,49,2.29072,0.06,0.03332,0.53311,5,2D1U,1.0,True,0.451,3,True,left,-0.0833,0.2562,0.8147,0.5585,1.4472,1.8898,0.4426,A,0.025
50,0.49979,1.2,1,0.27489,0.35819,0.59975,50,2.68223,0.9,0.44982,0.94961,5,lapse_rate,1.0,True,0.405,0,False,left,0.1666,0.2669,1.2418,0.9749,1.7502,2.4416,0.6914,A,0.025
51,0.49979,1.2,2,0.30821,0.35819,0.69138,51,2.19077,-0.34,-0.1666,0.3332,5,1D2U,1.0,True,0.425,2,False,left,-0.0833,1.4684,1.8185,0.3501,0.3442,0.7852,0.441,A,0.025
52,0.49979,0.1,2,0.29155,0.2499,0.45815,52,2.0325,0.06,0.03332,0.53311,5,2D1U,1.0,False,0.391,3,True,left,0.1666,1.3393,1.9399,0.6006,0.1472,0.9397,0.7925,A,0.125
53,0.49979,1.2,2,0.4165,0.22491,0.59975,53,1.79093,-0.9,-0.44982,0.04998,5,lapse_rate,1.0,True,0.426,0,False,left,-0.0833,1.4812,1.5474,0.0661,0.4473,0.8887,0.4414,A,0.025
54,0.49979,0.1,2,0.35819,0.31654,0.74136,54,2.26574,-0.3,-0.14994,0.34986,5,1D2U,1.0,True,0.441,2,False,left,0.1666,1.6932,2.1105,0.4172,0.2183,1.0104,0.7921,A,0.125
55,0.49979,1.2,2,0.25823,0.4165,0.87464,55,2.59893,0.1,0.04998,0.54977,5,2D1U,1.0,False,4.271,4,True,left,-0.0833,1.6009,2.1679,0.567,0.2927,0.7342,0.4415,A,0.025
56,0.49979,1.2,1,0.24157,0.27489,0.46647,56,1.5327,-0.9,-0.44982,0.04998,5,lapse_rate,2.0,True,0.641,0,False,right,0.1666,0.23,0.3045,0.0745,0.6801,1.372,0.6918,A,0.025
57,0.49979,1.2,1,0.34153,0.42483,0.808,57,2.64058,0.14,0.06664,0.56643,5,2D1U,1.0,True,0.601,4,False,left,-0.0833,0.3341,0.9268,0.5927,1.7674,2.2093,0.4419,A,0.025
58,0.49979,0.1,1,0.21658,0.32487,0.48313,58,1.87423,-0.3,-0.14994,0.34986,5,1D2U,2.0,True,0.476,2,False,right,0.1666,0.1562,0.6323,0.4761,0.973,1.7648,0.7918,A,0.125
59,0.49979,0.1,2,0.24157,0.43316,0.44149,59,1.98253,-0.26,-0.13328,0.36652,5,1D2U,1.0,True,1.223,2,False,left,-0.0833,1.1513,1.5845,0.4331,0.2265,0.7681,0.5416,A,0.125
60,0.49979,1.2,1,0.44149,0.43316,0.43316,60,2.37403,0.14,0.06664,0.56643,5,2D1U,1.0,True,0.306,4,False,left,0.1666,0.433,1.0242,0.5913,1.3664,2.0573,0.6909,A,0.025
61,0.49979,0.1,2,0.42483,0.19992,0.65806,61,2.73221,0.9,0.44982,0.94961,5,lapse_rate,2.0,True,0.333,0,False,right,-0.0833,1.5474,2.5636,1.0161,0.4053,0.9474,0.5421,A,0.125
62,0.49979,1.2,2,0.40817,0.22491,0.63307,62,2.13246,-0.26,-0.13328,0.36652,5,1D2U,1.0,True,0.536,2,False,left,0.1666,1.6287,2.012,0.3834,0.3128,1.0042,0.6914,A,0.025
63,0.49979,0.1,1,0.44982,0.30821,0.84132,63,2.64891,0.1,0.04998,0.54977,5,2D1U,1.0,True,2.326,5,True,left,-0.0833,0.3949,1.0699,0.6751,1.8949,2.4368,0.5419,A,0.125
64,0.49979,0.1,2,0.32487,0.28322,0.66639,64,1.82425,-0.9,-0.44982,0.04998,5,lapse_rate,1.0,True,0.409,0,False,left,0.1666,1.5798,1.6961,0.1163,0.18,0.9711,0.7911,A,0.125
65,0.49979,1.2,1,0.44149,0.30821,0.71637,65,2.01584,-0.9,-0.44982,0.04998,5,lapse_rate,2.0,True,0.349,0,False,right,-0.0833,0.4325,0.5083,0.0758,1.2576,1.6998,0.4422,A,0.025
66,0.49979,0.1,2,0.28322,0.23324,0.68305,66,2.09081,-0.22,-0.10829,0.39151,5,1D2U,1.0,True,2.084,2,False,left,0.1666,1.5555,2.0143,0.4588,0.1381,0.9309,0.7928,A,0.125
67,0.49979,1.2,1,0.32487,0.2499,0.56643,67,2.19076,0.1,0.04998,0.54977,5,2D1U,1.0,True,5.592,5,True,left,-0.0833,0.3161,0.8906,0.5745,1.4912,1.9336,0.4423,A,0.025
68,0.49979,1.2,2,0.38318,0.20825,0.73303,68,2.21576,-0.22,-0.10829,0.39151,5,1D2U,1.0,True,0.535,2,False,left,0.1666,1.7107,2.1188,0.4081,0.2934,0.9857,0.6922,A,0.025
69,0.49979,0.1,2,0.36652,0.44149,0.67472,69,2.51563,0.06,0.03332,0.53311,5,2D1U,1.0,False,3.542,5,False,left,-0.0833,1.511,2.1119,0.6009,0.3535,0.8942,0.5407,A,0.125
70,0.49979,0.1,2,0.28322,0.29155,0.74969,70,1.87423,-0.9,-0.44982,0.04998,5,lapse_rate,1.0,True,0.511,0,False,left,0.1666,1.6228,1.7395,0.1167,0.1394,0.9311,0.7917,A,0.125
71,0.49979,0.1,1,0.44149,0.29155,0.73303,71,2.37403,-0.18,-0.09163,0.40817,5,1D2U,1.0,False,7.235,2,False,left,-0.0833,0.3842,0.9176,0.5334,1.6346,2.1757,0.5411,A,0.125
72,0.49979,1.2,2,0.30821,0.34986,0.71637,72,2.82384,0.9,0.44982,0.94961,5,lapse_rate,2.0,True,0.446,0,False,right,0.1666,1.619,2.5863,0.9673,0.2194,0.9116,0.6921,A,0.025
73,0.49979,1.2,1,0.34153,0.43316,0.50812,73,2.33237,0.1,0.04998,0.54977,5,2D1U,2.0,False,1.241,6,True,right,-0.0833,0.3317,0.9066,0.5749,1.4485,1.89,0.4415,A,0.025
74,0.49979,1.2,1,0.29988,0.37485,0.73303,74,2.29906,-0.22,-0.10829,0.39151,5,1D2U,2.0,True,0.35,3,True,right,0.1666,0.2889,0.7061,0.4172,1.3476,2.0391,0.6915,A,0.025
75,0.49979,1.2,2,0.34153,0.39151,0.6414,75,1.92421,-0.9,-0.44982,0.04998,5,lapse_rate,1.0,True,0.563,0,False,left,-0.0833,1.4481,1.5151,0.0669,0.3729,0.8145,0.4415,A,0.025
76,0.49979,0.1,2,0.20825,0.36652,0.67472,76,2.31571,0.14,0.06664,0.56643,5,2D1U,1.0,False,2.553,6,False,left,0.1666,1.4757,2.1088,0.6331,0.0681,0.859,0.7909,A,0.125
77,0.49979,0.1,2,0.39984,0.26656,0.60808,77,2.36569,0.18,0.09163,0.59142,5,2D1U,2.0,True,1.77,6,False,right,-0.0833,1.475,2.1329,0.6579,0.3837,0.9243,0.5406,A,0.125
78,0.49979,1.2,2,0.29155,0.21658,0.63307,78,2.0325,-0.22,-0.10829,0.39151,5,1D2U,1.0,True,0.676,3,True,left,0.1666,1.5159,1.9239,0.408,0.1993,0.8903,0.691,A,0.025
79,0.49979,1.2,2,0.31654,0.25823,0.75802,79,1.88256,-0.9,-0.44982,0.04998,5,lapse_rate,1.0,True,0.487,0,False,left,-0.0833,1.5392,1.6057,0.0665,0.3466,0.7889,0.4423,A,0.025
80,0.49979,1.2,2,0.36652,0.2499,0.4748,80,2.18243,0.18,0.09163,0.59142,5,2D1U,1.0,False,0.447,6,False,left,0.1666,1.4346,2.0427,0.6081,0.2765,0.9688,0.6924,A,0.025
81,0.49979,0.1,1,0.26656,0.34986,0.84965,81,2.37403,-0.18,-0.09163,0.40817,5,1D2U,1.0,False,3.04,4,True,left,-0.0833,0.2081,0.7403,0.5322,1.5749,2.1164,0.5415,A,0.125
82,0.49979,1.2,1,0.21658,0.23324,0.88297,82,2.78219,0.9,0.44982,0.94961,5,lapse_rate,1.0,True,0.424,0,False,left,0.1666,0.211,1.1863,0.9753,1.9774,2.6694,0.692,A,0.025
83,0.49979,0.1,1,0.44149,0.25823,0.59142,83,2.39901,0.22,0.10829,0.60808,5,2D1U,1.0,True,0.418,6,False,left,-0.0833,0.3854,1.1179,0.7325,1.6931,2.2352,0.5421,A,0.125
84,0.49979,0.1,1,0.24157,0.27489,0.74136,84,2.70722,0.9,0.44982,0.94961,5,lapse_rate,1.0,True,0.394,0,False,left,0.1666,0.1824,1.2579,1.0755,1.857,2.6493,0.7923,A,0.125
85,0.49979,1.2,2,0.19992,0.19992,0.46647,85,1.75761,-0.22,-0.10829,0.39151,5,1D2U,1.0,True,1.689,5,True,left,-0.0833,1.1294,1.5379,0.4086,0.2298,0.6714,0.4417,A,0.025
86,0.49979,1.2,2,0.34153,0.39984,0.64973,86,2.49897,0.22,0.10829,0.60808,5,2D1U,1.0,False,0.495,6,False,left,0.1666,1.5863,2.2117,0.6254,0.2538,0.945,0.6912,A,0.025
87,0.49979,0.1,1,0.43316,0.30821,0.66639,87,2.85716,0.9,0.44982,0.94961,5,lapse_rate,1.0,True,0.617,0,False,left,-0.0833,0.372,1.4468,1.0748,2.0973,2.639,0.5417,A,0.125
88,0.49979,0.1,2,0.32487,0.22491,0.50812,88,1.9492,-0.22,-0.10829,0.39151,5,1D2U,1.0,True,0.416,5,True,left,0.1666,1.4256,1.8844,0.4588,0.1842,0.9765,0.7923,A,0.125
89,0.49979,0.1,1,0.3332,0.2499,0.59975,89,2.09081,-0.18,-0.09163,0.40817,5,1D2U,1.0,False,0.534,6,True,left,-0.0833,0.273,0.8063,0.5333,1.3896,1.9313,0.5417,A,0.125
90,0.49979,0.1,1,0.36652,0.22491,0.86631,90,2.00751,-0.9,-0.44982,0.04998,5,lapse_rate,2.0,True,0.43,0,False,right,0.1666,0.3105,0.4836,0.173,1.2094,2.0006,0.7913,A,0.125
91,0.49979,1.2,2,0.37485,0.39151,0.67472,91,2.57394,0.26,0.13328,0.63307,5,2D1U,2.0,True,1.009,6,False,right,-0.0833,1.5188,2.169,0.6503,0.4102,0.8532,0.443,A,0.025
92,0.49979,1.2,1,0.31654,0.29155,0.5581,92,2.61559,0.9,0.44982,0.94961,5,lapse_rate,1.0,True,0.483,0,False,left,0.1666,0.3055,1.2807,0.9752,1.7462,2.4384,0.6922,A,0.025
93,0.49979,1.2,2,0.44982,0.42483,0.46647,93,2.23242,-0.22,-0.10829,0.39151,5,1D2U,1.0,True,0.399,7,True,left,-0.0833,1.3812,1.7887,0.4075,0.4811,0.9221,0.441,A,0.025
94,0.49979,0.1,1,0.43316,0.39151,0.82466,94,2.78219,0.26,0.13328,0.63307,5,2D1U,1.0,True,0.375,6,False,left,0.1666,0.371,1.1289,0.7579,1.8126,2.6045,0.7919,A,0.125
95,0.49979,0.1,2,0.28322,0.20825,0.68305,95,1.72429,-0.9,-0.44982,0.04998,5,lapse_rate,1.0,True,0.493,0,False,left,-0.0833,1.4311,1.5473,0.1163,0.2645,0.8065,0.5419,A,0.125
96,0.49979,0.1,2,0.29155,0.26656,0.59975,96,2.26573,0.22,0.10829,0.60808,5,2D1U,1.0,False,0.677,7,True,left,0.1666,1.4801,2.1544,0.6744,0.1465,0.9381,0.7916,A,0.125
97,0.49979,1.2,2,0.30821,0.39151,0.87464,97,2.46566,-0.22,-0.10829,0.39151,5,1D2U,1.0,True,0.433,7,True,left,-0.0833,1.6468,2.0549,0.4081,0.3383,0.7799,0.4417,A,0.025
98,0.49979,1.2,1,0.43316,0.31654,0.87464,98,2.17411,-0.9,-0.44982,0.04998,5,lapse_rate,2.0,True,0.286,0,False,right,0.1666,0.4229,0.4979,0.075,1.2808,1.9727,0.692,A,0.025
99,0.49979,1.2,2,0.34153,0.32487,0.46647,99,2.26573,0.26,0.13328,0.63307,5,2D1U,1.0,False,0.53,8,True,left,-0.0833,1.2765,1.9266,0.65,0.3766,0.8185,0.4419,A,0.025
100,0.49979,0.1,1,0.43316,0.43316,0.61641,100,2.39069,-0.18,-0.09163,0.40817,5,1D2U,1.0,False,0.516,8,True,left,0.1666,0.3789,0.9114,0.5325,1.387,2.1782,0.7912,A,0.125
101,0.49979,0.1,2,0.44982,0.3332,0.70804,101,2.38236,-0.22,-0.10829,0.39151,5,1D2U,1.0,True,0.442,9,True,left,-0.0833,1.6224,2.0801,0.4577,0.4298,0.9718,0.542,A,0.125
102,0.49979,0.1,2,0.4165,0.44149,0.46647,102,2.77386,0.9,0.44982,0.94961,5,lapse_rate,2.0,True,0.289,0,False,right,0.1666,1.4771,2.4937,1.0166,0.2769,1.0687,0.7917,A,0.125
103,0.49979,1.2,1,0.38318,0.29988,0.46647,103,2.29905,0.3,0.14994,0.64973,5,2D1U,1.0,True,0.43,8,False,left,-0.0833,0.3756,1.0513,0.6757,1.5512,1.9924,0.4412,A,0.025
104,0.49979,0.1,2,0.43316,0.40817,0.61641,104,2.00751,-0.9,-0.44982,0.04998,5,lapse_rate,1.0,True,0.387,0,False,left,0.1666,1.6364,1.7534,0.117,0.2862,1.0777,0.7915,A,0.125
105,0.49979,1.2,2,0.28322,0.43316,0.808,105,2.41568,-0.22,-0.10829,0.39151,5,1D2U,1.0,True,1.432,9,True,left,-0.0833,1.5556,1.9641,0.4085,0.3144,0.7561,0.4417,A,0.025
106,0.49979,0.1,2,0.40817,0.39984,0.60808,106,2.56561,0.3,0.14994,0.64973,5,2D1U,2.0,True,2.501,8,False,right,0.1666,1.6102,2.3278,0.7176,0.2692,1.0609,0.7916,A,0.125
107,0.49979,0.1,2,0.29155,0.24157,0.6414,107,2.30738,0.26,0.13328,0.63307,5,2D1U,2.0,True,0.659,9,True,right,-0.0833,1.3963,2.0963,0.7,0.2712,0.8126,0.5415,A,0.125
108,0.49979,1.2,2,0.34153,0.23324,0.88297,108,2.00751,-0.9,-0.44982,0.04998,5,lapse_rate,1.0,True,0.494,0,False,left,0.1666,1.8195,1.8863,0.0668,0.2532,0.9448,0.6917,A,0.025
109,0.49979,1.2,1,0.32487,0.43316,0.68305,109,2.34904,-0.18,-0.09163,0.40817,5,1D2U,1.0,False,0.345,10,True,left,-0.0833,0.3152,0.7479,0.4327,1.4652,1.907,0.4418,A,0.025
110,0.49979,1.2,2,0.34153,0.29988,0.61641,110,2.14912,-0.22,-0.10829,0.39151,5,1D2U,1.0,True,0.399,11,True,left,0.1666,1.5472,1.956,0.4088,0.2466,0.9389,0.6923,A,0.025
111,0.49979,0.1,1,0.3332,0.38318,0.46647,111,2.31571,0.26,0.13328,0.63307,5,2D1U,1.0,True,0.392,9,True,left,-0.0833,0.2774,1.0365,0.7591,1.4863,2.0278,0.5416,A,0.125
112,0.49979,0.1,2,0.31654,0.20825,0.45815,112,2.43234,0.9,0.44982,0.94961,5,lapse_rate,2.0,True,0.717,0,False,right,0.1666,1.3686,2.3851,1.0165,0.177,0.9681,0.7911,A,0.125
113,0.49979,0.1,1,0.23324,0.25823,0.87464,113,2.47398,0.22,0.10829,0.60808,5,2D1U,1.0,True,1.209,9,False,left,-0.0833,0.1784,0.9111,0.7327,1.7698,2.3112,0.5414,A,0.125
114,0.49979,1.2,2,0.29988,0.29155,0.69971,114,2.18244,-0.22,-0.10829,0.39151,5,1D2U,1.0,True,0.748,11,True,left,0.1666,1.593,2.0022,0.4092,0.2106,0.9023,0.6918,A,0.025
115,0.49979,1.2,1,0.27489,0.35819,0.71637,115,2.79885,0.9,0.44982,0.94961,5,lapse_rate,1.0,True,0.46,0,False,left,-0.0833,0.2622,1.2372,0.975,1.9873,2.4288,0.4415,A,0.025
116,0.49979,1.2,2,0.2499,0.35819,0.50812,116,1.66598,-0.9,-0.44982,0.04998,5,lapse_rate,1.0,True,0.492,0,False,left,0.1666,1.3476,1.4145,0.0669,0.1562,0.848,0.6919,A,0.025
117,0.49979,1.2,1,0.37485,0.43316,0.61641,117,2.53229,0.22,0.10829,0.60808,5,2D1U,1.0,True,0.283,9,False,left,-0.0833,0.3662,0.9998,0.6336,1.65,2.0914,0.4414,A,0.025
118,0.49979,0.1,2,0.29988,0.35819,0.71637,118,2.2824,-0.18,-0.09163,0.40817,5,1D2U,1.0,True,0.424,12,True,left,0.1666,1.6059,2.0806,0.4748,0.156,0.9469,0.7909,A,0.125
119,0.49979,0.1,2,0.29155,0.3332,0.67472,119,2.20743,-0.18,-0.09163,0.40817,5,1D2U,1.0,True,0.343,12,True,left,-0.0833,1.4311,1.9065,0.4754,0.2729,0.8149,0.542,A,0.125
120,0.49979,1.2,1,0.40817,0.44982,0.40817,120,2.35737,0.18,0.09163,0.59142,5,2D1U,1.0,True,0.405,9,False,left,0.1666,0.4009,1.0169,0.616,1.3347,2.0258,0.6911,A,0.025
121,0.49979,1.2,1,0.42483,0.20825,0.44982,121,1.63267,-0.9,-0.44982,0.04998,5,lapse_rate,2.0,True,0.404,0,False,right,-0.0833,0.4121,0.4867,0.0746,0.9703,1.4117,0.4414,A,0.025
122,0.49979,1.2,1,0.25823,0.44149,0.58309,122,2.73221,0.9,0.44982,0.94961,5,lapse_rate,1.0,True,0.324,0,False,left,0.1666,0.2529,1.2272,0.9743,1.7194,2.4111,0.6916,A,0.025
123,0.49979,1.2,2,0.19992,0.24157,0.49146,123,1.8659,-0.14,-0.06664,0.43316,5,1D2U,1.0,True,0.356,12,False,left,-0.0833,1.1606,1.61,0.4494,0.2356,0.6772,0.4415,A,0.025
124,0.49979,0.1,2,0.34986,0.40817,0.74136,124,2.5906,0.18,0.09163,0.59142,5,2D1U,1.0,False,0.284,9,False,left,0.1666,1.6826,2.3408,0.6582,0.2071,0.9991,0.792,A,0.125
125,0.49979,1.2,2,0.4165,0.40817,0.85798,125,2.23242,-0.9,-0.44982,0.04998,5,lapse_rate,1.0,True,0.391,0,False,left,-0.0833,1.7405,1.8067,0.0662,0.4479,0.8898,0.4419,A,0.025
126,0.49979,0.1,1,0.38318,0.2499,0.42483,126,2.16578,0.22,0.10829,0.60808,5,2D1U,1.0,True,0.421,10,True,left,0.1666,0.322,1.0556,0.7336,1.339,2.1303,0.7914,A,0.125
127,0.49979,1.2,2,0.3332,0.2499,0.54144,127,2.05749,-0.14,-0.06664,0.43316,5,1D2U,1.0,True,0.408,12,False,left,-0.0833,1.3393,1.7895,0.4502,0.3642,0.8062,0.442,A,0.025
128,0.49979,1.2,2,0.44149,0.21658,0.43316,128,2.04084,-0.1,-0.04998,0.44982,5,1D2U,1.0,True,0.414,12,False,left,0.1666,1.4643,1.931,0.4667,0.3479,1.0398,0.6919,A,0.025
129,0.49979,0.1,1,0.34153,0.43316,0.46647,129,2.69056,0.9,0.44982,0.94961,5,lapse_rate,1.0,True,0.381,0,False,left,-0.0833,0.2797,1.3552,1.0754,1.805,2.3469,0.5419,A,0.125
130,0.49979,0.1,1,0.43316,0.2499,0.76635,130,2.55728,0.22,0.10829,0.60808,5,2D1U,1.0,True,0.405,10,True,left,0.1666,0.3768,1.11,0.7332,1.7353,2.5267,0.7914,A,0.125
131,0.49979,0.1,1,0.32487,0.39984,0.6414,131,2.45732,0.18,0.09163,0.59142,5,2D1U,1.0,True,0.336,11,True,left,-0.0833,0.2647,0.9817,0.717,1.6062,2.1482,0.542,A,0.125
132,0.49979,1.2,2,0.31654,0.39151,0.68305,132,2.34071,-0.1,-0.04998,0.44982,5,1D2U,1.0,True,0.604,12,False,left,0.1666,1.5938,2.0609,0.4671,0.2273,0.919,0.6917,A,0.025
133,0.49979,1.2,2,0.2499,0.29155,0.81633,133,1.90755,-0.9,-0.44982,0.04998,5,lapse_rate,1.0,True,0.406,0,False,left,-0.0833,1.5345,1.6012,0.0667,0.2844,0.7269,0.4425,A,0.025
134,0.49979,1.2,1,0.19992,0.38318,0.62474,134,2.1741,-0.06,-0.03332,0.46647,5,1D2U,1.0,False,0.506,12,False,left,0.1666,0.1927,0.6841,0.4914,1.2176,1.9096,0.692,A,0.025
135,0.49979,1.2,1,0.26656,0.42483,0.61641,135,2.7572,0.9,0.44982,0.94961,5,lapse_rate,1.0,True,0.45,0,False,left,-0.0833,0.2562,1.2317,0.9755,1.8818,2.3228,0.4409,A,0.025
136,0.49979,0.1,1,0.43316,0.22491,0.40817,136,2.15745,0.18,0.09163,0.59142,5,2D1U,1.0,True,0.707,11,True,left,0.1666,0.3699,1.0873,0.7173,1.3535,2.1456,0.7921,A,0.125
137,0.49979,0.1,2,0.28322,0.32487,0.81633,137,2.49064,0.14,0.06664,0.56643,5,2D1U,1.0,False,0.459,11,False,left,-0.0833,1.5664,2.2001,0.6337,0.2673,0.8086,0.5413,A,0.125
138,0.49979,1.2,2,0.2499,0.27489,0.6414,138,2.1158,-0.1,-0.04998,0.44982,5,1D2U,1.0,True,0.477,13,True,left,0.1666,1.4817,1.949,0.4673,0.1577,0.8489,0.6912,A,0.025
139,0.49979,0.1,2,0.38318,0.21658,0.66639,139,1.81592,-0.9,-0.44982,0.04998,5,lapse_rate,1.0,True,0.419,0,False,left,-0.0833,1.5144,1.6314,0.117,0.3646,0.9066,0.542,A,0.125
140,0.49979,0.1,2,0.24157,0.44149,0.44149,140,1.67432,-0.9,-0.44982,0.04998,5,lapse_rate,1.0,True,0.339,0,False,left,0.1666,1.2778,1.395,0.1172,0.1032,0.8948,0.7916,A,0.125
141,0.49979,1.2,2,0.25823,0.43316,0.53311,141,2.17411,-0.1,-0.04998,0.44982,5,1D2U,1.0,True,1.46,13,True,left,-0.0833,1.2562,1.7232,0.467,0.2895,0.7317,0.4421,A,0.025
142,0.49979,0.1,2,0.34153,0.3332,0.42483,142,2.19077,0.18,0.09163,0.59142,5,2D1U,1.0,False,0.417,12,True,left,0.1666,1.3594,2.0186,0.6591,0.2023,0.994,0.7917,A,0.125
143,0.49979,0.1,1,0.30821,0.4165,0.808,143,2.49897,-0.06,-0.03332,0.46647,5,1D2U,1.0,False,0.293,14,True,left,-0.0833,0.2515,0.8434,0.5919,1.6351,2.1774,0.5423,A,0.125
144,0.49979,0.1,2,0.44982,0.44149,0.44149,144,1.88257,-0.9,-0.44982,0.04998,5,lapse_rate,1.0,True,0.376,0,False,left,0.1666,1.4829,1.5988,0.1159,0.3076,1.0995,0.7919,A,0.125
145,0.49979,1.2,1,0.26656,0.28322,0.58309,145,2.24074,0.22,0.10829,0.60808,5,2D1U,1.0,True,0.675,12,False,left,-0.0833,0.2606,0.8939,0.6333,1.5113,1.9528,0.4415,A,0.025
146,0.49979,0.1,1,0.29988,0.29988,0.4165,146,1.56603,-0.9,-0.44982,0.04998,5,lapse_rate,2.0,True,0.347,0,False,right,0.1666,0.2403,0.4147,0.1744,0.6898,1.4819,0.7921,A,0.125
147,0.49979,1.2,1,0.4165,0.4165,0.69138,147,2.63225,0.22,0.10829,0.60808,5,2D1U,1.0,True,0.376,12,False,left,-0.0833,0.4067,1.0401,0.6335,1.7652,2.2065,0.4414,A,0.025
148,0.49979,0.1,2,0.24157,0.38318,0.52478,148,2.09914,-0.1,-0.04998,0.44982,5,1D2U,1.0,True,0.467,15,True,left,0.1666,1.3609,1.8771,0.5162,0.1024,0.8941,0.7917,A,0.125
149,0.49979,1.2,1,0.28322,0.38318,0.42483,149,2.54063,0.9,0.44982,0.94961,5,lapse_rate,1.0,True,0.339,0,False,left,-0.0833,0.2719,1.2469,0.975,1.7051,2.1467,0.4416,A,0.025
150,0.49979,0.1,1,0.39984,0.23324,0.44149,150,2.02418,-0.1,-0.04998,0.44982,5,1D2U,1.0,False,0.434,15,True,left,0.1666,0.3378,0.9119,0.5741,1.2111,2.0028,0.7918,A,0.125
151,0.49979,1.2,1,0.35819,0.20825,0.59975,151,2.2574,0.18,0.09163,0.59142,5,2D1U,1.0,True,0.465,13,True,left,-0.0833,0.3473,0.9638,0.6165,1.5973,2.0379,0.4406,A,0.025
152,0.49979,0.1,2,0.26656,0.21658,0.57476,152,2.5073,0.9,0.44982,0.94961,5,lapse_rate,1.0,False,1.019,0,False,left,0.1666,1.4284,2.4455,1.0171,0.1206,0.9117,0.7912,A,0.125
153,0.49979,1.2,2,0.25823,0.32487,0.43316,153,1.94921,-0.14,-0.06664,0.43316,5,1D2U,1.0,True,0.404,15,False,left,-0.0833,1.1557,1.6052,0.4495,0.2889,0.7307,0.4418,A,0.025
154,0.49979,0.1,2,0.44149,0.35819,0.8913,154,2.78219,0.18,0.09163,0.59142,5,2D1U,2.0,True,3.277,13,True,right,0.1666,1.927,2.5851,0.6581,0.3026,1.0941,0.7915,A,0.125
155,0.49979,1.2,2,0.31654,0.35819,0.73303,155,2.85716,0.9,0.44982,0.94961,5,lapse_rate,1.0,False,0.459,0,False,left,-0.0833,1.5172,2.4834,0.9662,0.3505,0.7927,0.4422,A,0.025
156,0.49979,0.1,1,0.36652,0.34986,0.46647,156,2.24907,0.14,0.06664,0.56643,5,2D1U,1.0,True,0.429,13,False,left,0.1666,0.307,0.9983,0.6913,1.3239,2.1159,0.792,A,0.125
157,0.49979,1.2,1,0.25823,0.20825,0.4165,157,1.81593,-0.14,-0.06664,0.43316,5,1D2U,2.0,True,7.354,15,False,right,-0.0833,0.2477,0.7066,0.4588,1.1567,1.5979,0.4412,A,0.025
158,0.49979,1.2,2,0.35819,0.27489,0.60808,158,2.30738,0.14,0.06664,0.56643,5,2D1U,1.0,False,0.375,13,False,left,0.1666,1.5535,2.1362,0.5827,0.2615,0.9534,0.6919,A,0.025
159,0.49979,1.2,2,0.34153,0.42483,0.51645,159,2.73221,0.9,0.44982,0.94961,5,lapse_rate,2.0,True,0.309,0,False,right,-0.0833,1.3234,2.2898,0.9664,0.3734,0.8155,0.4421,A,0.025
160,0.49979,0.1,1,0.25823,0.26656,0.808,160,2.2824,-0.1,-0.04998,0.44982,5,1D2U,1.0,False,0.55,16,True,left,0.1666,0.1954,0.7709,0.5755,1.4381,2.2295,0.7914,A,0.125
161,0.49979,0.1,2,0.4165,0.34153,0.88297,161,2.73221,0.18,0.09163,0.59142,5,2D1U,1.0,False,0.875,14,True,left,-0.0833,1.7652,2.4228,0.6576,0.3979,0.9401,0.5423,A,0.125
162,0.49979,1.2,1,0.39984,0.23324,0.81633,162,2.38236,-0.14,-0.06664,0.43316,5,1D2U,1.0,False,0.505,17,True,left,0.1666,0.39,0.8479,0.4579,1.573,2.2642,0.6913,A,0.025
163,0.49979,1.2,2,0.24157,0.23324,0.69971,163,1.72429,-0.9,-0.44982,0.04998,5,lapse_rate,1.0,True,0.497,0,False,left,-0.0833,1.4114,1.4785,0.0671,0.2787,0.7201,0.4414,A,0.025
164,0.49979,1.2,2,0.29988,0.35819,0.62474,164,2.73221,0.9,0.44982,0.94961,5,lapse_rate,2.0,True,0.375,0,False,right,0.1666,1.5196,2.486,0.9665,0.2108,0.9028,0.692,A,0.025
165,0.49979,1.2,2,0.34986,0.25823,0.81633,165,2.33238,-0.18,-0.09163,0.40817,5,1D2U,1.0,True,0.462,17,False,left,-0.0833,1.6368,2.0617,0.4249,0.387,0.8278,0.4408,A,0.025
166,0.49979,0.1,1,0.24157,0.22491,0.78301,166,2.35736,0.22,0.10829,0.60808,5,2D1U,1.0,True,0.469,14,False,left,0.1666,0.1823,0.9151,0.7329,1.5568,2.3492,0.7924,A,0.125
167,0.49979,0.1,2,0.29155,0.26656,0.85798,167,2.32405,-0.18,-0.09163,0.40817,5,1D2U,1.0,True,0.437,17,False,left,-0.0833,1.6125,2.0871,0.4747,0.2712,0.8131,0.5419,A,0.125
168,0.49979,1.2,1,0.44982,0.39151,0.78301,168,2.73221,0.22,0.10829,0.60808,5,2D1U,1.0,True,0.457,14,False,left,0.1666,0.4371,1.0701,0.633,1.7613,2.4528,0.6915,A,0.025
169,0.49979,1.2,2,0.39151,0.34153,0.54977,169,2.37402,0.18,0.09163,0.59142,5,2D1U,1.0,False,0.441,15,True,left,-0.0833,1.409,2.0176,0.6086,0.4261,0.8667,0.4407,A,0.025
170,0.49979,0.1,2,0.35819,0.40817,0.68305,170,2.38236,-0.14,-0.06664,0.43316,5,1D2U,1.0,True,0.326,18,True,left,0.1666,1.6284,2.129,0.5006,0.2116,1.0045,0.7929,A,0.125
171,0.49979,0.1,1,0.26656,0.28322,0.83299,171,2.31572,-0.14,-0.06664,0.43316,5,1D2U,1.0,False,0.489,18,True,left,-0.0833,0.207,0.7659,0.5589,1.5828,2.1239,0.541,A,0.125
172,0.49979,1.2,2,0.44149,0.4165,0.71637,172,2.68223,0.22,0.10829,0.60808,5,2D1U,1.0,False,0.46,16,True,left,0.1666,1.7511,2.3767,0.6256,0.3516,1.0432,0.6915,A,0.025
173,0.49979,1.2,1,0.44982,0.24157,0.86631,173,2.69056,0.26,0.13328,0.63307,5,2D1U,1.0,True,0.425,16,False,left,-0.0833,0.4396,1.0982,0.6586,1.9987,2.4398,0.4411,A,0.025
174,0.49979,0.1,2,0.35819,0.31654,0.59142,174,2.17411,-0.18,-0.09163,0.40817,5,1D2U,1.0,True,0.395,19,True,left,0.1666,1.5445,2.0196,0.4751,0.22,1.0114,0.7914,A,0.125
175,0.49979,0.1,1,0.30821,0.31654,0.86631,175,2.62392,0.26,0.13328,0.63307,5,2D1U,1.0,True,0.425,16,False,left,-0.0833,0.2481,1.0058,0.7576,1.856,2.3974,0.5413,A,0.125
176,0.49979,1.2,2,0.27489,0.26656,0.53311,176,1.98252,-0.18,-0.09163,0.40817,5,1D2U,1.0,True,0.413,19,True,left,0.1666,1.3955,1.8195,0.424,0.1777,0.8693,0.6915,A,0.025
177,0.49979,1.2,2,0.39984,0.34153,0.5581,177,2.40734,0.22,0.10829,0.60808,5,2D1U,1.0,False,0.426,17,True,left,-0.0833,1.4245,2.0493,0.6248,0.432,0.8744,0.4424,A,0.025
178,0.49979,0.1,1,0.40817,0.22491,0.4165,178,2.18244,0.26,0.13328,0.63307,5,2D1U,1.0,True,0.451,18,True,left,0.1666,0.345,1.1033,0.7583,1.3788,2.1706,0.7918,A,0.125
179,0.49979,0.1,1,0.30821,0.2499,0.4165,179,1.90756,-0.14,-0.06664,0.43316,5,1D2U,1.0,False,0.417,20,True,left,-0.0833,0.2466,0.8045,0.5579,1.2046,1.7462,0.5415,A,0.125
180,0.49979,1.2,2,0.35819,0.32487,0.84132,180,2.65724,0.26,0.13328,0.63307,5,2D1U,1.0,False,0.506,18,True,left,0.1666,1.7949,2.4442,0.6493,0.2702,0.9616,0.6914,A,0.025
181,0.49979,1.2,2,0.28322,0.37485,0.4165,181,2.22409,0.3,0.14994,0.64973,5,2D1U,2.0,True,0.644,18,False,right,-0.0833,1.1683,1.8341,0.6659,0.3184,0.7598,0.4414,A,0.025
182,0.49979,0.1,1,0.2499,0.42483,0.78301,182,2.60726,0.3,0.14994,0.64973,5,2D1U,1.0,True,0.295,18,False,left,0.1666,0.1912,0.9654,0.7742,1.6077,2.3992,0.7915,A,0.125
183,0.49979,0.1,2,0.42483,0.26656,0.76635,183,2.3657,-0.18,-0.09163,0.40817,5,1D2U,1.0,True,0.391,21,True,left,-0.0833,1.6595,2.1338,0.4743,0.409,0.951,0.542,A,0.125
184,0.49979,1.2,2,0.27489,0.25823,0.66639,184,2.33237,0.26,0.13328,0.63307,5,2D1U,1.0,False,0.511,19,True,left,0.1666,1.5332,2.1827,0.6495,0.1827,0.8749,0.6923,A,0.025
185,0.49979,1.2,1,0.38318,0.4165,0.77468,185,2.72388,0.3,0.14994,0.64973,5,2D1U,1.0,True,0.441,20,True,left,-0.0833,0.373,1.0476,0.6746,1.856,2.2975,0.4415,A,0.025
186,0.49979,0.1,1,0.44149,0.21658,0.48313,186,2.29072,0.3,0.14994,0.64973,5,2D1U,1.0,True,0.55,20,True,left,0.1666,0.3837,1.1586,0.7748,1.5004,2.2924,0.792,A,0.125
187,0.49979,0.1,1,0.3332,0.25823,0.75802,187,2.25741,-0.18,-0.09163,0.40817,5,1D2U,1.0,False,0.551,21,True,left,-0.0833,0.274,0.8081,0.5341,1.55,2.0916,0.5417,A,0.125
188,0.49979,1.2,2,0.42483,0.3332,0.73303,188,2.62392,0.26,0.13328,0.63307,5,2D1U,2.0,True,0.514,21,True,right,0.1666,1.7458,2.397,0.6512,0.3287,1.0204,0.6918,A,0.025
189,0.49979,1.2,2,0.28322,0.37485,0.85798,189,2.64891,0.26,0.13328,0.63307,5,2D1U,1.0,False,0.47,21,True,left,-0.0833,1.6108,2.2604,0.6496,0.318,0.7596,0.4416,A,0.025
190,0.49979,0.1,2,0.43316,0.2499,0.83299,190,2.40735,-0.22,-0.10829,0.39151,5,1D2U,1.0,True,0.519,21,False,left,0.1666,1.8567,2.3149,0.4582,0.2901,1.0815,0.7914,A,0.125
191,0.49979,0.1,2,0.4165,0.34153,0.42483,191,2.33238,0.3,0.14994,0.64973,5,2D1U,2.0,True,0.489,22,True,right,-0.0833,1.3094,2.0266,0.7172,0.4009,0.942,0.5411,A,0.125
192,0.49979,1.2,2,0.36652,0.40817,0.57476,192,2.24075,-0.22,-0.10829,0.39151,5,1D2U,1.0,True,0.456,21,False,left,0.1666,1.5319,1.9403,0.4084,0.2739,0.9648,0.6909,A,0.025
193,0.49979,1.2,1,0.42483,0.37485,0.65806,193,2.60726,0.3,0.14994,0.64973,5,2D1U,1.0,True,0.445,22,True,left,-0.0833,0.4129,1.0871,0.6742,1.7794,2.2213,0.4419,A,0.025
194,0.49979,0.1,1,0.21658,0.32487,0.46647,194,1.91588,-0.18,-0.09163,0.40817,5,1D2U,2.0,True,0.689,22,True,right,0.1666,0.1607,0.6939,0.5332,1.019,1.8118,0.7928,A,0.125
195,0.49979,0.1,1,0.37485,0.23324,0.8913,195,2.40735,-0.18,-0.09163,0.40817,5,1D2U,1.0,False,0.584,22,True,left,-0.0833,0.3139,0.8465,0.5326,1.722,2.2639,0.5419,A,0.125
196,0.49979,1.2,1,0.38318,0.24157,0.52478,196,2.28239,0.26,0.13328,0.63307,5,2D1U,1.0,True,0.456,23,True,left,0.1666,0.3765,1.0346,0.6581,1.4678,2.1602,0.6924,A,0.025
197,0.49979,1.2,1,0.22491,0.28322,0.52478,197,2.16577,0.26,0.13328,0.63307,5,2D1U,1.0,True,0.421,23,True,left,-0.0833,0.2181,0.8769,0.6588,1.4366,1.8764,0.4398,A,0.025
198,0.49979,0.1,2,0.19992,0.42483,0.69138,198,2.20743,-0.22,-0.10829,0.39151,5,1D2U,1.0,True,0.37,23,True,left,0.1666,1.487,1.9453,0.4583,0.0621,0.8534,0.7914,A,0.125
199,0.49979,0.1,1,0.22491,0.27489,0.51645,199,2.12412,0.22,0.10829,0.60808,5,2D1U,1.0,True,0.553,23,False,left,-0.0833,0.1679,0.9013,0.7333,1.4014,1.943,0.5416,A,0.125
200,0.49979,1.2,1,0.29155,0.37485,0.64973,200,2.20743,-0.22,-0.10829,0.39151,5,1D2U,2.0,True,0.375,23,True,right,0.1666,0.2807,0.697,0.4163,1.256,1.9476,0.6916,A,0.025
201,0.49979,1.2,2,0.37485,0.25823,0.67472,201,2.41567,0.22,0.10829,0.60808,5,2D1U,1.0,False,0.575,23,False,left,-0.0833,1.5194,2.1443,0.625,0.4107,0.8522,0.4415,A,0.025
202,0.49979,0.1,2,0.21658,0.29988,0.42483,202,2.07415,0.26,0.13328,0.63307,5,2D1U,1.0,False,1.937,24,True,left,0.1666,1.2318,1.9317,0.6999,0.0731,0.8654,0.7922,A,0.125
203,0.49979,0.1,1,0.25823,0.34153,0.45815,203,2.20743,0.3,0.14994,0.64973,5,2D1U,1.0,True,0.422,24,False,left,-0.0833,0.2025,0.9771,0.7746,1.4197,1.9608,0.5411,A,0.125
204,0.49979,1.2,1,0.24157,0.34153,0.71637,204,2.20743,-0.18,-0.09163,0.40817,5,1D2U,1.0,False,0.671,24,True,left,0.1666,0.2295,0.6622,0.4327,1.2873,1.9783,0.6909,A,0.025
205,0.49979,1.2,1,0.39151,0.34153,0.70804,205,2.5906,0.3,0.14994,0.64973,5,2D1U,1.0,True,0.667,24,False,left,-0.0833,0.3845,1.0594,0.6749,1.801,2.2434,0.4424,A,0.025
206,0.49979,0.1,2,0.30821,0.40817,0.58309,206,2.43233,0.26,0.13328,0.63307,5,2D1U,1.0,False,0.437,25,True,left,0.1666,1.4848,2.1848,0.7001,0.1679,0.959,0.7912,A,0.125
207,0.49979,0.1,1,0.27489,0.29988,0.84132,207,2.56561,0.3,0.14994,0.64973,5,2D1U,1.0,True,5.536,26,True,left,-0.0833,0.2145,0.9893,0.7748,1.8149,2.3568,0.5419,A,0.125
208,0.49979,1.2,1,0.23324,0.22491,0.48313,208,1.83258,-0.22,-0.10829,0.39151,5,1D2U,2.0,True,0.407,25,True,right,0.1666,0.2272,0.6438,0.4166,1.035,1.727,0.692,A,0.025
209,0.49979,1.2,2,0.22491,0.26656,0.84965,209,2.23242,-0.22,-0.10829,0.39151,5,1D2U,1.0,True,3.679,25,True,left,-0.0833,1.5436,1.9518,0.4083,0.2607,0.7024,0.4417,A,0.025
210,0.49979,0.1,2,0.28322,0.3332,0.46647,210,2.23241,0.3,0.14994,0.64973,5,2D1U,2.0,True,1.126,26,True,right,0.1666,1.3417,2.0583,0.7166,0.1413,0.9334,0.7921,A,0.125
211,0.49979,0.1,1,0.39151,0.31654,0.83299,211,2.6739,0.26,0.13328,0.63307,5,2D1U,1.0,True,1.378,27,True,left,-0.0833,0.3368,1.0947,0.7579,1.9112,2.4533,0.5421,A,0.125
212,0.49979,1.2,2,0.3332,0.36652,0.63307,212,2.46565,0.26,0.13328,0.63307,5,2D1U,1.0,False,0.53,27,True,left,0.1666,1.5616,2.2114,0.6498,0.2448,0.9365,0.6917,A,0.025
213,0.49979,1.2,2,0.38318,0.26656,0.5581,213,2.1158,-0.18,-0.09163,0.40817,5,1D2U,1.0,True,1.217,26,True,left,-0.0833,1.4039,1.8282,0.4243,0.4122,0.8536,0.4414,A,0.025
214,0.49979,0.1,1,0.26656,0.35819,0.61641,214,2.14912,-0.18,-0.09163,0.40817,5,1D2U,1.0,False,5.087,26,True,left,0.1666,0.2068,0.7409,0.534,1.2159,2.0067,0.7908,A,0.125
215,0.49979,0.1,2,0.43316,0.34986,0.82466,215,2.49898,-0.22,-0.10829,0.39151,5,1D2U,1.0,True,0.435,27,True,left,-0.0833,1.7226,2.1816,0.459,0.4143,0.956,0.5417,A,0.125
216,0.49979,1.2,1,0.29988,0.29155,0.5581,216,2.29905,0.3,0.14994,0.64973,5,2D1U,1.0,True,0.381,28,True,left,0.1666,0.2938,0.9683,0.6745,1.4356,2.1269,0.6914,A,0.025
217,0.49979,1.2,1,0.34153,0.35819,0.46647,217,2.31571,0.3,0.14994,0.64973,5,2D1U,1.0,True,0.403,28,True,left,-0.0833,0.3316,1.0059,0.6743,1.5067,1.9482,0.4416,A,0.025
218,0.49979,0.1,2,0.4165,0.22491,0.57476,218,2.34903,0.26,0.13328,0.63307,5,2D1U,1.0,False,0.418,29,True,left,0.1666,1.5818,2.2818,0.6999,0.273,1.0644,0.7914,A,0.125
219,0.49979,0.1,2,0.19992,0.29155,0.67472,219,2.05749,-0.22,-0.10829,0.39151,5,1D2U,1.0,True,0.334,27,True,left,-0.0833,1.3452,1.8037,0.4585,0.1863,0.728,0.5417,A,0.125
220,0.49979,1.2,2,0.36652,0.36652,0.79967,220,2.68223,0.3,0.14994,0.64973,5,2D1U,1.0,False,0.729,30,True,left,0.1666,1.7573,2.4235,0.6662,0.2741,0.9656,0.6915,A,0.025
221,0.49979,1.2,2,0.29988,0.30821,0.67472,221,2.44899,0.34,0.1666,0.66639,5,2D1U,2.0,True,1.212,30,False,right,-0.0833,1.4397,2.1231,0.6834,0.3314,0.7727,0.4413,A,0.025
222,0.49979,0.1,1,0.44149,0.19992,0.57476,222,2.38235,0.34,0.1666,0.66639,5,2D1U,1.0,True,0.647,30,False,left,0.1666,0.381,1.1725,0.7916,1.6057,999.0,997.3943,A,0.125
223,0.49979,0.1,2,0.22491,0.26656,0.64973,223,2.04916,-0.18,-0.09163,0.40817,5,1D2U,1.0,True,0.633,28,True,left,-0.0833,1.3404,1.8147,0.4743,0.2063,0.7484,0.542,A,0.125
224,0.49979,1.2,2,0.42483,0.2499,0.68305,224,2.26574,-0.18,-0.09163,0.40817,5,1D2U,1.0,True,0.457,28,True,left,0.1666,1.7019,2.1272,0.4253,0.3358,1.0272,0.6914,A,0.025
225,0.49979,1.2,2,0.4165,0.19992,0.69971,225,2.46565,0.3,0.14994,0.64973,5,2D1U,1.0,False,0.497,31,True,left,-0.0833,1.5816,2.2476,0.666,0.4484,0.8894,0.441,A,0.025
226,0.49979,0.1,1,0.38318,0.31654,0.66639,226,2.53229,0.34,0.1666,0.66639,5,2D1U,1.0,True,0.546,32,True,left,0.1666,0.3265,1.1184,0.7919,1.6442,2.4355,0.7913,A,0.125
227,0.49979,0.1,1,0.38318,0.4165,0.73303,227,2.46566,-0.14,-0.06664,0.43316,5,1D2U,1.0,False,0.344,28,False,left,-0.0833,0.323,0.8805,0.5575,1.5979,2.1394,0.5415,A,0.125
228,0.49979,1.2,2,0.19992,0.29155,0.69971,228,2.35736,0.34,0.1666,0.66639,5,2D1U,1.0,False,0.751,32,True,left,0.1666,1.4943,2.1779,0.6836,0.1115,0.8036,0.6921,A,0.025
229,0.49979,1.2,1,0.38318,0.22491,0.74136,229,2.54062,0.38,0.19159,0.69138,5,2D1U,1.0,True,0.417,32,False,left,-0.0833,0.3757,1.0923,0.7166,1.8685,2.3095,0.441,A,0.025
230,0.49979,0.1,1,0.39151,0.4165,0.51645,230,2.23242,-0.18,-0.09163,0.40817,5,1D2U,1.0,False,0.434,29,True,left,0.1666,0.3369,0.8702,0.5333,1.2453,2.0371,0.7918,A,0.125
231,0.49979,0.1,2,0.38318,0.38318,0.49146,231,2.44899,0.38,0.19159,0.69138,5,2D1U,2.0,True,1.082,32,False,right,-0.0833,1.3377,2.0957,0.758,0.3623,0.9043,0.542,A,0.125
232,0.49979,1.2,2,0.24157,0.37485,0.40817,232,1.91589,-0.22,-0.10829,0.39151,5,1D2U,1.0,True,0.396,29,False,left,0.1666,1.2437,1.6525,0.4088,0.1515,0.8437,0.6922,A,0.025
233,0.49979,1.2,2,0.28322,0.25823,0.44149,233,2.14912,0.34,0.1666,0.66639,5,2D1U,1.0,False,0.412,33,True,left,-0.0833,1.1931,1.8764,0.6833,0.3182,0.7598,0.4415,A,0.025
234,0.49979,0.1,2,0.34986,0.3332,0.74136,234,2.31572,-0.22,-0.10829,0.39151,5,1D2U,1.0,True,0.354,29,False,left,0.1666,1.6811,2.1394,0.4583,0.2057,0.9973,0.7916,A,0.125
235,0.49979,0.1,1,0.19992,0.40817,0.46647,235,1.98252,-0.18,-0.09163,0.40817,5,1D2U,2.0,True,2.108,30,True,right,-0.0833,0.1391,0.6721,0.5329,1.1226,1.6638,0.5412,A,0.125
236,0.49979,1.2,1,0.28322,0.40817,0.74969,236,2.63225,0.38,0.19159,0.69138,5,2D1U,2.0,False,3.522,34,True,right,0.1666,0.279,0.9947,0.7158,1.654,2.3448,0.6907,A,0.025
237,0.49979,1.2,2,0.39151,0.21658,0.63307,237,2.14912,-0.18,-0.09163,0.40817,5,1D2U,1.0,True,0.53,30,True,left,-0.0833,1.4952,1.9203,0.4251,0.4286,0.8695,0.4409,A,0.025
238,0.49979,0.1,1,0.23324,0.26656,0.4165,238,2.12413,0.42,0.20825,0.70804,5,2D1U,1.0,True,0.419,34,False,left,0.1666,0.1707,1.0036,0.8329,1.2789,2.0707,0.7918,A,0.125
239,0.49979,0.1,2,0.31654,0.24157,0.56643,239,2.05749,-0.14,-0.06664,0.43316,5,1D2U,1.0,True,0.429,30,False,left,-0.0833,1.3499,1.8501,0.5002,0.2999,0.8417,0.5418,A,0.125
240,0.49979,1.2,1,0.3332,0.25823,0.83299,240,2.35737,-0.14,-0.06664,0.43316,5,1D2U,1.0,False,2.509,30,False,left,0.1666,0.3249,0.7833,0.4585,1.5243,2.2165,0.6922,A,0.025
241,0.49979,1.2,1,0.42483,0.26656,0.44982,241,2.34904,0.42,0.20825,0.70804,5,2D1U,1.0,True,0.784,34,False,left,-0.0833,0.4115,1.1452,0.7338,1.6288,2.0708,0.442,A,0.025
242,0.49979,0.1,2,0.21658,0.38318,0.59142,242,2.09914,-0.18,-0.09163,0.40817,5,1D2U,2.0,False,1.453,31,True,right,0.1666,1.3984,1.8735,0.4751,0.0737,0.8652,0.7915,A,0.125
243,0.49979,0.1,1,0.4165,0.43316,0.69971,243,2.74054,0.38,0.19159,0.69138,5,2D1U,1.0,True,2.219,35,True,left,-0.0833,0.3603,1.1769,0.8165,1.8602,2.4017,0.5416,A,0.125
244,0.49979,1.2,1,0.3332,0.27489,0.76635,244,2.26574,-0.22,-0.10829,0.39151,5,1D2U,1.0,False,0.384,31,False,left,0.1666,0.3218,0.7374,0.4156,1.4126,2.1043,0.6916,A,0.025
245,0.49979,1.2,1,0.28322,0.2499,0.57476,245,1.97419,-0.26,-0.13328,0.36652,5,1D2U,1.0,False,0.452,31,False,left,-0.0833,0.2724,0.6642,0.3919,1.273,1.7147,0.4417,A,0.025
246,0.49979,0.1,2,0.34986,0.21658,0.60808,246,2.36569,0.38,0.19159,0.69138,5,2D1U,2.0,True,0.747,35,True,right,0.1666,1.5461,2.3041,0.7581,0.2046,0.9961,0.7915,A,0.125
247,0.49979,0.1,1,0.38318,0.26656,0.8913,247,2.39069,-0.3,-0.14994,0.34986,5,1D2U,2.0,True,1.971,31,False,right,-0.0833,0.323,0.798,0.475,1.6723,2.2148,0.5425,A,0.125
248,0.49979,1.2,2,0.39984,0.25823,0.66639,248,2.49064,0.34,0.1666,0.66639,5,2D1U,1.0,False,0.343,35,False,left,0.1666,1.6569,2.3397,0.6827,0.3074,0.9977,0.6903,A,0.025
249,0.49979,1.2,2,0.22491,0.24157,0.82466,249,2.14079,-0.3,-0.14994,0.34986,5,1D2U,1.0,True,0.482,31,False,left,-0.0833,1.52,1.8863,0.3664,0.2619,0.7031,0.4412,A,0.025
250,0.49979,0.1,2,0.3332,0.44149,0.74136,250,2.38236,-0.26,-0.13328,0.36652,5,1D2U,1.0,True,0.367,32,True,left,0.1666,1.665,2.0984,0.4334,0.1903,0.9817,0.7914,A,0.125
251,0.49979,0.1,2,0.34986,0.24157,0.39984,251,1.85758,-0.26,-0.13328,0.36652,5,1D2U,1.0,True,0.386,32,True,left,-0.0833,1.2129,1.6458,0.4329,0.3297,0.8714,0.5416,A,0.125
252,0.49979,1.2,1,0.24157,0.27489,0.7247,252,2.43233,0.38,0.19159,0.69138,5,2D1U,1.0,True,2.96,36,True,left,0.1666,0.2342,0.9507,0.7166,1.5842,2.2759,0.6917,A,0.025
253,0.49979,1.2,1,0.37485,0.31654,0.57476,253,2.45732,0.38,0.19159,0.69138,5,2D1U,1.0,True,0.277,36,True,left,-0.0833,0.3645,1.0811,0.7166,1.6889,2.1308,0.4419,A,0.025
254,0.49979,0.1,1,0.30821,0.30821,0.59975,254,2.38235,0.34,0.1666,0.66639,5,2D1U,1.0,True,0.362,37,True,left,0.1666,0.2525,1.0442,0.7917,1.5034,2.2939,0.7905,A,0.125
255,0.49979,0.1,1,0.19992,0.42483,0.64973,255,2.16578,-0.22,-0.10829,0.39151,5,1D2U,1.0,False,0.298,32,False,left,-0.0833,0.1385,0.6555,0.517,1.2885,1.8304,0.5419,A,0.125
256,0.49979,1.2,1,0.4165,0.40817,0.40817,256,2.39902,0.34,0.1666,0.66639,5,2D1U,1.0,True,0.412,37,True,left,0.1666,0.4056,1.0976,0.692,1.4141,2.1054,0.6913,A,0.025
257,0.49979,1.2,1,0.37485,0.39151,0.44982,257,2.08249,-0.26,-0.13328,0.36652,5,1D2U,2.0,True,0.417,33,True,right,-0.0833,0.3644,0.7568,0.3924,1.2395,1.6818,0.4423,A,0.025
258,0.49979,0.1,1,0.36652,0.27489,0.52478,258,2.31571,0.3,0.14994,0.64973,5,2D1U,1.0,True,0.411,37,False,left,0.1666,0.3097,1.0849,0.7752,1.4687,2.2602,0.7916,A,0.125
259,0.49979,0.1,1,0.28322,0.30821,0.44982,259,1.90756,-0.26,-0.13328,0.36652,5,1D2U,2.0,True,4.172,33,True,right,-0.0833,0.228,0.7193,0.4913,1.1528,1.6949,0.5421,A,0.125
260,0.49979,1.2,1,0.30821,0.34986,0.66639,260,2.47398,0.3,0.14994,0.64973,5,2D1U,1.0,True,0.35,37,False,left,0.1666,0.3008,0.9767,0.6759,1.5515,2.243,0.6914,A,0.025
261,0.49979,1.2,2,0.35819,0.32487,0.60808,261,2.424,0.26,0.13328,0.63307,5,2D1U,1.0,False,0.42,37,False,left,-0.0833,1.4348,2.0848,0.65,0.393,0.8353,0.4423,A,0.025
262,0.49979,0.1,1,0.35819,0.27489,0.52478,262,2.04916,-0.22,-0.10829,0.39151,5,1D2U,1.0,False,0.612,34,True,left,0.1666,0.3008,0.8172,0.5164,1.2009,1.9929,0.792,A,0.125
263,0.49979,0.1,1,0.40817,0.36652,0.8913,263,2.5323,-0.26,-0.13328,0.36652,5,1D2U,1.0,False,0.35,35,True,left,-0.0833,0.348,0.8397,0.4917,1.7144,2.2564,0.542,A,0.125
264,0.49979,1.2,2,0.42483,0.39151,0.61641,264,2.58227,0.3,0.14994,0.64973,5,2D1U,1.0,False,0.396,38,True,left,0.1666,1.629,2.2959,0.6668,0.3292,1.0209,0.6917,A,0.025
265,0.49979,1.2,1,0.28322,0.4165,0.68305,265,2.23242,-0.3,-0.14994,0.34986,5,1D2U,2.0,True,0.322,35,False,right,-0.0833,0.2769,0.6529,0.376,1.3695,1.8113,0.4419,A,0.025
266,0.49979,0.1,1,0.30821,0.34153,0.45815,266,1.95754,-0.3,-0.14994,0.34986,5,1D2U,1.0,False,0.379,35,False,left,0.1666,0.2476,0.7234,0.4758,1.0397,1.8316,0.7919,A,0.125
267,0.49979,0.1,2,0.31654,0.42483,0.67472,267,2.58227,0.34,0.1666,0.66639,5,2D1U,2.0,True,0.337,38,False,right,-0.0833,1.4572,2.1907,0.7334,0.299,0.8404,0.5413,A,0.125
268,0.49979,1.2,2,0.27489,0.30821,0.77468,268,2.52396,0.34,0.1666,0.66639,5,2D1U,1.0,False,0.492,38,False,left,0.1666,1.6399,2.3232,0.6833,0.1812,0.8732,0.692,A,0.025
269,0.49979,1.2,2,0.34986,0.36652,0.40817,269,1.95754,-0.34,-0.1666,0.3332,5,1D2U,1.0,True,0.396,35,False,left,-0.0833,1.223,1.5731,0.3501,0.3806,0.8232,0.4426,A,0.025
270,0.49979,0.1,2,0.21658,0.21658,0.4748,270,1.74095,-0.34,-0.1666,0.3332,5,1D2U,1.0,True,0.415,35,False,left,0.1666,1.2788,1.6794,0.4006,0.0709,0.862,0.7911,A,0.125
271,0.49979,0.1,1,0.23324,0.3332,0.44149,271,2.1991,0.38,0.19159,0.69138,5,2D1U,1.0,True,0.72,38,False,left,-0.0833,0.1736,0.9904,0.8168,1.416,1.9561,0.5402,A,0.125
272,0.49979,1.2,1,0.34153,0.29988,0.56643,272,2.05749,-0.3,-0.14994,0.34986,5,1D2U,2.0,True,0.964,36,True,right,0.1666,0.3358,0.7105,0.3747,1.1855,1.8768,0.6912,A,0.025
273,0.49979,1.2,1,0.30821,0.29155,0.6414,273,2.43233,0.38,0.19159,0.69138,5,2D1U,1.0,True,0.425,38,False,left,-0.0833,0.2968,1.0135,0.7166,1.6878,2.129,0.4412,A,0.025
274,0.49979,0.1,2,0.2499,0.28322,0.79967,274,2.18244,-0.3,-0.14994,0.34986,5,1D2U,1.0,True,0.4,36,True,left,0.1666,1.6399,2.0573,0.4174,0.108,0.8985,0.7905,A,0.125
275,0.49979,0.1,1,0.20825,0.23324,0.75802,275,2.06582,-0.26,-0.13328,0.36652,5,1D2U,1.0,False,0.46,36,False,left,-0.0833,0.1519,0.6443,0.4923,1.3856,1.9276,0.542,A,0.125
276,0.49979,1.2,2,0.34986,0.44149,0.52478,276,2.48231,0.34,0.1666,0.66639,5,2D1U,1.0,False,0.603,39,True,left,0.1666,1.4666,2.1499,0.6833,0.2583,0.9497,0.6915,A,0.025
277,0.49979,1.2,1,0.4165,0.2499,0.50812,277,2.36569,0.38,0.19159,0.69138,5,2D1U,1.0,True,0.321,40,True,left,-0.0833,0.4093,1.125,0.7157,1.6665,2.1095,0.443,A,0.025
278,0.49979,0.1,2,0.29155,0.19992,0.77468,278,2.1158,-0.3,-0.14994,0.34986,5,1D2U,1.0,True,0.414,37,True,left,0.1666,1.6612,2.0786,0.4173,0.1529,0.9443,0.7913,A,0.125
279,0.49979,0.1,1,0.29988,0.31654,0.5581,279,2.02417,-0.3,-0.14994,0.34986,5,1D2U,1.0,False,0.39,37,True,left,-0.0833,0.2433,0.7182,0.4749,1.2601,1.801,0.5409,A,0.125
280,0.49979,1.2,2,0.39151,0.19992,0.87464,280,2.65724,0.38,0.19159,0.69138,5,2D1U,1.0,False,0.446,40,True,left,0.1666,1.8594,2.5678,0.7084,0.3016,0.9926,0.691,A,0.025
281,0.49979,1.2,2,0.29988,0.34153,0.4165,281,2.26574,0.42,0.20825,0.70804,5,2D1U,1.0,False,0.31,40,False,left,-0.0833,1.1842,1.9092,0.725,0.3345,0.7757,0.4412,A,0.025
282,0.49979,0.1,1,0.25823,0.4165,0.81633,282,2.32405,-0.34,-0.1666,0.3332,5,1D2U,1.0,False,0.304,37,False,left,0.1666,0.199,0.6567,0.4576,1.3321,2.1238,0.7918,A,0.125
283,0.49979,0.1,2,0.32487,0.20825,0.808,283,2.14912,-0.38,-0.19159,0.30821,5,1D2U,1.0,True,0.366,37,False,left,-0.0833,1.5947,1.9704,0.3757,0.3035,0.8449,0.5414,A,0.125
284,0.49979,1.2,2,0.4165,0.22491,0.70804,284,2.15745,-0.38,-0.19159,0.30821,5,1D2U,1.0,True,0.319,37,False,left,0.1666,1.7149,2.0401,0.3252,0.3225,1.0143,0.6919,A,0.025
285,0.49979,1.2,2,0.38318,0.27489,0.78301,285,2.6739,0.46,0.23324,0.73303,5,2D1U,2.0,True,0.387,40,False,right,-0.0833,1.6306,2.3808,0.7502,0.4142,0.8552,0.441,A,0.025
286,0.49979,0.1,1,0.19992,0.31654,0.75802,286,2.10747,-0.34,-0.1666,0.3332,5,1D2U,2.0,True,0.308,38,True,right,0.1666,0.1383,0.5961,0.4578,1.2129,2.0042,0.7913,A,0.125
287,0.49979,0.1,2,0.3332,0.42483,0.84132,287,2.43234,-0.34,-0.1666,0.3332,5,1D2U,1.0,True,0.228,38,True,left,-0.0833,1.638,2.0382,0.4001,0.313,0.8543,0.5413,A,0.125
288,0.49979,1.2,2,0.40817,0.20825,0.73303,288,2.58227,0.46,0.23324,0.73303,5,2D1U,2.0,True,0.466,40,False,right,0.1666,1.7298,2.4794,0.7496,0.3127,1.0045,0.6918,A,0.025
289,0.49979,1.2,1,0.34153,0.2499,0.4165,289,2.21576,0.42,0.20825,0.70804,5,2D1U,1.0,True,0.638,41,True,left,-0.0833,0.3341,1.0676,0.7335,1.5175,1.9592,0.4417,A,0.025
290,0.49979,0.1,2,0.36652,0.25823,0.82466,290,2.29906,-0.3,-0.14994,0.34986,5,1D2U,1.0,True,0.359,38,False,left,0.1666,1.7815,2.1976,0.4161,0.2227,1.0142,0.7915,A,0.125
291,0.49979,0.1,2,0.31654,0.24157,0.81633,291,2.22409,-0.3,-0.14994,0.34986,5,1D2U,1.0,True,1.199,38,False,left,-0.0833,1.5981,2.0146,0.4164,0.299,0.8397,0.5407,A,0.125
292,0.49979,1.2,2,0.31654,0.42483,0.57476,292,2.52396,0.42,0.20825,0.70804,5,2D1U,2.0,True,0.667,41,True,right,0.1666,1.4818,2.2068,0.725,0.2235,0.9148,0.6913,A,0.025
293,0.49979,1.2,1,0.37485,0.29155,0.808,293,2.66557,0.38,0.19159,0.69138,5,2D1U,1.0,True,4.698,41,False,left,-0.0833,0.3622,1.0789,0.7168,1.9207,2.3623,0.4416,A,0.025
294,0.49979,0.1,1,0.3332,0.29155,0.74136,294,2.23242,-0.26,-0.13328,0.36652,5,1D2U,2.0,True,2.285,38,False,right,0.1666,0.2729,0.7656,0.4928,1.3657,2.1566,0.7909,A,0.125
295,0.49979,0.1,1,0.20825,0.3332,0.70804,295,2.44066,0.38,0.19159,0.69138,5,2D1U,1.0,True,0.221,41,False,left,-0.0833,0.152,0.9684,0.8164,1.6608,2.2022,0.5414,A,0.125
296,0.49979,1.2,1,0.39984,0.23324,0.58309,296,2.08248,-0.26,-0.13328,0.36652,5,1D2U,2.0,True,0.575,38,False,right,0.1666,0.3939,0.7857,0.3918,1.2775,1.9691,0.6917,A,0.025
297,0.49979,1.2,2,0.21658,0.30821,0.84965,297,2.54062,0.34,0.1666,0.66639,5,2D1U,2.0,True,0.209,41,False,right,-0.0833,1.5322,2.2155,0.6833,0.2488,0.6909,0.4422,A,0.025
298,0.49979,0.1,2,0.37485,0.39151,0.65806,298,2.5906,0.34,0.1666,0.66639,5,2D1U,2.0,True,0.283,41,False,right,0.1666,1.6231,2.3564,0.7333,0.2318,1.0232,0.7914,A,0.125
299,0.49979,0.1,2,0.24157,0.28322,0.8913,299,2.30739,-0.22,-0.10829,0.39151,5,1D2U,1.0,True,0.269,38,False,left,-0.0833,1.5964,2.0547,0.4583,0.2208,0.7626,0.5418,A,0.125
300,0.49979,1.2,1,0.38318,0.37485,0.50812,300,2.41567,0.3,0.14994,0.64973,5,2D1U,2.0,False,0.668,41,False,right,0.1666,0.3704,1.0456,0.6752,1.4614,2.154,0.6927,A,0.025
301,0.49979,1.2,1,0.24157,0.31654,0.44982,301,1.89923,-0.22,-0.10829,0.39151,5,1D2U,2.0,True,1.949,38,False,right,-0.0833,0.2323,0.6485,0.4162,1.1325,1.5733,0.4408,A,0.025
302,0.49979,0.1,2,0.2499,0.32487,0.84132,302,2.32405,-0.18,-0.09163,0.40817,5,1D2U,1.0,True,2.379,38,False,left,0.1666,1.6798,2.1551,0.4753,0.1051,0.8967,0.7916,A,0.125
303,0.49979,0.1,2,0.2499,0.25823,0.82466,303,2.49897,0.34,0.1666,0.66639,5,2D1U,1.0,False,5.91,42,True,left,-0.0833,1.5426,2.2763,0.7337,0.2344,0.776,0.5416,A,0.125
304,0.49979,1.2,1,0.25823,0.21658,0.69971,304,2.08248,-0.18,-0.09163,0.40817,5,1D2U,1.0,False,0.43,38,False,left,0.1666,0.2463,0.6799,0.4336,1.2888,1.9799,0.6911,A,0.025
305,0.49979,1.2,2,0.36652,0.28322,0.71637,305,2.55728,0.38,0.19159,0.69138,5,2D1U,2.0,True,0.532,42,False,right,-0.0833,1.5465,2.2544,0.7079,0.396,0.8382,0.4422,A,0.025
306,0.49979,0.1,2,0.25823,0.39984,0.43316,306,1.98253,-0.22,-0.10829,0.39151,5,1D2U,1.0,True,0.34,39,True,left,0.1666,1.284,1.7425,0.4585,0.1174,0.9084,0.791,A,0.125
307,0.49979,0.1,1,0.26656,0.4165,0.42483,307,1.99919,-0.22,-0.10829,0.39151,5,1D2U,2.0,True,0.308,39,True,right,-0.0833,0.2079,0.725,0.5171,1.1326,1.675,0.5423,A,0.125
308,0.49979,1.2,1,0.36652,0.37485,0.81633,308,2.74887,0.38,0.19159,0.69138,5,2D1U,2.0,False,0.969,42,False,right,0.1666,0.3606,1.0773,0.7167,1.8021,2.4939,0.6918,A,0.025
309,0.49979,1.2,1,0.4165,0.44149,0.78301,309,2.54896,-0.18,-0.09163,0.40817,5,1D2U,1.0,False,0.276,40,True,left,-0.0833,0.4066,0.8403,0.4336,1.6561,2.0978,0.4417,A,0.025
310,0.49979,0.1,2,0.44982,0.35819,0.51645,310,2.53229,0.42,0.20825,0.70804,5,2D1U,2.0,True,2.451,42,False,right,0.1666,1.5543,2.3291,0.7749,0.3045,1.0952,0.7907,A,0.125
311,0.49979,0.1,2,0.32487,0.42483,0.79134,311,2.43234,-0.22,-0.10829,0.39151,5,1D2U,1.0,True,0.333,41,True,left,-0.0833,1.581,2.0395,0.4586,0.3066,0.8476,0.541,A,0.125
312,0.49979,1.2,2,0.40817,0.28322,0.71637,312,2.61559,0.42,0.20825,0.70804,5,2D1U,1.0,False,0.901,42,False,left,0.1666,1.7116,2.4371,0.7255,0.3124,1.0033,0.691,A,0.025
313,0.49979,1.2,1,0.40817,0.30821,0.51645,313,2.46565,0.46,0.23324,0.73303,5,2D1U,1.0,True,0.392,42,False,left,-0.0833,0.3986,1.1566,0.758,1.7062,2.1479,0.4417,A,0.025
314,0.49979,0.1,2,0.20825,0.27489,0.61641,314,1.99085,-0.22,-0.10829,0.39151,5,1D2U,1.0,True,0.438,41,True,left,0.1666,1.4172,1.8761,0.4589,0.0673,0.8594,0.7921,A,0.125
315,0.49979,0.1,2,0.40817,0.28322,0.8913,315,2.81551,0.46,0.23324,0.73303,5,2D1U,2.0,True,0.327,42,False,right,-0.0833,1.7619,2.5619,0.8,0.3867,0.9284,0.5417,A,0.125
316,0.49979,1.2,1,0.36652,0.22491,0.52478,316,2.32404,0.42,0.20825,0.70804,5,2D1U,1.0,True,0.616,43,True,left,0.1666,0.3567,1.0905,0.7339,1.5239,2.2154,0.6915,A,0.025
317,0.49979,1.2,2,0.34153,0.30821,0.73303,317,2.5906,0.42,0.20825,0.70804,5,2D1U,2.0,True,0.262,43,True,right,-0.0833,1.5431,2.268,0.7249,0.3768,0.8183,0.4415,A,0.025
318,0.49979,0.1,2,0.38318,0.34153,0.78301,318,2.69889,0.38,0.19159,0.69138,5,2D1U,2.0,True,0.516,43,False,right,0.1666,1.7553,2.5139,0.7586,0.2387,1.0303,0.7916,A,0.125
319,0.49979,0.1,1,0.20825,0.21658,0.5581,319,1.89089,-0.18,-0.09163,0.40817,5,1D2U,1.0,False,0.442,42,True,left,-0.0833,0.1518,0.6845,0.5327,1.2262,1.7685,0.5423,A,0.125
320,0.49979,1.2,2,0.28322,0.42483,0.46647,320,2.36569,0.38,0.19159,0.69138,5,2D1U,1.0,False,1.414,43,False,left,0.1666,1.3434,2.0521,0.7087,0.1933,0.8844,0.6911,A,0.025
321,0.49979,1.2,1,0.28322,0.4165,0.68305,321,2.27407,-0.22,-0.10829,0.39151,5,1D2U,1.0,False,0.371,43,True,left,-0.0833,0.2738,0.6903,0.4165,1.407,1.8487,0.4416,A,0.025
322,0.49979,0.1,1,0.26656,0.23324,0.56643,322,2.27406,0.42,0.20825,0.70804,5,2D1U,1.0,True,0.349,44,True,left,0.1666,0.2055,1.0382,0.8327,1.4642,2.2554,0.7911,A,0.125
323,0.49979,0.1,2,0.22491,0.37485,0.52478,323,2.33237,0.42,0.20825,0.70804,5,2D1U,1.0,False,1.008,44,True,left,-0.0833,1.2204,1.9954,0.775,0.2107,0.7534,0.5426,A,0.125
324,0.49979,1.2,1,0.23324,0.31654,0.84965,324,2.26574,-0.26,-0.13328,0.36652,5,1D2U,2.0,True,0.338,43,False,right,0.1666,0.2216,0.6145,0.3928,1.3727,2.0644,0.6918,A,0.025
325,0.49979,1.2,1,0.32487,0.40817,0.46647,325,2.43233,0.46,0.23324,0.73303,5,2D1U,1.0,True,0.284,44,False,left,-0.0833,0.3132,1.0717,0.7585,1.572,2.0136,0.4416,A,0.025
326,0.49979,0.1,2,0.26656,0.21658,0.7247,326,2.44066,0.46,0.23324,0.73303,5,2D1U,2.0,True,0.648,44,False,right,0.1666,1.5853,2.3845,0.7992,0.127,0.9183,0.7914,A,0.125
327,0.49979,0.1,2,0.44149,0.20825,0.68305,327,2.1991,-0.26,-0.13328,0.36652,5,1D2U,1.0,True,0.445,43,False,left,-0.0833,1.5896,2.0224,0.4328,0.4225,0.9644,0.5419,A,0.125
328,0.49979,1.2,2,0.28322,0.27489,0.44982,328,2.21576,0.42,0.20825,0.70804,5,2D1U,2.0,True,0.415,45,True,right,0.1666,1.327,2.0516,0.7246,0.1935,0.8852,0.6917,A,0.025
329,0.49979,1.2,2,0.23324,0.29988,0.5581,329,2.29905,0.42,0.20825,0.70804,5,2D1U,2.0,True,0.347,45,True,right,-0.0833,1.255,1.9795,0.7246,0.2634,0.7052,0.4419,A,0.025
330,0.49979,0.1,1,0.44149,0.2499,0.79967,330,2.38236,-0.22,-0.10829,0.39151,5,1D2U,2.0,True,0.254,44,True,right,0.1666,0.3841,0.9009,0.5168,1.5589,2.3508,0.7919,A,0.125
331,0.49979,0.1,2,0.2499,0.38318,0.78301,331,2.60726,0.38,0.19159,0.69138,5,2D1U,2.0,True,0.156,45,False,right,-0.0833,1.5035,2.2612,0.7577,0.2364,0.7779,0.5415,A,0.125
332,0.49979,1.2,2,0.34153,0.37485,0.49979,332,2.10747,-0.22,-0.10829,0.39151,5,1D2U,1.0,True,0.49,44,True,left,0.1666,1.43,1.8382,0.4082,0.2472,0.939,0.6918,A,0.025
333,0.49979,1.2,2,0.34986,0.2499,0.77468,333,2.56561,0.38,0.19159,0.69138,5,2D1U,1.0,False,1.277,45,False,left,-0.0833,1.5905,2.2986,0.7081,0.3822,0.8241,0.4419,A,0.025
334,0.49979,0.1,1,0.3332,0.31654,0.71637,334,2.57394,0.42,0.20825,0.70804,5,2D1U,1.0,True,0.438,46,True,left,0.1666,0.2707,1.1042,0.8335,1.6787,2.471,0.7923,A,0.125
335,0.49979,0.1,2,0.30821,0.2499,0.49979,335,2.26573,0.42,0.20825,0.70804,5,2D1U,2.0,True,1.249,46,True,right,-0.0833,1.2723,2.0471,0.7748,0.2893,0.8299,0.5406,A,0.125
336,0.49979,1.2,1,0.30821,0.20825,0.79134,336,2.49897,0.38,0.19159,0.69138,5,2D1U,2.0,False,2.522,47,True,right,0.1666,0.3028,1.0193,0.7165,1.7191,2.4111,0.692,A,0.025
337,0.49979,1.2,2,0.23324,0.20825,0.87464,337,2.22409,-0.18,-0.09163,0.40817,5,1D2U,1.0,True,1.664,44,False,left,-0.0833,1.5761,2.0009,0.4248,0.2678,0.7095,0.4417,A,0.025
338,0.49979,0.1,2,0.37485,0.31654,0.66639,338,2.56561,0.42,0.20825,0.70804,5,2D1U,1.0,False,2.034,48,True,left,0.1666,1.6304,2.4058,0.7755,0.2311,1.0228,0.7917,A,0.125
339,0.49979,0.1,1,0.4165,0.31654,0.52478,339,2.16578,-0.18,-0.09163,0.40817,5,1D2U,2.0,True,0.338,44,False,right,-0.0833,0.3553,0.8884,0.5331,1.3967,1.9381,0.5414,A,0.125
340,0.49979,1.2,1,0.37485,0.2499,0.48313,340,2.3407,0.46,0.23324,0.73303,5,2D1U,1.0,True,4.098,48,False,left,0.1666,0.3688,1.1268,0.758,1.5184,2.2103,0.692,A,0.025
341,0.49979,1.2,2,0.39151,0.19992,0.57476,341,2.09914,-0.14,-0.06664,0.43316,5,1D2U,1.0,True,0.636,44,False,left,-0.0833,1.4377,1.8869,0.4493,0.4288,0.8696,0.4408,A,0.025
342,0.49979,0.1,1,0.31654,0.27489,0.77468,342,2.29906,-0.14,-0.06664,0.43316,5,1D2U,1.0,False,2.864,44,False,left,0.1666,0.2615,0.8199,0.5585,1.4531,2.2448,0.7916,A,0.125
343,0.49979,0.1,1,0.23324,0.42483,0.83299,343,2.72388,0.46,0.23324,0.73303,5,2D1U,1.0,True,0.279,48,False,left,-0.0833,0.1721,1.0311,0.859,1.8473,2.3897,0.5424,A,0.125
344,0.49979,1.2,2,0.22491,0.37485,0.66639,344,2.17411,-0.18,-0.09163,0.40817,5,1D2U,1.0,True,0.355,45,True,left,0.1666,1.4803,1.905,0.4247,0.1301,0.8219,0.6918,A,0.025
345,0.49979,1.2,1,0.42483,0.42483,0.6414,345,2.69889,0.42,0.20825,0.70804,5,2D1U,1.0,True,0.221,49,True,left,-0.0833,0.4135,1.1459,0.7324,1.8222,2.2635,0.4414,A,0.025
346,0.49979,0.1,1,0.2499,0.20825,0.62474,346,2.29072,0.42,0.20825,0.70804,5,2D1U,1.0,True,1.993,49,True,left,0.1666,0.1905,1.0235,0.8329,1.5064,2.2982,0.7917,A,0.125
347,0.49979,0.1,1,0.26656,0.2499,0.4165,347,2.12413,0.38,0.19159,0.69138,5,2D1U,1.0,True,2.089,49,False,left,-0.0833,0.2062,1.0239,0.8177,1.4232,1.9653,0.5421,A,0.125
348,0.49979,1.2,1,0.28322,0.44149,0.58309,348,2.21576,-0.18,-0.09163,0.40817,5,1D2U,2.0,True,0.206,45,True,right,0.1666,0.2736,0.7048,0.4312,1.1972,1.8888,0.6916,A,0.025
349,0.49979,1.2,2,0.27489,0.44149,0.89963,349,2.54896,-0.14,-0.06664,0.43316,5,1D2U,2.0,False,2.088,46,True,right,-0.0833,1.643,2.0924,0.4494,0.3097,0.7511,0.4413,A,0.025
350,0.49979,0.1,1,0.40817,0.27489,0.63307,350,2.5073,0.38,0.19159,0.69138,5,2D1U,1.0,True,0.3,49,False,left,0.1666,0.3503,1.1674,0.817,1.6594,2.4502,0.7908,A,0.125
351,0.49979,0.1,1,0.30821,0.23324,0.69971,351,2.40734,0.34,0.1666,0.66639,5,2D1U,1.0,True,0.516,49,False,left,-0.0833,0.2524,1.0442,0.7919,1.7273,2.2692,0.5419,A,0.125
352,0.49979,1.2,1,0.27489,0.40817,0.7247,352,2.31572,-0.18,-0.09163,0.40817,5,1D2U,1.0,False,0.407,47,True,left,0.1666,0.2644,0.6966,0.4323,1.3304,2.0222,0.6918,A,0.025
353,0.49979,1.2,2,0.42483,0.40817,0.4748,353,2.1991,-0.22,-0.10829,0.39151,5,1D2U,1.0,True,0.372,47,False,left,-0.0833,1.3654,1.7743,0.4089,0.4569,0.8988,0.4419,A,0.025
354,0.49979,0.1,2,0.39984,0.29988,0.6414,354,2.5073,0.34,0.1666,0.66639,5,2D1U,1.0,False,0.456,49,False,left,0.1666,1.6321,2.3652,0.7331,0.2563,1.0481,0.7919,A,0.125
355,0.49979,0.1,1,0.2499,0.23324,0.44982,355,2.12413,0.38,0.19159,0.69138,5,2D1U,1.0,True,0.325,50,True,left,-0.0833,0.1877,1.0046,0.8169,1.4386,1.9794,0.5408,A,0.125
356,0.49979,1.2,2,0.19992,0.32487,0.57476,356,2.29072,0.38,0.19159,0.69138,5,2D1U,2.0,True,0.492,50,True,right,0.1666,1.368,2.0761,0.7081,0.1087,0.8005,0.6918,A,0.025
357,0.49979,1.2,2,0.21658,0.44149,0.87464,357,2.69889,0.34,0.1666,0.66639,5,2D1U,2.0,True,1.611,51,True,right,-0.0833,1.5546,2.2384,0.6838,0.2465,0.6884,0.4419,A,0.025
358,0.49979,0.1,2,0.34986,0.42483,0.54144,358,2.20743,-0.22,-0.10829,0.39151,5,1D2U,1.0,True,0.345,47,False,left,0.1666,1.4786,1.9368,0.4582,0.2036,0.9949,0.7913,A,0.125
359,0.49979,0.1,1,0.26656,0.39984,0.64973,359,2.22409,-0.18,-0.09163,0.40817,5,1D2U,2.0,True,4.262,48,True,right,-0.0833,0.2054,0.7386,0.5332,1.3727,1.9139,0.5412,A,0.125
360,0.49979,1.2,1,0.21658,0.37485,0.65806,360,2.41567,0.34,0.1666,0.66639,5,2D1U,1.0,True,0.408,51,True,left,0.1666,0.2104,0.9025,0.6921,1.4695,2.1612,0.6918,A,0.025
361,0.49979,1.2,2,0.35819,0.40817,0.56643,361,2.48231,0.3,0.14994,0.64973,5,2D1U,1.0,False,2.998,51,False,left,-0.0833,1.3936,2.0605,0.667,0.394,0.8359,0.4419,A,0.025
362,0.49979,0.1,1,0.44149,0.2499,0.39984,362,1.99919,-0.18,-0.09163,0.40817,5,1D2U,1.0,False,0.467,48,True,left,0.1666,0.3795,0.9133,0.5339,1.1716,1.9634,0.7918,A,0.125
363,0.49979,0.1,1,0.29988,0.20825,0.82466,363,2.22409,-0.22,-0.10829,0.39151,5,1D2U,1.0,False,0.606,49,True,left,-0.0833,0.2396,0.7555,0.5159,1.5648,2.1064,0.5415,A,0.125
364,0.49979,1.2,1,0.23324,0.29988,0.63307,364,2.33237,0.34,0.1666,0.66639,5,2D1U,1.0,True,0.468,52,True,left,0.1666,0.2221,0.9135,0.6914,1.4555,2.1471,0.6916,A,0.025
365,0.49979,1.2,2,0.37485,0.40817,0.82466,365,2.47399,-0.26,-0.13328,0.36652,5,1D2U,1.0,True,0.302,49,False,left,-0.0833,1.6633,2.0476,0.3843,0.4058,0.8477,0.4419,A,0.025
366,0.49979,0.1,2,0.39151,0.24157,0.64973,366,2.44899,0.34,0.1666,0.66639,5,2D1U,2.0,True,2.473,52,True,right,0.1666,1.6296,2.3633,0.7337,0.2458,1.0375,0.7918,A,0.125
367,0.49979,0.1,1,0.29988,0.29988,0.45815,367,1.92422,-0.26,-0.13328,0.36652,5,1D2U,2.0,True,2.353,49,False,right,-0.0833,0.2408,0.7326,0.4918,1.1738,1.7158,0.542,A,0.125
368,0.49979,1.2,2,0.2499,0.44982,0.54144,368,2.39068,0.3,0.14994,0.64973,5,2D1U,2.0,True,0.282,53,True,right,0.1666,1.3795,2.0466,0.6671,0.155,0.8465,0.6916,A,0.025
369,0.49979,1.2,1,0.25823,0.34153,0.42483,369,1.91589,-0.22,-0.10829,0.39151,5,1D2U,2.0,True,6.761,50,True,right,-0.0833,0.2481,0.6643,0.4162,1.1231,1.5646,0.4415,A,0.025
370,0.49979,0.1,1,0.22491,0.29988,0.88297,370,2.29906,-0.22,-0.10829,0.39151,5,1D2U,1.0,False,6.972,50,True,left,0.1666,0.1653,0.6817,0.5165,1.4229,2.2152,0.7923,A,0.125
371,0.49979,0.1,1,0.24157,0.25823,0.84132,371,2.49064,0.3,0.14994,0.64973,5,2D1U,1.0,True,0.309,53,True,left,-0.0833,0.1795,0.9556,0.7761,1.7804,2.3217,0.5413,A,0.125
372,0.49979,1.2,1,0.29155,0.29988,0.43316,372,2.15745,0.26,0.13328,0.63307,5,2D1U,1.0,True,5.425,53,False,left,0.1666,0.2814,0.9401,0.6588,1.2812,1.9731,0.6919,A,0.025
373,0.49979,1.2,2,0.19992,0.24157,0.54144,373,1.84924,-0.26,-0.13328,0.36652,5,1D2U,1.0,True,0.27,51,True,left,-0.0833,1.2065,1.589,0.3825,0.2318,0.6731,0.4413,A,0.025
374,0.49979,0.1,1,0.2499,0.25823,0.44149,374,1.81593,-0.26,-0.13328,0.36652,5,1D2U,1.0,False,0.48,51,True,left,0.1666,0.1926,0.6848,0.4922,0.9846,1.7754,0.7908,A,0.125
375,0.49979,0.1,1,0.28322,0.25823,0.40817,375,2.08248,0.26,0.13328,0.63307,5,2D1U,1.0,True,0.317,53,False,left,-0.0833,0.2214,0.9792,0.7577,1.3719,1.913,0.5411,A,0.125
376,0.49979,1.2,1,0.34986,0.3332,0.43316,376,1.96587,-0.3,-0.14994,0.34986,5,1D2U,1.0,False,0.567,51,False,left,0.1666,0.343,0.7186,0.3757,1.0605,1.7522,0.6917,A,0.025
377,0.49979,1.2,2,0.3332,0.34986,0.83299,377,2.34904,-0.34,-0.1666,0.3332,5,1D2U,1.0,True,0.394,51,False,left,-0.0833,1.6341,1.9842,0.3501,0.3671,0.8086,0.4415,A,0.025
378,0.49979,0.1,1,0.32487,0.31654,0.5581,378,2.30738,0.22,0.10829,0.60808,5,2D1U,1.0,True,0.519,53,False,left,0.1666,0.2624,0.9959,0.7335,1.4125,2.2039,0.7914,A,0.125
379,0.49979,0.1,2,0.35819,0.36652,0.6414,379,2.1991,-0.34,-0.1666,0.3332,5,1D2U,1.0,True,0.313,51,False,left,-0.0833,1.4644,1.8646,0.4003,0.3395,0.8811,0.5416,A,0.125
380,0.49979,1.2,1,0.22491,0.40817,0.76635,380,2.24908,-0.3,-0.14994,0.34986,5,1D2U,2.0,True,1.203,52,True,right,0.1666,0.2148,0.5897,0.3749,1.2645,1.956,0.6915,A,0.025
381,0.49979,1.2,2,0.29988,0.4165,0.74969,381,2.57394,0.22,0.10829,0.60808,5,2D1U,1.0,False,0.892,53,False,left,-0.0833,1.5143,2.1391,0.6248,0.3311,0.7721,0.441,A,0.025
382,0.49979,0.1,1,0.27489,0.34153,0.54977,382,2.01584,-0.3,-0.14994,0.34986,5,1D2U,1.0,False,0.581,52,True,left,0.1666,0.2141,0.6899,0.4759,1.0975,1.8894,0.7919,A,0.125
383,0.49979,0.1,2,0.22491,0.44982,0.5581,383,2.06582,-0.34,-0.1666,0.3332,5,1D2U,1.0,True,0.364,53,True,left,-0.0833,1.2527,1.6527,0.4,0.2115,0.7524,0.5409,A,0.125
384,0.49979,1.2,1,0.30821,0.34986,0.69138,384,2.48231,0.26,0.13328,0.63307,5,2D1U,1.0,True,0.351,54,True,left,0.1666,0.2996,0.9581,0.6585,1.5581,2.2504,0.6922,A,0.025
385,0.49979,1.2,2,0.39151,0.44982,0.88297,385,2.55729,-0.34,-0.1666,0.3332,5,1D2U,1.0,True,0.32,53,True,left,-0.0833,1.7409,2.0937,0.3528,0.4237,0.8645,0.4408,A,0.025
386,0.49979,0.1,2,0.35819,0.4165,0.74969,386,2.37403,-0.3,-0.14994,0.34986,5,1D2U,1.0,True,0.398,54,True,left,0.1666,1.6952,2.112,0.4168,0.2116,1.0036,0.792,A,0.125
387,0.49979,0.1,2,0.43316,0.34986,0.53311,387,2.44899,0.26,0.13328,0.63307,5,2D1U,1.0,False,2.299,54,True,left,-0.0833,1.4326,2.1321,0.6996,0.416,0.9573,0.5412,A,0.125
388,0.49979,1.2,2,0.4165,0.38318,0.83299,388,2.48232,-0.3,-0.14994,0.34986,5,1D2U,1.0,True,0.441,54,True,left,0.1666,1.8436,2.2105,0.3669,0.3273,1.0187,0.6914,A,0.025
389,0.49979,1.2,2,0.36652,0.2499,0.88297,389,2.64891,0.3,0.14994,0.64973,5,2D1U,2.0,True,0.385,54,False,right,-0.0833,1.7203,2.3864,0.6662,0.4028,0.8451,0.4423,A,0.025
390,0.49979,0.1,2,0.30821,0.23324,0.84132,390,2.53229,0.3,0.14994,0.64973,5,2D1U,1.0,False,2.917,54,False,left,0.1666,1.7405,2.4571,0.7167,0.1659,0.9572,0.7912,A,0.125
391,0.49979,0.1,1,0.3332,0.34986,0.808,391,2.35737,-0.26,-0.13328,0.36652,5,1D2U,2.0,True,2.533,54,False,right,-0.0833,0.2714,0.763,0.4917,1.5555,2.0966,0.5411,A,0.125
392,0.49979,1.2,1,0.31654,0.38318,0.7247,392,2.5906,0.34,0.1666,0.66639,5,2D1U,2.0,False,3.008,54,False,right,0.1666,0.3108,1.0026,0.6918,1.6367,2.3282,0.6915,A,0.025
393,0.49979,1.2,2,0.20825,0.26656,0.88297,393,2.22409,-0.26,-0.13328,0.36652,5,1D2U,1.0,True,0.54,54,False,left,-0.0833,1.5601,1.9436,0.3836,0.2437,0.6856,0.442,A,0.025
394,0.49979,0.1,1,0.32487,0.37485,0.5581,394,2.14912,-0.22,-0.10829,0.39151,5,1D2U,2.0,True,0.266,54,False,right,0.1666,0.2653,0.7816,0.5164,1.199,1.9903,0.7913,A,0.125
395,0.49979,0.1,1,0.40817,0.29988,0.49979,395,2.39901,0.38,0.19159,0.69138,5,2D1U,1.0,True,0.579,54,False,left,-0.0833,0.3533,1.1694,0.8161,1.6524,2.1945,0.542,A,0.125
396,0.49979,1.2,2,0.4165,0.29988,0.56643,396,2.17411,-0.22,-0.10829,0.39151,5,1D2U,1.0,True,0.414,54,False,left,0.1666,1.5783,1.9864,0.4081,0.3281,1.0194,0.6913,A,0.025
397,0.49979,1.2,1,0.43316,0.32487,0.50812,397,2.45732,0.38,0.19159,0.69138,5,2D1U,1.0,True,0.256,54,False,left,-0.0833,0.4282,1.1442,0.716,1.6865,2.1285,0.4419,A,0.025
398,0.49979,0.1,2,0.28322,0.4165,0.65806,398,2.52396,0.34,0.1666,0.66639,5,2D1U,1.0,False,0.359,55,True,left,0.1666,1.5321,2.265,0.7329,0.1402,0.9318,0.7916,A,0.125
399,0.49979,0.1,1,0.31654,0.25823,0.4165,399,1.89923,-0.18,-0.09163,0.40817,5,1D2U,1.0,False,0.319,54,False,left,-0.0833,0.257,0.7901,0.533,1.1896,1.7314,0.5418,A,0.125
400,0.49979,1.2,2,0.34153,0.23324,0.45815,400,1.92422,-0.22,-0.10829,0.39151,5,1D2U,1.0,True,0.44,55,True,left,0.1666,1.3957,1.8036,0.4079,0.2531,0.9447,0.6916,A,0.025
401,0.49979,1.2,1,0.31654,0.42483,0.64973,401,2.58227,0.38,0.19159,0.69138,5,2D1U,1.0,True,0.284,56,True,left,-0.0833,0.3047,1.0211,0.7164,1.705,2.147,0.442,A,0.025
402,0.49979,0.1,2,0.37485,0.29155,0.4165,402,1.9742,-0.22,-0.10829,0.39151,5,1D2U,1.0,True,0.321,55,True,left,0.1666,1.3825,1.8408,0.4583,0.2332,1.0248,0.7915,A,0.125
403,0.49979,0.1,2,0.26656,0.24157,0.42483,403,2.12413,0.38,0.19159,0.69138,5,2D1U,2.0,True,0.293,56,True,right,-0.0833,1.155,1.9133,0.7582,0.2459,0.7878,0.542,A,0.125
404,0.49979,1.2,2,0.42483,0.25823,0.82466,404,2.41568,-0.18,-0.09163,0.40817,5,1D2U,1.0,True,0.297,56,True,left,0.1666,1.8409,2.2661,0.4251,0.3333,1.0235,0.6902,A,0.025
405,0.49979,1.2,2,0.3332,0.21658,0.52478,405,2.24074,0.34,0.1666,0.66639,5,2D1U,2.0,True,0.291,57,True,right,-0.0833,1.3232,2.0065,0.6833,0.3649,0.8059,0.441,A,0.025
406,0.49979,0.1,1,0.25823,0.39984,0.63307,406,2.45732,0.34,0.1666,0.66639,5,2D1U,1.0,True,0.25,57,True,left,0.1666,0.1955,0.9875,0.7919,1.4793,2.2705,0.7911,A,0.125
407,0.49979,0.1,2,0.30821,0.4165,0.59975,407,2.47398,0.3,0.14994,0.64973,5,2D1U,2.0,True,1.932,57,False,right,-0.0833,1.3725,2.0881,0.7156,0.289,0.8306,0.5415,A,0.125
408,0.49979,1.2,2,0.38318,0.44149,0.83299,408,2.56562,-0.18,-0.09163,0.40817,5,1D2U,1.0,True,0.319,56,True,left,0.1666,1.8085,2.2333,0.4248,0.2917,0.9831,0.6914,A,0.025
409,0.49979,1.2,2,0.44982,0.44149,0.51645,409,2.55728,0.3,0.14994,0.64973,5,2D1U,1.0,False,0.443,57,False,left,-0.0833,1.4323,2.0994,0.667,0.4821,0.9233,0.4412,A,0.025
410,0.49979,0.1,1,0.38318,0.34153,0.48313,410,2.37402,0.34,0.1666,0.66639,5,2D1U,2.0,False,1.664,58,True,right,0.1666,0.3229,1.1146,0.7917,1.4563,2.2477,0.7913,A,0.125
411,0.49979,0.1,2,0.38318,0.38318,0.62474,411,2.32405,-0.14,-0.06664,0.43316,5,1D2U,1.0,True,0.29,56,False,left,-0.0833,1.4727,1.9728,0.5001,0.3642,0.906,0.5419,A,0.125
412,0.49979,1.2,2,0.2499,0.24157,0.64973,412,2.33237,0.38,0.19159,0.69138,5,2D1U,1.0,False,2.392,58,False,left,0.1666,1.493,2.2019,0.7089,0.1607,0.8519,0.6912,A,0.025
413,0.49979,1.2,1,0.19992,0.29155,0.84132,413,2.54062,0.42,0.20825,0.70804,5,2D1U,1.0,True,0.225,58,False,left,-0.0833,0.1935,0.9268,0.7334,1.8016,2.2436,0.4419,A,0.025
414,0.49979,0.1,1,0.38318,0.32487,0.69138,414,2.33238,-0.14,-0.06664,0.43316,5,1D2U,1.0,False,0.344,56,False,left,0.1666,0.3218,0.8813,0.5595,1.4313,2.2226,0.7914,A,0.125
415,0.49979,0.1,1,0.19992,0.32487,0.86631,415,2.59893,0.42,0.20825,0.70804,5,2D1U,1.0,True,0.304,58,False,left,-0.0833,0.1403,0.9737,0.8333,1.8235,2.3652,0.5417,A,0.125
416,0.49979,1.2,1,0.44149,0.26656,0.48313,416,2.09914,-0.18,-0.09163,0.40817,5,1D2U,1.0,False,4.718,57,True,left,0.1666,0.429,0.8627,0.4337,1.2542,1.9454,0.6913,A,0.025
417,0.49979,1.2,2,0.23324,0.23324,0.45815,417,2.1158,0.38,0.19159,0.69138,5,2D1U,1.0,False,0.389,59,True,left,-0.0833,1.1604,1.8688,0.7085,0.2687,0.7101,0.4414,A,0.025
418,0.49979,0.1,1,0.2499,0.26656,0.56643,418,2.29072,0.42,0.20825,0.70804,5,2D1U,1.0,True,0.566,60,True,left,0.1666,0.1946,1.0275,0.8329,1.4518,2.245,0.7932,A,0.125
419,0.49979,0.1,1,0.29155,0.44149,0.88297,419,2.50731,-0.22,-0.10829,0.39151,5,1D2U,2.0,True,0.287,57,False,right,-0.0833,0.2313,0.7475,0.5162,1.614,2.1567,0.5426,A,0.125
420,0.49979,1.2,1,0.25823,0.32487,0.73303,420,2.52396,0.42,0.20825,0.70804,5,2D1U,1.0,True,0.415,60,True,left,0.1666,0.2492,0.9828,0.7336,1.6249,2.3152,0.6902,A,0.025
421,0.49979,1.2,2,0.27489,0.43316,0.46647,421,2.36569,0.38,0.19159,0.69138,5,2D1U,2.0,True,0.27,61,True,right,-0.0833,1.2104,1.919,0.7086,0.3107,0.7516,0.4409,A,0.025
422,0.49979,0.1,2,0.20825,0.24157,0.61641,422,1.95753,-0.22,-0.10829,0.39151,5,1D2U,1.0,True,0.504,57,False,left,0.1666,1.4187,1.8769,0.4582,0.0682,0.8603,0.7921,A,0.125
423,0.49979,0.1,1,0.27489,0.3332,0.77468,423,2.29073,-0.18,-0.09163,0.40817,5,1D2U,2.0,True,0.333,58,True,right,-0.0833,0.2152,0.748,0.5329,1.5067,2.049,0.5423,A,0.125
424,0.49979,1.2,2,0.23324,0.38318,0.77468,424,2.58227,0.38,0.19159,0.69138,5,2D1U,1.0,False,2.025,61,True,left,0.1666,1.598,2.3064,0.7084,0.1393,0.8307,0.6914,A,0.025
425,0.49979,1.2,1,0.29155,0.34153,0.51645,425,2.35736,0.42,0.20825,0.70804,5,2D1U,1.0,True,0.429,62,True,left,-0.0833,0.2822,1.0149,0.7327,1.5647,2.007,0.4423,A,0.025
426,0.49979,0.1,1,0.27489,0.19992,0.70804,426,2.09081,-0.18,-0.09163,0.40817,5,1D2U,1.0,False,1.567,58,True,left,0.1666,0.2198,0.7523,0.5325,1.3195,999.0,997.6805,A,0.125
427,0.49979,0.1,1,0.27489,0.34153,0.84132,427,2.34904,-0.22,-0.10829,0.39151,5,1D2U,2.0,True,2.333,59,True,right,-0.0833,0.2192,0.7352,0.516,1.5605,2.1029,0.5424,A,0.125
428,0.49979,1.2,2,0.43316,0.32487,0.45815,428,2.42401,0.42,0.20825,0.70804,5,2D1U,1.0,False,0.706,62,True,left,0.1666,1.4795,2.2049,0.7254,0.3381,1.0298,0.6917,A,0.025
429,0.49979,1.2,1,0.31654,0.24157,0.43316,429,1.88257,-0.22,-0.10829,0.39151,5,1D2U,1.0,False,0.504,59,True,left,-0.0833,0.3043,0.7201,0.4158,1.1872,1.6293,0.4421,A,0.025
430,0.49979,0.1,2,0.32487,0.26656,0.5581,430,2.01584,-0.26,-0.13328,0.36652,5,1D2U,1.0,True,0.444,59,False,left,0.1666,1.4732,1.9059,0.4327,0.1815,0.9732,0.7917,A,0.125
431,0.49979,0.1,2,0.31654,0.29988,0.65806,431,2.5073,0.46,0.23324,0.73303,5,2D1U,1.0,False,2.571,62,False,left,-0.0833,1.4399,2.2399,0.8,0.2983,0.8398,0.5415,A,0.125
432,0.49979,1.2,2,0.23324,0.30821,0.56643,432,2.35736,0.5,0.2499,0.74969,5,2D1U,1.0,False,0.494,62,False,left,0.1666,1.3936,2.1602,0.7666,0.1436,0.8353,0.6917,A,0.025
433,0.49979,1.2,2,0.39151,0.20825,0.53311,433,1.99918,-0.26,-0.13328,0.36652,5,1D2U,1.0,True,0.38,59,False,left,-0.0833,1.3908,1.7743,0.3836,0.4241,0.8653,0.4412,A,0.025
434,0.49979,0.1,1,0.32487,0.31654,0.49979,434,2.0325,-0.22,-0.10829,0.39151,5,1D2U,1.0,False,0.429,60,True,left,0.1666,0.2642,0.781,0.5168,1.1394,1.9311,0.7916,A,0.125
435,0.49979,0.1,2,0.29155,0.32487,0.82466,435,2.70722,0.54,0.26656,0.76635,5,2D1U,2.0,True,0.314,62,False,right,-0.0833,1.5818,2.4151,0.8332,0.2741,0.8154,0.5414,A,0.125
436,0.49979,1.2,1,0.28322,0.20825,0.65806,436,2.41567,0.54,0.26656,0.76635,5,2D1U,1.0,True,0.473,62,False,left,0.1666,0.2741,1.066,0.7919,1.6333,2.3244,0.6911,A,0.025
437,0.49979,1.2,2,0.39151,0.37485,0.56643,437,2.58227,0.5,0.2499,0.74969,5,2D1U,2.0,True,0.279,63,True,right,-0.0833,1.4208,2.1876,0.7668,0.4206,0.8624,0.4418,A,0.025
438,0.49979,0.1,1,0.24157,0.40817,0.87464,438,2.39069,-0.26,-0.13328,0.36652,5,1D2U,2.0,True,1.697,61,True,right,0.1666,0.1824,0.6737,0.4913,1.4071,2.1983,0.7912,A,0.125
439,0.49979,0.1,2,0.44149,0.34986,0.69971,439,2.35737,-0.26,-0.13328,0.36652,5,1D2U,1.0,True,0.378,61,True,left,-0.0833,1.607,2.0401,0.4332,0.4227,0.9645,0.5417,A,0.125
440,0.49979,1.2,2,0.27489,0.35819,0.8913,440,2.77386,0.5,0.2499,0.74969,5,2D1U,1.0,False,3.484,63,True,left,0.1666,1.754,2.5212,0.7672,0.1806,0.8709,0.6903,A,0.025
441,0.49979,1.2,2,0.25823,0.21658,0.59142,441,2.33237,0.54,0.26656,0.76635,5,2D1U,2.0,True,0.775,64,True,right,-0.0833,1.3188,2.1028,0.784,0.2939,0.7356,0.4417,A,0.025
442,0.49979,0.1,2,0.40817,0.2499,0.76635,442,2.31572,-0.22,-0.10829,0.39151,5,1D2U,1.0,True,0.393,62,True,left,0.1666,1.764,2.2231,0.4591,0.2655,1.0562,0.7907,A,0.125
443,0.49979,0.1,2,0.21658,0.28322,0.44149,443,1.83259,-0.22,-0.10829,0.39151,5,1D2U,1.0,True,0.247,62,True,left,-0.0833,1.1273,1.5851,0.4579,0.2026,0.7433,0.5406,A,0.125
444,0.49979,1.2,2,0.39151,0.27489,0.81633,444,2.39069,-0.18,-0.09163,0.40817,5,1D2U,1.0,True,0.366,62,False,left,0.1666,1.8001,2.2255,0.4253,0.3004,0.9915,0.691,A,0.025
445,0.49979,1.2,1,0.25823,0.24157,0.57476,445,2.3407,0.54,0.26656,0.76635,5,2D1U,1.0,True,0.347,64,True,left,-0.0833,0.2483,1.0399,0.7915,1.6489,2.0898,0.4409,A,0.025
446,0.49979,0.1,1,0.42483,0.36652,0.64973,446,2.34904,-0.18,-0.09163,0.40817,5,1D2U,2.0,True,0.328,62,False,right,0.1666,0.3641,0.8986,0.5345,1.4062,2.1977,0.7914,A,0.125
447,0.49979,0.1,1,0.28322,0.44149,0.49979,447,2.47398,0.5,0.2499,0.74969,5,2D1U,1.0,True,0.325,65,True,left,-0.0833,0.2271,1.1021,0.8749,1.5857,2.127,0.5412,A,0.125
448,0.49979,1.2,2,0.27489,0.39151,0.88297,448,2.79885,0.5,0.2499,0.74969,5,2D1U,1.0,False,0.392,65,True,left,0.1666,1.7484,2.515,0.7666,0.1818,0.8737,0.6919,A,0.025
449,0.49979,1.2,2,0.24157,0.43316,0.87464,449,2.81551,0.54,0.26656,0.76635,5,2D1U,2.0,True,0.321,66,True,right,-0.0833,1.5861,2.3694,0.7834,0.2773,0.7193,0.442,A,0.025
450,0.49979,0.1,1,0.37485,0.43316,0.40817,450,2.14913,-0.14,-0.06664,0.43316,5,1D2U,2.0,True,0.229,62,False,right,0.1666,0.3152,0.8728,0.5576,1.1394,1.931,0.7916,A,0.125
451,0.49979,0.1,2,0.39151,0.44149,0.60808,451,2.37403,-0.14,-0.06664,0.43316,5,1D2U,1.0,True,2.011,62,False,left,-0.0833,1.4671,1.9665,0.4994,0.3753,0.9165,0.5412,A,0.125
452,0.49979,1.2,1,0.39151,0.21658,0.69971,452,2.25741,-0.1,-0.04998,0.44982,5,1D2U,1.0,False,0.572,62,False,left,0.1666,0.3845,0.859,0.4745,1.4671,2.1598,0.6926,A,0.025
453,0.49979,1.2,2,0.26656,0.37485,0.63307,453,2.54062,0.54,0.26656,0.76635,5,2D1U,2.0,True,0.259,66,True,right,-0.0833,1.3676,2.151,0.7834,0.3008,0.7422,0.4414,A,0.025
454,0.49979,0.1,2,0.25823,0.44149,0.62474,454,2.57394,0.5,0.2499,0.74969,5,2D1U,2.0,True,0.215,67,True,right,0.1666,1.4716,2.2879,0.8162,0.1133,0.9044,0.7911,A,0.125
455,0.49979,0.1,1,0.23324,0.23324,0.69138,455,2.40734,0.5,0.2499,0.74969,5,2D1U,1.0,True,0.411,67,True,left,-0.0833,0.1713,1.0465,0.8752,1.7216,2.2636,0.5419,A,0.125
456,0.49979,1.2,1,0.29988,0.24157,0.57476,456,2.04916,-0.14,-0.06664,0.43316,5,1D2U,2.0,True,0.419,63,True,right,0.1666,0.2931,0.751,0.4579,1.2352,1.9266,0.6915,A,0.025
457,0.49979,1.2,2,0.24157,0.39151,0.82466,457,2.39069,-0.14,-0.06664,0.43316,5,1D2U,1.0,True,0.434,63,True,left,-0.0833,1.5349,1.985,0.4501,0.2768,0.7181,0.4413,A,0.025
458,0.49979,0.1,1,0.31654,0.29988,0.87464,458,2.72388,0.46,0.23324,0.73303,5,2D1U,1.0,True,0.433,67,False,left,0.1666,0.2608,1.1192,0.8584,1.8527,2.6449,0.7922,A,0.125
459,0.49979,0.1,2,0.42483,0.32487,0.89963,459,2.88215,0.46,0.23324,0.73303,5,2D1U,2.0,True,0.408,67,False,right,-0.0833,1.7939,2.5936,0.7997,0.4105,0.9519,0.5414,A,0.125
460,0.49979,1.2,1,0.23324,0.44149,0.39984,460,2.02418,-0.1,-0.04998,0.44982,5,1D2U,1.0,False,0.353,64,True,left,0.1666,0.2236,0.6988,0.4752,1.0073,1.699,0.6918,A,0.025
461,0.49979,1.2,1,0.34986,0.30821,0.63307,461,2.49897,0.42,0.20825,0.70804,5,2D1U,1.0,True,0.416,67,False,left,-0.0833,0.3405,1.0739,0.7334,1.742,2.1829,0.4409,A,0.025
462,0.49979,0.1,2,0.32487,0.35819,0.73303,462,2.34904,-0.14,-0.06664,0.43316,5,1D2U,1.0,True,0.391,65,True,left,0.1666,1.652,2.1513,0.4992,0.1849,0.9775,0.7926,A,0.125
463,0.49979,0.1,1,0.34986,0.39151,0.4748,463,2.424,0.42,0.20825,0.70804,5,2D1U,1.0,True,0.371,67,False,left,-0.0833,0.2893,1.123,0.8337,1.5812,2.1228,0.5416,A,0.125
464,0.49979,1.2,2,0.25823,0.3332,0.85798,464,2.38236,-0.14,-0.06664,0.43316,5,1D2U,1.0,True,0.374,65,True,left,0.1666,1.7072,2.157,0.4498,0.166,0.8569,0.6909,A,0.025
465,0.49979,1.2,2,0.31654,0.38318,0.45815,465,2.10748,-0.1,-0.04998,0.44982,5,1D2U,2.0,False,0.917,66,True,right,-0.0833,1.239,1.7075,0.4686,0.3485,0.7895,0.4411,A,0.025
466,0.49979,0.1,1,0.21658,0.32487,0.76635,466,2.49897,0.38,0.19159,0.69138,5,2D1U,1.0,True,0.389,67,False,left,0.1666,0.1561,0.9728,0.8167,1.5983,2.3897,0.7915,A,0.125
467,0.49979,0.1,1,0.28322,0.21658,0.46647,467,1.89922,-0.14,-0.06664,0.43316,5,1D2U,1.0,False,0.442,67,True,left,-0.0833,0.2211,0.7794,0.5583,1.2292,1.7711,0.5418,A,0.125
468,0.49979,1.2,1,0.2499,0.21658,0.51645,468,2.1741,0.38,0.19159,0.69138,5,2D1U,1.0,True,0.502,67,False,left,0.1666,0.2403,0.9582,0.7178,1.3835,2.0747,0.6912,A,0.025
469,0.49979,1.2,1,0.36652,0.20825,0.69971,469,2.18244,-0.18,-0.09163,0.40817,5,1D2U,1.0,False,0.417,67,False,left,-0.0833,0.3562,0.7898,0.4336,1.5228,1.9651,0.4423,A,0.025
470,0.49979,0.1,2,0.32487,0.28322,0.71637,470,2.49064,0.34,0.1666,0.66639,5,2D1U,1.0,False,0.375,67,False,left,0.1666,1.6297,2.3634,0.7337,0.1791,0.9716,0.7925,A,0.125
471,0.49979,0.1,2,0.34153,0.30821,0.44149,471,1.98253,-0.22,-0.10829,0.39151,5,1D2U,1.0,True,0.413,67,False,left,-0.0833,1.2513,1.7097,0.4584,0.3256,0.8686,0.5431,A,0.125
472,0.49979,1.2,1,0.43316,0.36652,0.42483,472,2.11581,-0.22,-0.10829,0.39151,5,1D2U,2.0,True,0.34,67,False,right,0.1666,0.4277,0.8442,0.4165,1.1776,1.8694,0.6918,A,0.025
473,0.49979,1.2,2,0.40817,0.40817,0.74969,473,2.7572,0.38,0.19159,0.69138,5,2D1U,1.0,False,0.307,68,True,left,-0.0833,1.6232,2.3313,0.7081,0.4396,0.8809,0.4413,A,0.025
474,0.49979,0.1,1,0.36652,0.28322,0.52478,474,2.08248,-0.18,-0.09163,0.40817,5,1D2U,1.0,False,0.738,68,True,left,0.1666,0.3076,0.8409,0.5333,1.2249,2.016,0.7911,A,0.125
475,0.49979,0.1,1,0.34153,0.4165,0.59975,475,2.56561,0.42,0.20825,0.70804,5,2D1U,1.0,True,0.346,68,False,left,-0.0833,0.2848,1.1186,0.8338,1.701,2.2442,0.5432,A,0.125
476,0.49979,1.2,1,0.39984,0.36652,0.69138,476,2.66557,0.42,0.20825,0.70804,5,2D1U,1.0,True,0.403,68,False,left,0.1666,0.3883,1.1208,0.7325,1.7216,2.4131,0.6915,A,0.025
477,0.49979,1.2,1,0.39984,0.25823,0.79134,477,2.64058,0.38,0.19159,0.69138,5,2D1U,1.0,True,0.34,69,True,left,-0.0833,0.3878,1.1044,0.7166,1.9287,2.3709,0.4422,A,0.025
478,0.49979,0.1,2,0.44149,0.39151,0.75802,478,2.48232,-0.22,-0.10829,0.39151,5,1D2U,1.0,True,0.317,69,True,left,0.1666,1.7888,2.2473,0.4586,0.2969,1.0885,0.7916,A,0.125
479,0.49979,0.1,2,0.43316,0.21658,0.87464,479,2.41568,-0.22,-0.10829,0.39151,5,1D2U,1.0,True,0.36,69,True,left,-0.0833,1.7725,2.2306,0.4581,0.4137,0.9555,0.5418,A,0.125
480,0.49979,1.2,2,0.31654,0.44982,0.67472,480,2.34904,-0.18,-0.09163,0.40817,5,1D2U,1.0,True,0.32,70,True,left,0.1666,1.5776,2.0027,0.4252,0.2199,0.9118,0.6918,A,0.025
481,0.49979,1.2,2,0.4165,0.39151,0.65806,481,2.65724,0.38,0.19159,0.69138,5,2D1U,2.0,True,0.36,69,True,right,-0.0833,1.5449,2.2532,0.7083,0.453,0.8943,0.4413,A,0.025
482,0.49979,0.1,2,0.28322,0.30821,0.84132,482,2.34071,-0.18,-0.09163,0.40817,5,1D2U,1.0,True,0.4,70,True,left,0.1666,1.7186,2.1933,0.4747,0.1434,0.9352,0.7918,A,0.125
483,0.49979,0.1,2,0.37485,0.35819,0.65806,483,2.55728,0.34,0.1666,0.66639,5,2D1U,1.0,False,0.401,69,False,left,-0.0833,1.4955,2.2294,0.7338,0.3537,0.8963,0.5426,A,0.125
484,0.49979,1.2,2,0.30821,0.35819,0.69971,484,2.55728,0.38,0.19159,0.69138,5,2D1U,1.0,False,0.466,70,True,left,0.1666,1.5966,2.3051,0.7084,0.2134,0.9058,0.6923,A,0.025
485,0.49979,1.2,2,0.35819,0.31654,0.50812,485,2.1158,-0.14,-0.06664,0.43316,5,1D2U,2.0,False,0.503,70,False,right,-0.0833,1.3316,1.7811,0.4495,0.3899,0.8314,0.4415,A,0.025
486,0.49979,0.1,2,0.36652,0.31654,0.83299,486,2.72388,0.42,0.20825,0.70804,5,2D1U,2.0,True,0.208,70,False,right,0.1666,1.7887,2.5637,0.7751,0.2211,1.0137,0.7926,A,0.125
487,0.49979,0.1,2,0.40817,0.35819,0.63307,487,2.60726,0.42,0.20825,0.70804,5,2D1U,1.0,False,0.426,70,False,left,-0.0833,1.5068,2.2808,0.774,0.39,0.9317,0.5417,A,0.125
488,0.49979,1.2,1,0.31654,0.44149,0.61641,488,2.2824,-0.18,-0.09163,0.40817,5,1D2U,2.0,True,0.367,71,True,right,0.1666,0.3072,0.7399,0.4327,1.2658,1.9575,0.6916,A,0.025
489,0.49979,1.2,2,0.29155,0.29988,0.50812,489,2.33237,0.46,0.23324,0.73303,5,2D1U,1.0,False,0.442,70,False,left,-0.0833,1.2647,2.0141,0.7495,0.3226,0.765,0.4424,A,0.025
490,0.49979,0.1,1,0.42483,0.35819,0.76635,490,2.79885,0.5,0.2499,0.74969,5,2D1U,1.0,True,0.404,70,False,left,0.1666,0.3641,1.2385,0.8745,1.8642,2.656,0.7918,A,0.125
491,0.49979,0.1,1,0.28322,0.42483,0.62474,491,2.58227,0.5,0.2499,0.74969,5,2D1U,1.0,True,0.429,70,False,left,-0.0833,0.2278,1.1027,0.8749,1.7108,2.2531,0.5422,A,0.125
492,0.49979,1.2,1,0.29155,0.23324,0.48313,492,1.91588,-0.18,-0.09163,0.40817,5,1D2U,2.0,True,0.35,71,True,right,0.1666,0.281,0.7142,0.4332,1.1059,1.7977,0.6919,A,0.025
493,0.49979,1.2,1,0.19992,0.39151,0.88297,493,2.70722,0.46,0.23324,0.73303,5,2D1U,1.0,True,0.289,71,True,left,-0.0833,0.1929,0.9517,0.7588,1.8689,2.3106,0.4417,A,0.025
494,0.49979,0.1,1,0.21658,0.25823,0.89963,494,2.30739,-0.14,-0.06664,0.43316,5,1D2U,2.0,True,0.504,72,True,right,0.1666,0.1548,0.7125,0.5578,1.471,2.2621,0.7912,A,0.125
495,0.49979,0.1,1,0.36652,0.3332,0.76635,495,2.39902,-0.14,-0.06664,0.43316,5,1D2U,2.0,True,0.392,72,True,right,-0.0833,0.3054,0.8635,0.5581,1.6132,2.1548,0.5416,A,0.125
496,0.49979,1.2,1,0.24157,0.44149,0.53311,496,2.44899,0.46,0.23324,0.73303,5,2D1U,1.0,True,0.409,71,True,left,0.1666,0.2307,0.99,0.7593,1.4317,2.1238,0.6921,A,0.025
497,0.49979,1.2,1,0.32487,0.32487,0.44149,497,2.04084,-0.1,-0.04998,0.44982,5,1D2U,1.0,False,0.35,72,False,left,-0.0833,0.3196,0.7943,0.4747,1.2694,1.7111,0.4417,A,0.025
498,0.49979,0.1,1,0.29155,0.2499,0.64973,498,2.39901,0.42,0.20825,0.70804,5,2D1U,1.0,True,0.476,71,False,left,0.1666,0.2326,1.0659,0.8333,1.5733,2.3656,0.7923,A,0.125
499,0.49979,0.1,1,0.31654,0.24157,0.76635,499,2.53229,0.42,0.20825,0.70804,5,2D1U,1.0,True,0.412,71,False,left,-0.0833,0.2549,1.0886,0.8337,1.8387,2.3806,0.5418,A,0.125
500,0.49979,1.2,1,0.32487,0.28322,0.87464,500,2.41568,-0.14,-0.06664,0.43316,5,1D2U,1.0,False,0.431,73,True,left,0.1666,0.3198,0.7785,0.4587,1.5613,2.2542,0.6929,A,0.025
501,0.49979,1.2,2,0.29155,0.24157,0.83299,501,2.55728,0.38,0.19159,0.69138,5,2D1U,2.0,True,0.321,71,False,right,-0.0833,1.587,2.2955,0.7086,0.3203,0.7617,0.4414,A,0.025
502,0.49979,0.1,1,0.36652,0.40817,0.88297,502,2.56562,-0.18,-0.09163,0.40817,5,1D2U,1.0,False,0.232,73,False,left,0.1666,0.3048,0.8384,0.5336,1.5794,2.3711,0.7917,A,0.125
503,0.49979,0.1,1,0.23324,0.20825,0.60808,503,1.94087,-0.22,-0.10829,0.39151,5,1D2U,2.0,True,0.456,73,False,right,-0.0833,0.1722,0.6882,0.516,1.2803,1.8218,0.5415,A,0.125
504,0.49979,1.2,1,0.32487,0.19992,0.45815,504,1.87424,-0.22,-0.10829,0.39151,5,1D2U,1.0,False,0.455,73,False,left,0.1666,0.3148,0.7318,0.417,1.0983,1.79,0.6917,A,0.025
505,0.49979,1.2,1,0.4165,0.4165,0.79134,505,2.81551,0.38,0.19159,0.69138,5,2D1U,1.0,True,0.357,71,False,left,-0.0833,0.4067,1.1226,0.716,1.9474,2.3893,0.4419,A,0.025
506,0.49979,0.1,1,0.39984,0.39984,0.4748,506,2.44066,0.34,0.1666,0.66639,5,2D1U,1.0,True,0.341,71,False,left,0.1666,0.3387,1.1304,0.7917,1.4639,2.255,0.7911,A,0.125
507,0.49979,0.1,2,0.2499,0.30821,0.49146,507,1.91588,-0.26,-0.13328,0.36652,5,1D2U,1.0,True,0.286,73,False,left,-0.0833,1.2101,1.6436,0.4336,0.2355,0.7768,0.5413,A,0.125
508,0.49979,1.2,2,0.32487,0.44982,0.59142,508,2.53229,0.34,0.1666,0.66639,5,2D1U,1.0,False,0.408,71,False,left,0.1666,1.5118,2.1952,0.6834,0.2364,0.9279,0.6915,A,0.025
509,0.49979,1.2,1,0.26656,0.29155,0.74969,509,2.17411,-0.26,-0.13328,0.36652,5,1D2U,2.0,True,0.316,73,False,right,-0.0833,0.2609,0.6524,0.3915,1.4357,1.8776,0.4419,A,0.025
510,0.49979,0.1,2,0.27489,0.23324,0.69138,510,2.39068,0.38,0.19159,0.69138,5,2D1U,2.0,True,1.737,72,True,right,0.1666,1.5609,2.3194,0.7585,0.1358,0.9276,0.7917,A,0.125
511,0.49979,0.1,2,0.39151,0.35819,0.44982,511,2.39069,0.38,0.19159,0.69138,5,2D1U,1.0,False,0.425,72,True,left,-0.0833,1.3052,2.0635,0.7583,0.3721,0.9133,0.5412,A,0.125
512,0.49979,1.2,1,0.25823,0.38318,0.64973,512,2.49897,0.42,0.20825,0.70804,5,2D1U,1.0,True,0.353,72,False,left,0.1666,0.2472,0.9805,0.7333,1.538,2.2301,0.6921,A,0.025
513,0.49979,1.2,1,0.25823,0.42483,0.54144,513,2.1158,-0.22,-0.10829,0.39151,5,1D2U,2.0,True,0.259,74,True,right,-0.0833,0.248,0.6649,0.4169,1.2401,1.6815,0.4415,A,0.025
514,0.49979,0.1,2,0.34986,0.44982,0.5581,514,2.24908,-0.22,-0.10829,0.39151,5,1D2U,1.0,True,0.575,74,True,left,0.1666,1.5022,1.9605,0.4583,0.2097,1.0016,0.7918,A,0.125
515,0.49979,0.1,2,0.30821,0.21658,0.4748,515,1.90755,-0.18,-0.09163,0.40817,5,1D2U,1.0,True,0.355,74,False,left,-0.0833,1.2511,1.7258,0.4747,0.2927,0.8346,0.5419,A,0.125
516,0.49979,1.2,2,0.43316,0.31654,0.85798,516,2.81551,0.42,0.20825,0.70804,5,2D1U,1.0,False,0.528,72,False,left,0.1666,1.8796,2.6036,0.7241,0.3371,1.029,0.6918,A,0.025
517,0.49979,1.2,1,0.38318,0.39151,0.46647,517,2.14912,-0.18,-0.09163,0.40817,5,1D2U,1.0,False,0.106,74,False,left,-0.0833,0.3761,0.8095,0.4334,1.3098,1.7517,0.4419,A,0.025
518,0.49979,0.1,1,0.3332,0.43316,0.82466,518,2.82384,0.46,0.23324,0.73303,5,2D1U,1.0,True,0.416,72,False,left,0.1666,0.2758,1.1342,0.8584,1.8184,2.6092,0.7909,A,0.125
519,0.49979,0.1,1,0.24157,0.23324,0.82466,519,2.19077,-0.22,-0.10829,0.39151,5,1D2U,2.0,True,0.457,75,True,right,-0.0833,0.1791,0.6957,0.5166,1.5035,2.0454,0.5418,A,0.125
520,0.49979,1.2,1,0.27489,0.34986,0.88297,520,2.39902,-0.22,-0.10829,0.39151,5,1D2U,1.0,False,0.438,75,True,left,0.1666,0.2698,0.6859,0.4161,1.4782,2.1692,0.691,A,0.025
521,0.49979,1.2,1,0.20825,0.31654,0.7247,521,2.1158,-0.26,-0.13328,0.36652,5,1D2U,2.0,True,0.322,75,False,right,-0.0833,0.2021,0.5941,0.392,1.3526,1.7952,0.4426,A,0.025
522,0.49979,0.1,2,0.2499,0.43316,0.56643,522,2.48231,0.46,0.23324,0.73303,5,2D1U,2.0,True,0.298,72,False,right,0.1666,1.4102,2.2095,0.7993,0.11,0.9015,0.7916,A,0.125
523,0.49979,0.1,2,0.29988,0.42483,0.86631,523,2.45733,-0.26,-0.13328,0.36652,5,1D2U,1.0,True,0.381,75,False,left,-0.0833,1.6345,2.0673,0.4327,0.2845,0.8257,0.5412,A,0.125
524,0.49979,1.2,1,0.29155,0.22491,0.79967,524,2.52396,0.42,0.20825,0.70804,5,2D1U,1.0,True,0.391,73,True,left,0.1666,0.282,1.0151,0.7331,1.7232,2.4157,0.6925,A,0.025
525,0.49979,1.2,2,0.37485,0.25823,0.49979,525,2.02417,-0.22,-0.10829,0.39151,5,1D2U,1.0,True,0.352,76,True,left,-0.0833,1.3381,1.7464,0.4083,0.405,0.8464,0.4414,A,0.025
526,0.49979,0.1,2,0.44149,0.32487,0.4748,526,2.44899,0.42,0.20825,0.70804,5,2D1U,1.0,False,0.387,73,True,left,0.1666,1.5034,2.2788,0.7754,0.2949,1.0869,0.792,A,0.125
527,0.49979,0.1,1,0.39984,0.35819,0.58309,527,2.57394,0.46,0.23324,0.73303,5,2D1U,1.0,True,0.388,74,True,left,-0.0833,0.3394,1.1978,0.8585,1.7646,2.3062,0.5417,A,0.125
528,0.49979,1.2,2,0.29988,0.2499,0.50812,528,1.9492,-0.22,-0.10829,0.39151,5,1D2U,1.0,True,0.399,76,True,left,0.1666,1.3961,1.8038,0.4077,0.2035,0.8959,0.6925,A,0.025
529,0.49979,1.2,1,0.31654,0.28322,0.65806,529,2.49064,0.46,0.23324,0.73303,5,2D1U,1.0,True,0.397,74,True,left,-0.0833,0.3042,1.0629,0.7587,1.7545,2.196,0.4415,A,0.025
530,0.49979,0.1,2,0.34153,0.27489,0.52478,530,2.04916,-0.18,-0.09163,0.40817,5,1D2U,1.0,True,0.346,76,False,left,0.1666,1.4601,1.935,0.4749,0.2018,0.9936,0.7917,A,0.125
531,0.49979,0.1,1,0.3332,0.29988,0.52478,531,2.06582,-0.18,-0.09163,0.40817,5,1D2U,1.0,False,0.385,76,False,left,-0.0833,0.2765,0.8104,0.5338,1.3186,1.8601,0.5414,A,0.125
532,0.49979,1.2,2,0.35819,0.29155,0.46647,532,2.32404,0.42,0.20825,0.70804,5,2D1U,1.0,False,0.257,75,True,left,0.1666,1.4152,2.1408,0.7255,0.2654,0.9572,0.6917,A,0.025
533,0.49979,1.2,2,0.29988,0.42483,0.65806,533,2.27407,-0.22,-0.10829,0.39151,5,1D2U,1.0,True,0.265,77,True,left,-0.0833,1.4206,1.8286,0.408,0.328,0.7706,0.4426,A,0.025
534,0.49979,0.1,1,0.4165,0.25823,0.4748,534,2.04083,-0.22,-0.10829,0.39151,5,1D2U,2.0,True,0.291,77,True,right,0.1666,0.3546,0.8714,0.5167,1.2052,1.9966,0.7914,A,0.125
535,0.49979,0.1,1,0.43316,0.4165,0.73303,535,2.81551,0.46,0.23324,0.73303,5,2D1U,1.0,True,0.389,76,True,left,-0.0833,0.3763,1.2348,0.8585,1.951,2.4932,0.5422,A,0.125
536,0.49979,1.2,2,0.3332,0.24157,0.42483,536,2.23242,0.46,0.23324,0.73303,5,2D1U,1.0,False,0.35,76,True,left,0.1666,1.3542,2.1032,0.749,0.2454,0.937,0.6916,A,0.025
537,0.49979,1.2,2,0.34986,0.31654,0.84965,537,2.76553,0.5,0.2499,0.74969,5,2D1U,2.0,True,0.49,76,False,right,-0.0833,1.6667,2.4336,0.7669,0.3835,0.8255,0.442,A,0.025
538,0.49979,0.1,2,0.39984,0.28322,0.59142,538,2.18244,-0.18,-0.09163,0.40817,5,1D2U,1.0,True,0.345,78,True,left,0.1666,1.5802,2.0545,0.4743,0.2553,1.0473,0.7919,A,0.125
539,0.49979,0.1,2,0.31654,0.35819,0.69138,539,2.27407,-0.18,-0.09163,0.40817,5,1D2U,1.0,True,0.237,78,True,left,-0.0833,1.4707,1.9457,0.4751,0.296,0.8377,0.5417,A,0.125
540,0.49979,1.2,2,0.20825,0.40817,0.75802,540,2.30739,-0.14,-0.06664,0.43316,5,1D2U,1.0,True,0.362,78,False,left,0.1666,1.5538,2.0037,0.4499,0.1122,0.8039,0.6917,A,0.025
541,0.49979,1.2,1,0.2499,0.43316,0.53311,541,2.46565,0.5,0.2499,0.74969,5,2D1U,1.0,True,0.455,76,False,left,-0.0833,0.2387,1.0132,0.7745,1.5796,2.0221,0.4425,A,0.025
542,0.49979,0.1,2,0.34986,0.39151,0.50812,542,2.48231,0.46,0.23324,0.73303,5,2D1U,2.0,True,0.382,77,True,right,0.1666,1.4448,2.2459,0.8011,0.2033,0.9951,0.7918,A,0.125
543,0.49979,0.1,2,0.3332,0.29155,0.53311,543,2.09081,-0.14,-0.06664,0.43316,5,1D2U,1.0,True,0.4,78,False,left,-0.0833,1.3361,1.8354,0.4993,0.3191,0.8609,0.5418,A,0.125
544,0.49979,1.2,1,0.30821,0.22491,0.4165,544,1.89923,-0.1,-0.04998,0.44982,5,1D2U,2.0,True,1.631,78,False,right,0.1666,0.3021,0.7774,0.4753,1.1024,1.794,0.6915,A,0.025
545,0.49979,1.2,1,0.36652,0.22491,0.71637,545,2.25741,-0.1,-0.04998,0.44982,5,1D2U,1.0,False,0.405,78,False,left,-0.0833,0.3598,0.8341,0.4743,1.5843,2.026,0.4417,A,0.025
546,0.49979,0.1,2,0.27489,0.24157,0.85798,546,2.60726,0.46,0.23324,0.73303,5,2D1U,2.0,True,1.48,77,True,right,0.1666,1.7254,2.5251,0.7996,0.1335,0.9253,0.7918,A,0.125
547,0.49979,0.1,1,0.28322,0.3332,0.5581,547,2.10747,-0.14,-0.06664,0.43316,5,1D2U,1.0,False,0.638,79,True,left,-0.0833,0.2224,0.7809,0.5586,1.3224,1.8644,0.542,A,0.125
548,0.49979,1.2,2,0.32487,0.34986,0.81633,548,2.39902,-0.18,-0.09163,0.40817,5,1D2U,1.0,True,0.493,79,False,left,0.1666,1.7316,2.1567,0.425,0.2321,0.9232,0.6912,A,0.025
549,0.49979,1.2,1,0.36652,0.42483,0.49146,549,2.49064,0.42,0.20825,0.70804,5,2D1U,1.0,True,0.325,77,False,left,-0.0833,0.3549,1.0884,0.7335,1.6134,2.0553,0.4419,A,0.025
550,0.49979,0.1,2,0.25823,0.35819,0.75802,550,2.58227,0.42,0.20825,0.70804,5,2D1U,2.0,True,2.307,77,False,right,0.1666,1.6039,2.3796,0.7757,0.1124,0.9047,0.7923,A,0.125
551,0.49979,0.1,2,0.26656,0.44149,0.78301,551,2.68223,0.38,0.19159,0.69138,5,2D1U,2.0,True,0.398,77,False,right,-0.0833,1.515,2.2732,0.7582,0.2483,0.7899,0.5416,A,0.125
552,0.49979,1.2,1,0.42483,0.43316,0.89963,552,2.66558,-0.18,-0.09163,0.40817,5,1D2U,2.0,True,0.329,79,False,right,0.1666,0.4152,0.8481,0.4329,1.6563,2.3474,0.6911,A,0.025
553,0.49979,1.2,1,0.43316,0.44982,0.54977,553,2.3657,-0.14,-0.06664,0.43316,5,1D2U,1.0,False,0.37,80,True,left,-0.0833,0.4251,0.8834,0.4584,1.4668,1.9079,0.4411,A,0.025
554,0.49979,0.1,2,0.28322,0.27489,0.78301,554,2.53229,0.38,0.19159,0.69138,5,2D1U,2.0,True,2.983,77,False,right,0.1666,1.6596,2.4182,0.7585,0.1427,0.9347,0.792,A,0.125
555,0.49979,0.1,1,0.43316,0.21658,0.50812,555,2.06582,-0.18,-0.09163,0.40817,5,1D2U,1.0,False,2.212,81,True,left,-0.0833,0.3766,0.9105,0.5339,1.4024,1.9439,0.5415,A,0.125
556,0.49979,1.2,2,0.39151,0.35819,0.44149,556,2.35737,0.34,0.1666,0.66639,5,2D1U,1.0,False,0.569,77,False,left,0.1666,1.422,2.1049,0.6829,0.2975,0.9889,0.6914,A,0.025
557,0.49979,1.2,1,0.39984,0.44149,0.42483,557,2.15746,-0.22,-0.10829,0.39151,5,1D2U,1.0,False,2.095,81,False,left,-0.0833,0.3882,0.8046,0.4164,1.263,1.7052,0.4421,A,0.025
558,0.49979,0.1,1,0.27489,0.20825,0.54144,558,2.21575,0.38,0.19159,0.69138,5,2D1U,1.0,True,0.415,78,True,left,0.1666,0.2143,1.031,0.8167,1.4311,2.2227,0.7917,A,0.125
559,0.49979,0.1,2,0.44149,0.38318,0.56643,559,2.58227,0.38,0.19159,0.69138,5,2D1U,2.0,True,3.979,78,True,right,-0.0833,1.4701,2.229,0.7588,0.4202,0.9616,0.5415,A,0.125
560,0.49979,1.2,2,0.35819,0.40817,0.82466,560,2.45733,-0.26,-0.13328,0.36652,5,1D2U,1.0,True,0.414,81,False,left,0.1666,1.7775,2.1602,0.3827,0.2705,0.9602,0.6897,A,0.025
561,0.49979,1.2,2,0.2499,0.29988,0.59142,561,2.00751,-0.26,-0.13328,0.36652,5,1D2U,1.0,True,0.446,81,False,left,-0.0833,1.3046,1.6879,0.3833,0.279,0.7211,0.4421,A,0.025
562,0.49979,0.1,1,0.29988,0.39151,0.58309,562,2.44066,0.34,0.1666,0.66639,5,2D1U,1.0,True,0.982,79,True,left,0.1666,0.238,1.0295,0.7915,1.4716,2.2632,0.7917,A,0.125
563,0.49979,0.1,2,0.31654,0.36652,0.78301,563,2.35737,-0.22,-0.10829,0.39151,5,1D2U,1.0,True,0.438,82,True,left,-0.0833,1.5687,2.0269,0.4582,0.301,0.843,0.5421,A,0.125
564,0.49979,1.2,1,0.30821,0.19992,0.65806,564,2.05749,-0.22,-0.10829,0.39151,5,1D2U,2.0,True,0.417,82,True,right,0.1666,0.2988,0.7146,0.4158,1.2811,1.9736,0.6925,A,0.025
565,0.49979,1.2,1,0.24157,0.42483,0.56643,565,2.39901,0.34,0.1666,0.66639,5,2D1U,1.0,True,0.471,79,True,left,-0.0833,0.2362,0.9282,0.692,1.5282,1.9704,0.4422,A,0.025
566,0.49979,0.1,2,0.39984,0.38318,0.67472,566,2.3657,-0.18,-0.09163,0.40817,5,1D2U,1.0,True,0.406,82,False,left,0.1666,1.6638,2.1385,0.4747,0.255,1.0475,0.7926,A,0.125
567,0.49979,0.1,1,0.32487,0.34153,0.86631,567,2.68223,0.3,0.14994,0.64973,5,2D1U,1.0,True,0.388,79,False,left,-0.0833,0.2678,1.0425,0.7747,1.8928,2.4346,0.5418,A,0.125
568,0.49979,1.2,1,0.22491,0.31654,0.79967,568,2.49064,0.3,0.14994,0.64973,5,2D1U,1.0,True,1.899,79,False,left,0.1666,0.2146,0.8899,0.6753,1.5983,2.2897,0.6914,A,0.025
569,0.49979,1.2,2,0.2499,0.42483,0.62474,569,2.43233,0.26,0.13328,0.63307,5,2D1U,2.0,True,0.313,79,False,right,-0.0833,1.3376,1.9888,0.6512,0.2795,0.7207,0.4412,A,0.025
570,0.49979,0.1,2,0.43316,0.39984,0.68305,570,2.42401,-0.18,-0.09163,0.40817,5,1D2U,1.0,True,0.4,82,False,left,0.1666,1.7109,2.1855,0.4746,0.2944,1.0857,0.7913,A,0.125
571,0.49979,0.1,2,0.30821,0.26656,0.69138,571,2.39901,0.26,0.13328,0.63307,5,2D1U,2.0,True,1.614,79,False,right,-0.0833,1.4644,2.1649,0.7005,0.2894,0.8305,0.5411,A,0.125
572,0.49979,1.2,2,0.23324,0.38318,0.62474,572,2.17411,-0.14,-0.06664,0.43316,5,1D2U,1.0,True,0.4,82,False,left,0.1666,1.4508,1.9007,0.4499,0.1423,0.834,0.6917,A,0.025
573,0.49979,1.2,1,0.25823,0.38318,0.87464,573,2.62392,0.22,0.10829,0.60808,5,2D1U,1.0,True,0.386,79,False,left,-0.0833,0.2513,0.884,0.6327,1.7925,2.2337,0.4412,A,0.025
574,0.49979,0.1,1,0.40817,0.34153,0.40817,574,2.26574,0.22,0.10829,0.60808,5,2D1U,1.0,True,0.419,79,False,left,0.1666,0.3461,1.0786,0.7325,1.3456,2.1371,0.7915,A,0.125
575,0.49979,0.1,2,0.35819,0.4165,0.85798,575,2.56562,-0.14,-0.06664,0.43316,5,1D2U,1.0,True,0.601,82,False,left,-0.0833,1.684,2.1842,0.5002,0.3424,0.8842,0.5418,A,0.125
576,0.49979,1.2,1,0.28322,0.37485,0.65806,576,2.40734,0.18,0.09163,0.59142,5,2D1U,1.0,True,0.557,79,False,left,0.1666,0.2763,0.8922,0.6158,1.4594,2.1511,0.6916,A,0.025
577,0.49979,1.2,1,0.35819,0.29155,0.53311,577,2.27406,0.18,0.09163,0.59142,5,2D1U,1.0,True,0.339,79,False,left,-0.0833,0.3524,0.9695,0.6171,1.5352,1.9773,0.4422,A,0.025
578,0.49979,0.1,1,0.44149,0.22491,0.67472,578,2.40734,0.14,0.06664,0.56643,5,2D1U,1.0,True,0.405,79,False,left,0.1666,0.3822,1.0725,0.6903,1.606,2.3988,0.7928,A,0.125
579,0.49979,0.1,2,0.3332,0.2499,0.73303,579,2.38235,0.14,0.06664,0.56643,5,2D1U,1.0,False,0.43,79,False,left,-0.0833,1.5301,2.1641,0.634,0.3144,0.8559,0.5415,A,0.125
580,0.49979,1.2,1,0.34153,0.31654,0.6414,580,2.24908,-0.1,-0.04998,0.44982,5,1D2U,2.0,True,0.32,82,False,right,0.1666,0.3324,0.8073,0.4749,1.3576,2.0492,0.6916,A,0.025
581,0.49979,1.2,1,0.34153,0.44982,0.78301,581,2.66557,0.18,0.09163,0.59142,5,2D1U,1.0,True,0.384,80,True,left,-0.0833,0.333,0.951,0.618,1.7673,2.2093,0.442,A,0.025
582,0.49979,0.1,2,0.37485,0.20825,0.58309,582,2.2574,0.18,0.09163,0.59142,5,2D1U,1.0,False,0.344,80,True,left,0.1666,1.5461,2.2041,0.658,0.2295,1.0215,0.792,A,0.125
583,0.49979,0.1,2,0.39984,0.44982,0.49146,583,2.29073,-0.1,-0.04998,0.44982,5,1D2U,1.0,True,0.368,82,False,left,-0.0833,1.3553,1.8715,0.5162,0.3805,0.9218,0.5414,A,0.125
584,0.49979,1.2,1,0.38318,0.30821,0.75802,584,2.55728,0.22,0.10829,0.60808,5,2D1U,1.0,True,0.372,80,False,left,0.1666,0.3775,1.011,0.6335,1.6777,2.369,0.6913,A,0.025
585,0.49979,1.2,1,0.22491,0.2499,0.82466,585,2.26573,-0.06,-0.03332,0.46647,5,1D2U,1.0,False,0.383,82,False,left,-0.0833,0.2189,0.7114,0.4925,1.569,2.0115,0.4424,A,0.025
586,0.49979,0.1,2,0.25823,0.44149,0.57476,586,2.38235,0.22,0.10829,0.60808,5,2D1U,1.0,False,0.409,80,False,left,0.1666,1.4254,2.1004,0.675,0.1167,0.9088,0.7921,A,0.125
587,0.49979,0.1,1,0.21658,0.34153,0.76635,587,2.27407,-0.1,-0.04998,0.44982,5,1D2U,1.0,False,0.281,83,True,left,-0.0833,0.1612,0.7361,0.575,1.4864,2.0277,0.5413,A,0.125
588,0.49979,1.2,2,0.30821,0.2499,0.69138,588,2.38235,0.26,0.13328,0.63307,5,2D1U,1.0,False,0.275,80,False,left,0.1666,1.5882,2.2377,0.6496,0.2132,0.905,0.6918,A,0.025
589,0.49979,1.2,1,0.28322,0.25823,0.83299,589,2.30739,-0.14,-0.06664,0.43316,5,1D2U,1.0,False,0.533,83,False,left,-0.0833,0.2711,0.7301,0.459,1.597,2.0384,0.4414,A,0.025
590,0.49979,0.1,1,0.29988,0.25823,0.60808,590,2.31571,0.3,0.14994,0.64973,5,2D1U,1.0,True,2.11,80,False,left,0.1666,0.2413,1.0164,0.7751,1.483,2.2737,0.7907,A,0.125
591,0.49979,0.1,1,0.20825,0.29155,0.53311,591,1.94087,-0.18,-0.09163,0.40817,5,1D2U,2.0,True,0.315,83,False,right,-0.0833,0.1458,0.6793,0.5335,1.1955,1.7372,0.5417,A,0.125
