,Unnamed: 0,standardDur,audNoise,order,preDur,postDur,isiDur,trial_num,totalDur,delta_dur_percents,deltaDurS,testDurS,intensities,current_stair,responses,is_correct,response_rts,stair_num_reversal,stair_is_reversal,response_keys,conflictDur,recordedOnsetVisualTest,recordedOffsetVisualTest,recordedDurVisualTest,recordedOnsetVisualStandard,recordedOffsetVisualStandard,recordedDurVisualStandard,modalityPostCue
0,0,0.49853,1.2,2,0.24096,0.44868,0.72287,0,1.96089,-0.9,-0.44868,0.04985,5,2D1U,1.0,True,3.005,0,False,left,0.0,1.465,1.5153,0.0503,0.2396,0.7398,0.5002,A
1,1,0.49853,0.1,1,0.34066,0.32405,0.87243,1,2.08552,-0.9,-0.44868,0.04985,5,1D2U,2.0,True,0.592,0,False,right,0.0,0.3381,0.3879,0.0498,1.2627,1.7632,0.5005,A
2,2,0.49853,1.2,2,0.38221,0.27419,0.6564,2,1.94427,-0.74,-0.3739,0.13294,5,2D1U,1.0,True,1.154,0,False,left,0.0,1.5453,1.6781,0.1328,0.3857,0.8865,0.5008,A
3,3,0.49853,0.1,1,0.27419,0.21603,0.4653,3,1.5039,-0.9,-0.44868,0.04985,5,3D1U,2.0,True,0.605,0,False,right,0.0,0.2742,0.3243,0.0501,0.791,1.2907,0.4997,V
4,4,0.49853,1.2,2,0.36559,0.32405,0.49853,4,1.73655,-0.9,-0.44868,0.04985,5,lapse_rate,1.0,True,0.578,0,False,left,0.0,1.3659,1.4163,0.0504,0.3659,0.8658,0.4999,A
5,5,0.49853,1.2,2,0.30743,0.27419,0.83919,5,1.96919,-0.9,-0.44868,0.04985,5,1D2U,1.0,True,0.458,0,False,left,0.0,1.6526,1.7032,0.0505,0.3115,0.8112,0.4996,V
6,6,0.49853,0.1,2,0.44037,0.44037,0.78103,6,2.21015,-0.9,-0.44868,0.04985,5,1D3U,1.0,True,0.51,0,False,left,0.0,1.7272,1.7772,0.05,0.4437,0.9439,0.5002,V
7,7,0.49853,1.2,2,0.3739,0.2825,0.54838,7,1.91103,-0.58,-0.29081,0.20772,5,2D1U,1.0,True,0.639,0,False,left,0.0,1.4254,1.6337,0.2083,0.3756,0.8755,0.4999,A
8,8,0.49853,0.1,1,0.39883,0.39052,0.77272,8,2.19354,-0.74,-0.3739,0.13294,5,3D1U,2.0,True,0.486,0,False,right,0.0,0.4022,0.536,0.1338,1.311,1.8114,0.5004,V
9,9,0.49853,1.2,1,0.25757,0.30743,0.68133,9,1.8778,-0.74,-0.3739,0.13294,5,1D2U,1.0,False,1.327,0,False,left,0.0,0.26,0.394,0.134,1.0767,1.5767,0.5,V
10,10,0.49853,1.2,2,0.38221,0.44037,0.75611,10,3.02443,0.9,0.44868,0.94721,5,lapse_rate,2.0,True,0.575,0,False,right,0.0,1.6399,2.5903,0.9504,0.3813,0.8816,0.5004,V
11,11,0.49853,0.1,1,0.35728,0.21603,0.69794,11,1.81963,-0.9,-0.44868,0.04985,5,1D3U,2.0,True,1.183,0,False,right,0.0,0.3606,0.4113,0.0507,1.1113,1.6111,0.4998,A
12,12,0.49853,1.2,1,0.41544,0.24927,0.44037,12,1.81133,-0.58,-0.29081,0.20772,5,3D1U,2.0,True,0.888,0,False,right,0.0,0.4168,0.6251,0.2083,1.0674,1.5664,0.499,V
13,13,0.49853,0.1,1,0.39883,0.27419,0.83919,13,2.10214,-0.82,-0.40713,0.0914,5,1D2U,2.0,True,0.576,1,True,right,0.0,0.3955,0.4883,0.0928,1.3299,1.8297,0.4998,A
14,14,0.49853,1.2,1,0.20772,0.36559,0.75611,14,1.8778,-0.9,-0.44868,0.04985,5,1D3U,2.0,True,2.451,0,False,right,0.0,0.2084,0.2588,0.0504,1.0169,1.5169,0.5,A
15,15,0.49853,0.1,2,0.29081,0.32405,0.44868,15,1.61192,-0.9,-0.44868,0.04985,5,lapse_rate,1.0,True,0.619,0,False,left,0.0,1.2454,1.2947,0.0493,0.2951,0.7952,0.5,V
16,16,0.49853,0.1,1,0.29081,0.25757,0.55669,16,1.89441,-0.42,-0.20772,0.29081,5,2D1U,1.0,False,1.975,0,False,left,0.0,0.2919,0.5834,0.2914,1.1419,1.6416,0.4998,V
17,17,0.49853,0.1,1,0.31574,0.34066,0.52346,17,2.6256,0.9,0.44868,0.94721,5,lapse_rate,1.0,True,0.792,0,False,left,0.0,0.316,1.2659,0.9499,1.7908,2.2913,0.5005,A
18,18,0.49853,1.2,2,0.19941,0.30743,0.55669,18,1.85287,-0.42,-0.20772,0.29081,5,2D1U,1.0,True,0.386,0,False,left,0.0,1.2583,1.5492,0.2909,0.2002,0.7003,0.5001,V
19,19,0.49853,0.1,1,0.26588,0.29081,0.42375,19,1.57037,-0.82,-0.40713,0.0914,5,1D2U,2.0,True,0.658,1,True,right,0.0,0.2635,0.3549,0.0914,0.7802,1.2797,0.4995,A
20,20,0.49853,1.2,2,0.39052,0.31574,0.59824,20,1.93597,-0.74,-0.3739,0.13294,5,1D3U,1.0,True,0.59,0,False,left,0.0,1.491,1.6242,0.1332,0.3912,0.8904,0.4991,V
21,21,0.49853,0.1,1,0.39883,0.44868,0.58162,21,2.21847,-0.42,-0.20772,0.29081,5,3D1U,2.0,True,1.754,0,False,right,0.0,0.4022,0.6932,0.291,1.2766,1.777,0.5004,V
22,22,0.49853,1.2,1,0.24927,0.43206,0.49022,22,1.71993,-0.9,-0.44868,0.04985,5,lapse_rate,2.0,True,2.181,0,False,right,0.0,0.2472,0.2975,0.0503,0.7895,1.2892,0.4997,A
23,23,0.49853,1.2,1,0.42375,0.26588,0.41544,23,1.71162,-0.78,-0.39052,0.10802,5,1D2U,2.0,True,3.211,2,True,right,0.0,0.4205,0.5289,0.1084,0.9457,1.4456,0.4999,V
24,24,0.49853,0.1,1,0.36559,0.24096,0.64809,24,2.12707,-0.26,-0.13294,0.3739,5,2D1U,1.0,False,3.425,0,False,left,0.0,0.3696,0.7443,0.3747,1.3943,1.8944,0.5001,V
25,25,0.49853,1.2,2,0.34897,0.23265,0.47361,25,1.92766,-0.26,-0.13294,0.3739,5,3D1U,1.0,True,0.903,0,False,left,0.0,1.3264,1.7016,0.3751,0.3516,0.852,0.5004,A
26,26,0.49853,0.1,1,0.39883,0.42375,0.81427,26,2.26832,-0.74,-0.3739,0.13294,5,1D3U,2.0,True,0.493,0,False,right,0.0,0.4005,0.5339,0.1335,1.3505,1.8501,0.4996,A
27,27,0.49853,1.2,2,0.23265,0.29912,0.61486,27,2.09384,-0.1,-0.04985,0.44868,5,3D1U,1.0,True,0.504,0,False,left,0.0,1.3492,1.7987,0.4494,0.2315,0.7313,0.4999,A
28,28,0.49853,0.1,2,0.19941,0.44868,0.55669,28,1.81133,-0.78,-0.39052,0.10802,5,1D2U,1.0,True,0.407,2,True,left,0.0,1.2616,1.3704,0.1088,0.2032,0.7037,0.5005,V
29,29,0.49853,1.2,2,0.34066,0.29081,0.87243,29,2.13537,-0.74,-0.3739,0.13294,5,1D3U,1.0,True,0.622,0,False,left,0.0,1.7125,1.8456,0.1331,0.3373,0.8371,0.4998,V
30,30,0.49853,0.1,2,0.42375,0.32405,0.44868,30,2.06891,-0.26,-0.13294,0.3739,5,2D1U,1.0,True,0.608,0,False,left,0.0,1.3787,1.7537,0.375,0.4282,0.9285,0.5003,A
31,31,0.49853,1.2,1,0.27419,0.40713,0.7478,31,1.9775,-0.9,-0.44868,0.04985,5,lapse_rate,2.0,True,0.656,0,False,right,0.0,0.2731,0.3238,0.0507,1.0728,1.5729,0.5001,V
32,32,0.49853,0.1,1,0.36559,0.30743,0.54838,32,1.76978,-0.9,-0.44868,0.04985,5,lapse_rate,2.0,True,0.617,0,False,right,0.0,0.3693,0.4195,0.0502,0.9696,1.4698,0.5002,A
33,33,0.49853,1.2,1,0.21603,0.33235,0.50684,33,1.68669,-0.74,-0.3739,0.13294,5,1D2U,1.0,False,1.03,2,False,left,0.0,0.2166,0.35,0.1334,0.8578,1.3571,0.4994,A
34,34,0.49853,0.1,1,0.29912,0.20772,0.68133,34,2.13538,-0.1,-0.04985,0.44868,5,2D1U,1.0,False,0.887,0,False,left,0.0,0.3028,0.753,0.4502,1.4361,1.9356,0.4995,A
35,35,0.49853,1.2,1,0.30743,0.43206,0.61486,35,2.38465,0.06,0.03324,0.53177,5,3D1U,1.0,True,1.669,0,False,left,0.0,0.3102,0.8438,0.5337,1.4601,1.9608,0.5007,V
36,36,0.49853,0.1,2,0.39052,0.19941,0.59824,36,1.89442,-0.58,-0.29081,0.20772,5,1D3U,1.0,True,0.517,0,False,left,0.0,1.4899,1.6981,0.2082,0.3903,0.89,0.4997,V
37,37,0.49853,1.2,2,0.21603,0.38221,0.63147,37,2.17692,-0.1,-0.04985,0.44868,5,2D1U,1.0,True,0.542,0,False,left,0.0,1.3531,1.8022,0.4491,0.2192,0.7192,0.5,V
38,38,0.49853,0.1,1,0.23265,0.27419,0.70625,38,1.81964,-0.78,-0.39052,0.10802,5,1D2U,2.0,True,0.562,3,True,right,0.0,0.2296,0.3387,0.1091,1.0468,1.546,0.4992,A
39,39,0.49853,1.2,1,0.23265,0.42375,0.69794,39,1.90272,-0.9,-0.44868,0.04985,5,lapse_rate,2.0,True,1.307,0,False,right,0.0,0.2345,0.2845,0.05,0.9844,1.4844,0.5,A
40,40,0.49853,1.2,2,0.27419,0.31574,0.61486,40,2.23509,0.06,0.03324,0.53177,5,3D1U,1.0,False,0.665,0,False,left,0.0,1.3928,1.9262,0.5333,0.2762,0.7765,0.5003,V
41,41,0.49853,0.1,2,0.25757,0.42375,0.83089,41,2.21846,-0.58,-0.29081,0.20772,5,1D3U,1.0,True,0.45,0,False,left,0.0,1.588,1.7962,0.2082,0.2545,0.7547,0.5003,A
42,42,0.49853,1.2,1,0.20772,0.39883,0.61486,42,2.32649,0.22,0.10802,0.60655,5,3D1U,1.0,True,0.725,0,False,left,0.0,0.2098,0.8182,0.6084,1.4349,1.9351,0.5002,V
43,43,0.49853,1.2,1,0.29912,0.40713,0.54008,43,2.69207,0.9,0.44868,0.94721,5,lapse_rate,1.0,True,1.056,0,False,left,0.0,0.2945,1.2445,0.95,1.7863,2.2863,0.5,V
44,44,0.49853,0.1,1,0.3739,0.38221,0.78934,44,2.57575,0.06,0.03324,0.53177,5,2D1U,1.0,True,2.001,0,False,left,0.0,0.3765,0.9099,0.5334,1.7014,2.2015,0.5001,V
45,45,0.49853,1.2,2,0.44868,0.25757,0.45699,45,1.76979,-0.78,-0.39052,0.10802,5,1D2U,1.0,True,0.534,3,True,left,0.0,1.4062,1.5144,0.1082,0.4479,0.9478,0.4999,A
46,46,0.49853,0.1,1,0.24096,0.27419,0.7478,46,1.9692,-0.58,-0.29081,0.20772,5,1D3U,2.0,True,0.542,0,False,right,0.0,0.2409,0.4494,0.2086,1.1992,1.6993,0.5001,V
47,47,0.49853,1.2,1,0.43206,0.34897,0.78103,47,2.19353,-0.74,-0.3739,0.13294,5,1D2U,1.0,False,0.625,4,True,left,0.0,0.4286,0.5624,0.1337,1.3453,1.8456,0.5002,V
48,48,0.49853,0.1,2,0.29081,0.27419,0.64809,48,1.76147,-0.9,-0.44868,0.04985,5,lapse_rate,1.0,True,0.424,0,False,left,0.0,1.4404,1.4909,0.0505,0.291,0.7907,0.4997,A
49,49,0.49853,0.1,2,0.29081,0.21603,0.42375,49,1.71993,-0.42,-0.20772,0.29081,5,1D3U,1.0,True,0.45,0,False,left,0.0,1.2157,1.5075,0.2918,0.291,0.791,0.4999,A
50,50,0.49853,1.2,2,0.25757,0.42375,0.72287,50,2.50927,0.22,0.10802,0.60655,5,3D1U,1.0,False,2.217,0,False,left,0.0,1.4827,2.0908,0.6081,0.2575,0.7576,0.5001,V
51,51,0.49853,0.1,2,0.43206,0.31574,0.69794,51,2.47604,0.06,0.03324,0.53177,5,2D1U,1.0,False,3.259,0,False,left,0.0,1.6298,2.1622,0.5325,0.4287,0.9289,0.5002,V
52,52,0.49853,1.2,2,0.41544,0.21603,0.73118,52,1.9692,-0.78,-0.39052,0.10802,5,1D2U,1.0,True,0.445,5,True,left,0.0,1.6508,1.759,0.1082,0.4175,0.9179,0.5004,A
53,53,0.49853,0.1,1,0.38221,0.25757,0.42375,53,2.50927,0.9,0.44868,0.94721,5,lapse_rate,1.0,True,0.52,0,False,left,0.0,0.3816,1.332,0.9504,1.7562,2.2568,0.5007,V
54,54,0.49853,0.1,2,0.26588,0.23265,0.88905,54,2.57575,0.38,0.1911,0.68964,5,3D1U,1.0,False,3.44,0,False,left,0.0,1.6622,2.3529,0.6907,0.2699,0.7698,0.4999,V
55,55,0.49853,1.2,1,0.39052,0.39883,0.41544,55,2.30987,0.22,0.10802,0.60655,5,2D1U,1.0,True,0.542,0,False,left,0.0,0.3925,1.0006,0.6082,1.4176,1.9177,0.5001,V
56,56,0.49853,0.1,1,0.25757,0.29912,0.40713,56,1.75316,-0.42,-0.20772,0.29081,5,1D3U,2.0,True,0.574,0,False,right,0.0,0.2523,0.5443,0.2921,0.9528,1.4533,0.5005,V
57,57,0.49853,1.2,1,0.43206,0.34897,0.88074,57,2.93302,0.54,0.26588,0.77272,5,3D1U,1.0,True,0.705,0,False,left,0.0,0.431,1.2057,0.7747,2.0891,2.589,0.4999,V
58,58,0.49853,0.1,1,0.34897,0.32405,0.87243,58,2.33479,-0.42,-0.20772,0.29081,5,1D3U,2.0,True,0.628,0,False,right,0.0,0.3499,0.6413,0.2914,1.5162,2.0169,0.5006,A
59,59,0.49853,0.1,2,0.29912,0.27419,0.77272,59,1.89441,-0.9,-0.44868,0.04985,5,lapse_rate,1.0,True,0.458,0,False,left,0.0,1.5764,1.6263,0.0499,0.3016,0.8021,0.5005,A
60,60,0.49853,1.2,1,0.34897,0.24927,0.39883,60,2.10215,0.22,0.10802,0.60655,5,2D1U,1.0,True,0.533,0,False,left,0.0,0.3449,0.9536,0.6087,1.3538,1.8532,0.4994,A
61,61,0.49853,0.1,1,0.26588,0.43206,0.63147,61,1.93596,-0.78,-0.39052,0.10802,5,1D2U,2.0,True,0.41,5,True,right,0.0,0.2686,0.3769,0.1083,1.0103,1.5102,0.4999,A
62,62,0.49853,1.2,2,0.27419,0.27419,0.80596,62,1.98581,-0.74,-0.3739,0.13294,5,1D2U,1.0,True,1.184,6,True,left,0.0,1.586,1.7203,0.1342,0.2784,0.7782,0.4998,V
63,63,0.49853,0.1,2,0.44037,0.31574,0.60655,63,2.23509,-0.26,-0.13294,0.3739,5,1D3U,1.0,True,0.652,0,False,left,0.0,1.546,1.9208,0.3748,0.4374,0.9374,0.5,A
64,64,0.49853,1.2,2,0.38221,0.25757,0.63147,64,2.71699,0.9,0.44868,0.94721,5,lapse_rate,1.0,False,1.018,0,False,left,0.0,1.5117,2.4623,0.9505,0.379,0.8788,0.4997,V
65,65,0.49853,1.2,2,0.33235,0.24927,0.89736,65,2.55082,0.14,0.06647,0.57331,5,2D1U,1.0,False,0.625,1,True,left,0.0,1.7336,2.3083,0.5747,0.3329,0.8331,0.5002,A
66,66,0.49853,0.1,1,0.27419,0.29912,0.86412,66,2.70868,0.54,0.26588,0.77272,5,3D1U,1.0,True,0.476,0,False,left,0.0,0.2744,1.0491,0.7747,1.9162,2.4163,0.5001,V
67,67,0.49853,0.1,2,0.34066,0.42375,0.64809,67,2.85824,0.9,0.44868,0.94721,5,lapse_rate,2.0,True,2.892,0,False,right,0.0,1.4939,2.4437,0.9498,0.3434,0.8429,0.4996,A
68,68,0.49853,1.2,2,0.30743,0.21603,0.71456,68,2.11045,-0.26,-0.13294,0.3739,5,1D3U,1.0,True,0.517,0,False,left,0.0,1.5265,1.9006,0.3741,0.3096,0.809,0.4994,V
69,69,0.49853,0.1,2,0.21603,0.31574,0.48191,69,2.10214,0.18,0.0914,0.58993,5,2D1U,1.0,False,0.467,2,True,left,0.0,1.2021,1.7934,0.5913,0.2179,0.7175,0.4996,V
70,70,0.49853,1.2,1,0.27419,0.27419,0.44868,70,2.26831,0.54,0.26588,0.77272,5,3D1U,1.0,True,0.47,0,False,left,0.0,0.2749,1.0504,0.7754,1.4999,2.0,0.5001,A
71,71,0.49853,0.1,2,0.24096,0.25757,0.565,71,1.695,-0.74,-0.3739,0.13294,5,1D2U,1.0,True,0.468,6,True,left,0.0,1.3076,1.4412,0.1337,0.2409,0.7408,0.4999,V
72,72,0.49853,1.2,1,0.43206,0.3739,0.88905,72,3.14075,0.9,0.44868,0.94721,5,lapse_rate,1.0,True,1.037,0,False,left,0.0,0.4303,1.3799,0.9496,2.2723,2.7719,0.4996,V
73,73,0.49853,1.2,2,0.19941,0.40713,0.68133,73,2.1603,-0.26,-0.13294,0.3739,5,1D3U,1.0,True,0.593,0,False,left,0.0,1.3857,1.7611,0.3755,0.2023,0.7024,0.5001,A
74,74,0.49853,0.1,2,0.39052,0.39052,0.50684,74,2.39296,0.22,0.10802,0.60655,5,2D1U,1.0,False,3.082,2,False,left,0.0,1.3947,2.0041,0.6094,0.3874,0.8865,0.4991,A
75,75,0.49853,1.2,1,0.33235,0.31574,0.89736,75,2.77516,0.46,0.23265,0.73118,5,3D1U,1.0,True,2.764,1,True,left,0.0,0.3303,1.0643,0.734,1.9634,2.4635,0.5,V
76,76,0.49853,0.1,2,0.34066,0.43206,0.64809,76,2.0689,-0.7,-0.34897,0.14956,5,1D2U,1.0,True,0.45,6,False,left,0.0,1.4944,1.6437,0.1493,0.345,0.8447,0.4997,A
77,77,0.49853,1.2,1,0.22434,0.32405,0.82258,77,2.60068,0.46,0.23265,0.73118,5,3D1U,1.0,True,0.447,1,True,left,0.0,0.2231,0.9567,0.7336,1.7821,2.2821,0.4999,A
78,78,0.49853,0.1,2,0.40713,0.39052,0.83089,78,2.75854,0.26,0.13294,0.63147,5,2D1U,2.0,True,3.392,2,False,right,0.0,1.7405,2.3742,0.6337,0.4069,0.907,0.5,A
79,79,0.49853,1.2,1,0.39052,0.29081,0.86412,79,2.99119,0.9,0.44868,0.94721,5,lapse_rate,1.0,True,0.429,0,False,left,0.0,0.3884,1.3388,0.9504,2.2051,2.7055,0.5005,A
80,80,0.49853,1.2,1,0.31574,0.44037,0.80596,80,2.50928,-0.1,-0.04985,0.44868,5,1D3U,1.0,False,3.925,0,False,left,0.0,0.3149,0.7652,0.4504,1.574,2.0738,0.4997,V
81,81,0.49853,0.1,1,0.3739,0.38221,0.67302,81,2.07722,-0.7,-0.34897,0.14956,5,1D2U,2.0,True,0.4,6,False,right,0.0,0.3711,0.5207,0.1496,1.1955,1.6957,0.5002,V
82,82,0.49853,1.2,2,0.38221,0.32405,0.75611,82,2.36803,-0.18,-0.0914,0.40713,5,1D3U,1.0,True,0.458,1,True,left,0.0,1.6456,2.0532,0.4076,0.3857,0.8863,0.5005,V
83,83,0.49853,0.1,2,0.41544,0.35728,0.71456,83,2.61728,0.26,0.13294,0.63147,5,2D1U,2.0,True,0.542,2,False,right,0.0,1.634,2.2667,0.6327,0.4166,0.9167,0.5001,V
84,84,0.49853,1.2,1,0.22434,0.43206,0.66471,84,2.55082,0.46,0.23265,0.73118,5,3D1U,1.0,True,7.316,1,True,left,0.0,0.2234,0.9563,0.7329,1.6236,2.1228,0.4992,V
85,85,0.49853,0.1,1,0.23265,0.44037,0.86412,85,2.08552,-0.9,-0.44868,0.04985,5,lapse_rate,2.0,True,0.375,0,False,right,0.0,0.2345,0.2843,0.0498,1.1518,1.6516,0.4997,A
86,86,0.49853,0.1,2,0.2825,0.21603,0.67302,86,1.83626,-0.66,-0.33235,0.16618,5,1D2U,1.0,True,0.506,6,False,left,0.0,1.4556,1.622,0.1664,0.2807,0.7801,0.4994,A
87,87,0.49853,1.2,2,0.26588,0.44868,0.71456,87,2.33478,-0.18,-0.0914,0.40713,5,1D3U,1.0,True,0.58,1,True,left,0.0,1.4788,1.8865,0.4077,0.2614,0.7629,0.5014,V
88,88,0.49853,0.1,2,0.34066,0.35728,0.80596,88,2.60898,0.22,0.10802,0.60655,5,2D1U,2.0,True,0.788,3,True,right,0.0,1.6472,2.2547,0.6075,0.3379,0.8383,0.5004,A
89,89,0.49853,0.1,2,0.39883,0.24096,0.64809,89,1.83626,-0.9,-0.44868,0.04985,5,lapse_rate,1.0,True,0.507,0,False,left,0.0,1.5529,1.6026,0.0498,0.4027,0.9026,0.4999,A
90,90,0.49853,1.2,1,0.29912,0.43206,0.68133,90,2.60068,0.38,0.1911,0.68964,5,3D1U,1.0,True,0.942,1,False,left,0.0,0.2963,0.9885,0.6921,1.6722,2.1723,0.5001,A
91,91,0.49853,0.1,2,0.23265,0.41544,0.565,91,1.8778,-0.66,-0.33235,0.16618,5,1D2U,1.0,True,0.413,6,False,left,0.0,1.2954,1.4627,0.1674,0.2296,0.7294,0.4998,A
92,92,0.49853,0.1,1,0.29912,0.34066,0.4653,92,2.55082,0.9,0.44868,0.94721,5,lapse_rate,1.0,True,0.401,0,False,left,0.0,0.2968,1.2466,0.9498,1.7138,2.2134,0.4996,V
93,93,0.49853,1.2,1,0.3739,0.19941,0.66471,93,2.42619,0.38,0.1911,0.68964,5,3D1U,1.0,True,0.654,1,False,left,0.0,0.377,1.069,0.692,1.7348,2.2351,0.5002,V
94,94,0.49853,0.1,1,0.34066,0.35728,0.64809,94,2.45111,0.22,0.10802,0.60655,5,2D1U,1.0,True,0.359,3,True,left,0.0,0.3378,0.9464,0.6087,1.5956,2.0965,0.5009,A
95,95,0.49853,1.2,2,0.20772,0.39052,0.59824,95,2.10214,-0.18,-0.0914,0.40713,5,1D3U,1.0,True,0.566,1,True,left,0.0,1.3112,1.7207,0.4095,0.2113,0.7104,0.499,A
96,96,0.49853,0.1,1,0.35728,0.24927,0.49022,96,1.7864,-0.62,-0.30743,0.1911,5,1D2U,2.0,True,0.535,6,False,right,0.0,0.3581,0.5496,0.1915,1.042,1.5415,0.4995,A
97,97,0.49853,1.2,2,0.3739,0.30743,0.82258,97,2.59237,0.18,0.0914,0.58993,5,2D1U,1.0,False,0.577,3,False,left,0.0,1.7002,2.2917,0.5915,0.3751,0.8751,0.5,A
98,98,0.49853,0.1,2,0.29081,0.23265,0.50684,98,1.96089,-0.14,-0.06647,0.43206,5,1D3U,1.0,True,0.417,2,True,left,0.0,1.3024,1.7349,0.4325,0.2942,0.7937,0.4996,V
99,99,0.49853,1.2,2,0.38221,0.41544,0.79765,99,2.78347,0.38,0.1911,0.68964,5,3D1U,1.0,False,2.691,1,False,left,0.0,1.6839,2.3754,0.6915,0.3833,0.8833,0.5,V
100,100,0.49853,1.2,1,0.22434,0.29912,0.73949,100,1.81133,-0.9,-0.44868,0.04985,5,lapse_rate,1.0,False,1.759,0,False,left,0.0,0.2221,0.2719,0.0497,1.0138,1.5139,0.5001,V
101,101,0.49853,0.1,1,0.34897,0.35728,0.54838,101,1.94426,-0.62,-0.30743,0.1911,5,1D2U,2.0,True,0.437,6,False,right,0.0,0.3484,0.54,0.1916,1.0893,1.5901,0.5008,A
102,102,0.49853,1.2,2,0.25757,0.24927,0.80596,102,2.24339,-0.14,-0.06647,0.43206,5,1D3U,1.0,True,0.586,2,True,left,0.0,1.5628,1.9959,0.4331,0.2543,0.7545,0.5002,A
103,103,0.49853,0.1,2,0.25757,0.44037,0.83089,103,2.73361,0.42,0.20772,0.70625,5,3D1U,1.0,False,2.842,2,True,left,0.0,1.5889,2.2975,0.7086,0.2554,0.7558,0.5004,A
104,104,0.49853,1.2,2,0.40713,0.31574,0.73949,104,2.56744,0.22,0.10802,0.60655,5,2D1U,1.0,False,0.447,4,True,left,0.0,1.648,2.2569,0.6089,0.4069,0.9068,0.4999,V
105,105,0.49853,1.2,1,0.41544,0.3739,0.51515,105,1.85287,-0.9,-0.44868,0.04985,5,lapse_rate,2.0,True,1.628,0,False,right,0.0,0.412,0.4627,0.0507,0.9782,1.4783,0.5001,V
106,106,0.49853,0.1,2,0.26588,0.20772,0.66471,106,1.84456,-0.58,-0.29081,0.20772,5,1D2U,1.0,True,0.975,6,False,left,0.0,1.4296,1.6381,0.2086,0.2635,0.7633,0.4998,A
107,107,0.49853,0.1,2,0.34897,0.3739,0.52346,107,2.69207,0.9,0.44868,0.94721,5,lapse_rate,2.0,True,0.425,0,False,right,0.0,1.3716,2.3214,0.9498,0.3464,0.8464,0.5,V
108,108,0.49853,1.2,2,0.31574,0.21603,0.73118,108,2.49266,0.46,0.23265,0.73118,5,3D1U,1.0,False,0.548,2,False,left,0.0,1.553,2.2865,0.7335,0.3193,0.8201,0.5007,V
109,109,0.49853,0.1,2,0.24096,0.41544,0.42375,109,2.01074,-0.14,-0.06647,0.43206,5,1D3U,1.0,True,0.426,2,True,left,0.0,1.1669,1.6009,0.434,0.2419,0.7428,0.5009,V
110,110,0.49853,1.2,1,0.44868,0.26588,0.47361,110,2.31817,0.26,0.13294,0.63147,5,2D1U,1.0,True,0.946,4,False,left,0.0,0.4523,1.0857,0.6334,1.5607,2.0606,0.5,A
111,111,0.49853,0.1,1,0.32405,0.34897,0.75611,111,2.13538,-0.58,-0.29081,0.20772,5,1D2U,2.0,True,0.505,6,False,right,0.0,0.3243,0.533,0.2087,1.2908,1.7921,0.5013,V
112,112,0.49853,1.2,1,0.30743,0.23265,0.59824,112,2.26832,0.26,0.13294,0.63147,5,2D1U,1.0,True,0.725,4,False,left,0.0,0.3124,0.9456,0.6332,1.5449,2.0455,0.5006,A
113,113,0.49853,0.1,1,0.21603,0.44868,0.42375,113,2.03567,-0.1,-0.04985,0.44868,5,1D3U,2.0,True,0.442,2,False,right,0.0,0.2172,0.6665,0.4492,1.0919,1.5921,0.5001,V
114,114,0.49853,0.1,1,0.36559,0.42375,0.66471,114,2.89979,0.9,0.44868,0.94721,5,lapse_rate,1.0,True,0.434,0,False,left,0.0,0.3689,1.3193,0.9504,1.9858,2.486,0.5002,V
115,115,0.49853,1.2,2,0.34897,0.3739,0.73118,115,2.70038,0.5,0.24927,0.7478,5,3D1U,1.0,False,0.634,2,False,left,0.0,1.5832,2.3335,0.7503,0.3502,0.8499,0.4997,V
116,116,0.49853,0.1,2,0.39883,0.27419,0.78103,116,2.18523,-0.54,-0.26588,0.23265,5,1D2U,1.0,True,0.47,6,False,left,0.0,1.6788,1.9121,0.2333,0.395,0.8951,0.5001,V
117,117,0.49853,1.2,2,0.39883,0.24096,0.78934,117,2.53421,0.22,0.10802,0.60655,5,2D1U,1.0,False,0.547,5,True,left,0.0,1.6925,2.3012,0.6087,0.4008,0.9014,0.5006,A
118,118,0.49853,1.2,2,0.34897,0.20772,0.87243,118,2.87486,0.9,0.44868,0.94721,5,lapse_rate,1.0,False,0.56,0,False,left,0.0,1.7225,2.6721,0.9496,0.3477,0.8481,0.5005,A
119,119,0.49853,0.1,2,0.39052,0.32405,0.73949,119,2.72531,0.54,0.26588,0.77272,5,3D1U,1.0,False,1.3,2,False,left,0.0,1.6357,2.4104,0.7748,0.3937,0.8933,0.4995,A
120,120,0.49853,1.2,2,0.35728,0.22434,0.53177,120,1.84457,-0.54,-0.26588,0.23265,5,1D2U,1.0,True,0.584,6,False,left,0.0,1.3911,1.6243,0.2332,0.3579,0.8571,0.4992,A
121,121,0.49853,0.1,2,0.41544,0.40713,0.83089,121,2.60067,-0.1,-0.04985,0.44868,5,1D3U,1.0,True,1.872,2,False,left,0.0,1.7475,2.197,0.4495,0.4134,0.9138,0.5005,V
122,122,0.49853,1.2,2,0.42375,0.29081,0.81427,122,2.8167,0.58,0.29081,0.78934,5,3D1U,1.0,False,0.7,2,False,left,0.0,1.7442,2.535,0.7909,0.427,0.927,0.5,V
123,123,0.49853,0.1,1,0.31574,0.30743,0.58162,123,2.33479,0.26,0.13294,0.63147,5,2D1U,1.0,True,0.524,6,True,left,0.0,0.3188,0.952,0.6333,1.5358,2.0351,0.4993,V
124,124,0.49853,1.2,2,0.24096,0.35728,0.54008,124,1.88612,-0.5,-0.24927,0.24927,5,1D2U,1.0,True,0.567,6,False,left,0.0,1.2836,1.5335,0.2499,0.2412,0.7418,0.5006,A
125,125,0.49853,0.1,2,0.33235,0.34897,0.80596,125,2.93302,0.9,0.44868,0.94721,5,lapse_rate,2.0,True,0.525,0,False,right,0.0,1.6429,2.5925,0.9496,0.334,0.834,0.5,A
126,126,0.49853,0.1,1,0.27419,0.29081,0.73118,126,2.24339,-0.1,-0.04985,0.44868,5,1D3U,2.0,True,2.351,2,False,right,0.0,0.2777,0.7281,0.4504,1.4615,1.961,0.4995,A
127,127,0.49853,1.2,1,0.24927,0.22434,0.63978,127,2.08553,-0.06,-0.03324,0.47361,5,1D3U,1.0,False,5.526,2,False,left,0.0,0.2474,0.7219,0.4745,1.3637,1.8633,0.4996,V
128,128,0.49853,0.1,1,0.33235,0.44037,0.68133,128,2.75854,0.62,0.30743,0.80596,5,3D1U,1.0,True,0.49,2,False,left,0.0,0.3346,1.1421,0.8075,1.8261,2.3262,0.5,A
129,129,0.49853,0.1,2,0.41544,0.43206,0.40713,129,1.80301,-0.9,-0.44868,0.04985,5,lapse_rate,1.0,True,0.532,0,False,left,0.0,1.3269,1.3763,0.0495,0.4182,0.9189,0.5008,A
130,130,0.49853,1.2,2,0.33235,0.40713,0.77272,130,2.6422,0.26,0.13294,0.63147,5,2D1U,1.0,False,1.053,6,True,left,0.0,1.6073,2.2397,0.6324,0.332,0.8329,0.5009,V
131,131,0.49853,0.1,1,0.34897,0.36559,0.7478,131,2.21016,-0.5,-0.24927,0.24927,5,1D2U,1.0,False,0.589,6,False,left,0.0,0.3521,0.6022,0.2502,1.3513,1.8517,0.5004,V
132,132,0.49853,1.2,2,0.22434,0.35728,0.44037,132,1.57037,-0.9,-0.44868,0.04985,5,lapse_rate,1.0,True,2.151,0,False,left,0.0,1.1654,1.2147,0.0493,0.2231,0.7234,0.5003,V
133,133,0.49853,1.2,2,0.35728,0.2825,0.87243,133,2.65883,0.3,0.14956,0.64809,5,2D1U,1.0,False,0.666,6,False,left,0.0,1.736,2.3859,0.65,0.3601,0.8609,0.5008,A
134,134,0.49853,0.1,2,0.41544,0.29912,0.40713,134,1.85287,-0.54,-0.26588,0.23265,5,1D2U,1.0,True,0.603,7,True,left,0.0,1.3217,1.5548,0.2331,0.4134,0.9135,0.5001,A
135,135,0.49853,1.2,1,0.32405,0.23265,0.78103,135,2.28494,-0.1,-0.04985,0.44868,5,1D3U,1.0,False,0.822,3,True,left,0.0,0.3217,0.7722,0.4505,1.5554,2.055,0.4996,A
136,136,0.49853,0.1,1,0.29081,0.29081,0.45699,136,2.3431,0.62,0.30743,0.80596,5,3D1U,1.0,True,0.919,2,False,left,0.0,0.2947,1.1028,0.8081,1.5617,2.0619,0.5001,A
137,137,0.49853,1.2,2,0.24096,0.24927,0.69794,137,2.11876,-0.14,-0.06647,0.43206,5,1D3U,1.0,True,0.675,3,False,left,0.0,1.4405,1.8736,0.433,0.2405,0.7406,0.5001,V
138,138,0.49853,0.1,2,0.26588,0.43206,0.45699,138,1.88611,-0.54,-0.26588,0.23265,5,1D2U,1.0,True,0.841,7,True,left,0.0,1.228,1.4613,0.2332,0.2703,0.7698,0.4995,V
139,139,0.49853,1.2,2,0.36559,0.39883,0.44868,139,2.51759,0.62,0.30743,0.80596,5,3D1U,1.0,False,2.938,2,False,left,0.0,1.3219,2.1279,0.806,0.3702,0.8704,0.5002,V
140,140,0.49853,0.1,2,0.35728,0.42375,0.75611,140,2.70869,0.34,0.16618,0.67302,5,2D1U,2.0,True,2.053,6,False,right,0.0,1.6168,2.2907,0.6739,0.3573,0.8575,0.5002,A
141,141,0.49853,1.2,2,0.34066,0.38221,0.88074,141,3.04935,0.9,0.44868,0.94721,5,lapse_rate,1.0,False,0.633,0,False,left,0.0,1.7282,2.6786,0.9504,0.3452,0.8446,0.4994,V
142,142,0.49853,1.2,1,0.34066,0.22434,0.57331,142,2.0689,-0.14,-0.06647,0.43206,5,1D3U,1.0,False,0.859,3,False,left,0.0,0.3428,0.7769,0.4341,1.3511,1.8508,0.4997,V
143,143,0.49853,0.1,2,0.27419,0.31574,0.48191,143,1.9775,-0.18,-0.0914,0.40713,5,1D3U,1.0,True,0.619,3,False,left,0.0,1.2618,1.6695,0.4077,0.278,0.7774,0.4994,A
144,144,0.49853,1.2,2,0.2825,0.29912,0.76442,144,2.67546,0.66,0.33235,0.83089,5,3D1U,2.0,True,1.286,2,False,right,0.0,1.547,2.381,0.834,0.2799,0.7807,0.5008,V
145,145,0.49853,0.1,2,0.2825,0.26588,0.41544,145,1.71162,-0.5,-0.24927,0.24927,5,1D2U,1.0,True,0.599,8,True,left,0.0,1.1953,1.4461,0.2507,0.2792,0.7796,0.5003,A
146,146,0.49853,1.2,1,0.34066,0.20772,0.72287,146,2.4428,0.34,0.16618,0.67302,5,2D1U,1.0,True,1.331,6,False,left,0.0,0.3413,1.0166,0.6752,1.7416,2.2425,0.5009,V
147,147,0.49853,0.1,2,0.44868,0.35728,0.48191,147,2.03567,-0.5,-0.24927,0.24927,5,1D2U,1.0,True,0.575,8,True,left,0.0,1.4298,1.6789,0.2491,0.4452,0.9454,0.5003,V
148,148,0.49853,1.2,2,0.36559,0.40713,0.70625,148,2.62559,0.3,0.14956,0.64809,5,2D1U,2.0,True,1.842,7,True,right,0.0,1.5735,2.2232,0.6497,0.3657,0.8651,0.4994,A
149,149,0.49853,0.1,2,0.38221,0.29081,0.61486,149,2.6173,0.66,0.33235,0.83089,5,3D1U,2.0,True,1.386,2,False,right,0.0,1.498,2.3316,0.8336,0.3814,0.882,0.5006,A
150,150,0.49853,1.2,1,0.40713,0.43206,0.63147,150,2.37632,-0.18,-0.0914,0.40713,5,1D3U,1.0,False,0.591,3,False,left,0.0,0.4094,0.8186,0.4092,1.4515,1.9509,0.4994,A
151,151,0.49853,0.1,1,0.29081,0.34897,0.73949,151,2.26832,-0.22,-0.10802,0.39052,5,1D3U,2.0,True,0.805,3,False,right,0.0,0.2887,0.6802,0.3914,1.4228,1.9228,0.5,V
152,152,0.49853,1.2,1,0.42375,0.36559,0.45699,152,2.13538,-0.22,-0.10802,0.39052,5,1D3U,1.0,False,0.973,3,False,left,0.0,0.4216,0.8142,0.3926,1.2722,1.7716,0.4994,A
153,153,0.49853,0.1,1,0.23265,0.27419,0.78103,153,2.1603,-0.26,-0.13294,0.3739,5,1D3U,1.0,False,2.091,3,False,left,0.0,0.2358,0.6098,0.3739,1.3941,1.8942,0.5001,V
154,154,0.49853,1.2,2,0.41544,0.31574,0.58162,154,2.64222,0.66,0.33235,0.83089,5,3D1U,2.0,True,0.527,2,False,right,0.0,1.4969,2.3302,0.8332,0.4128,0.9131,0.5003,A
155,155,0.49853,0.1,1,0.41544,0.34897,0.85581,155,2.38463,-0.46,-0.23265,0.26588,5,1D2U,2.0,True,0.765,8,False,right,0.0,0.4178,0.6846,0.2667,1.5428,2.0429,0.5001,A
156,156,0.49853,1.2,2,0.3739,0.44868,0.47361,156,2.44281,0.3,0.14956,0.64809,5,2D1U,2.0,True,1.038,7,True,right,0.0,1.3525,2.0027,0.6502,0.3774,0.8768,0.4994,A
157,157,0.49853,0.1,1,0.34066,0.22434,0.8475,157,2.26,-0.3,-0.14956,0.34897,5,1D3U,2.0,True,2.463,3,False,right,0.0,0.3426,0.693,0.3504,1.5431,2.0427,0.4996,A
158,158,0.49853,1.2,2,0.2825,0.27419,0.66471,158,2.52589,0.62,0.30743,0.80596,5,3D1U,2.0,True,1.05,3,True,right,0.0,1.4492,2.2583,0.8091,0.2824,0.7826,0.5002,A
159,159,0.49853,0.1,1,0.40713,0.23265,0.83919,159,2.78346,0.62,0.30743,0.80596,5,3D1U,1.0,True,0.551,3,True,left,0.0,0.4045,1.2134,0.8088,2.0549,2.5544,0.4995,V
160,160,0.49853,1.2,2,0.39883,0.39883,0.58993,160,2.51759,0.26,0.13294,0.63147,5,2D1U,1.0,False,1.125,7,False,left,0.0,1.4914,2.1251,0.6337,0.3997,0.9002,0.5004,V
161,161,0.49853,0.1,2,0.26588,0.41544,0.40713,161,1.85286,-0.46,-0.23265,0.26588,5,1D2U,1.0,True,0.415,8,False,left,0.0,1.1787,1.4452,0.2665,0.2704,0.7701,0.4997,A
162,162,0.49853,1.2,2,0.33235,0.34066,0.45699,162,2.43449,0.62,0.30743,0.80596,5,3D1U,2.0,True,1.239,3,True,right,0.0,1.2882,2.0964,0.8082,0.3291,0.8294,0.5002,A
163,163,0.49853,0.1,1,0.32405,0.31574,0.41544,163,1.90273,-0.3,-0.14956,0.34897,5,1D3U,1.0,False,0.848,3,False,left,0.0,0.3233,0.6733,0.35,1.0905,1.5899,0.4994,A
164,164,0.49853,1.2,1,0.40713,0.42375,0.49022,164,2.11044,-0.42,-0.20772,0.29081,5,1D2U,1.0,False,3.297,8,False,left,0.0,0.4116,0.7026,0.291,1.1945,1.694,0.4995,A
165,165,0.49853,0.1,2,0.36559,0.26588,0.47361,165,2.2517,0.3,0.14956,0.64809,5,2D1U,1.0,False,1.268,8,True,left,0.0,1.3431,1.9929,0.6498,0.3681,0.8676,0.4994,V
166,166,0.49853,1.2,1,0.34066,0.34897,0.69794,166,2.55912,0.34,0.16618,0.67302,5,2D1U,1.0,True,1.479,8,False,left,0.0,0.3435,1.0191,0.6756,1.7186,2.2191,0.5005,A
167,167,0.49853,0.1,1,0.31574,0.20772,0.58993,167,2.40126,0.58,0.29081,0.78934,5,3D1U,1.0,True,1.099,3,False,left,0.0,0.3132,1.105,0.7918,1.6966,2.1966,0.5,V
168,168,0.49853,1.2,2,0.25757,0.24927,0.88074,168,2.67545,0.58,0.29081,0.78934,5,3D1U,1.0,False,0.592,3,False,left,0.0,1.6406,2.4329,0.7923,0.2577,0.7579,0.5002,A
169,169,0.49853,0.1,2,0.36559,0.25757,0.60655,169,2.40126,0.34,0.16618,0.67302,5,2D1U,2.0,True,3.875,8,False,right,0.0,1.4747,2.1496,0.6749,0.3665,0.8668,0.5003,V
170,170,0.49853,1.2,1,0.36559,0.22434,0.85581,170,2.21015,-0.46,-0.23265,0.26588,5,1D2U,2.0,True,0.692,9,True,right,0.0,0.3677,0.6343,0.2666,1.4928,1.9928,0.5001,A
171,171,0.49853,0.1,1,0.25757,0.40713,0.54838,171,2.04396,-0.34,-0.16618,0.33235,5,1D3U,2.0,True,1.266,3,False,right,0.0,0.2576,0.5902,0.3325,1.1401,1.6398,0.4997,A
172,172,0.49853,1.2,1,0.3739,0.25757,0.78934,172,2.25169,-0.34,-0.16618,0.33235,5,1D3U,1.0,False,0.687,3,False,left,0.0,0.3748,0.7089,0.3341,1.4999,2.0003,0.5004,V
173,173,0.49853,0.1,2,0.3739,0.29081,0.80596,173,2.23508,-0.46,-0.23265,0.26588,5,1D2U,1.0,True,0.535,9,True,left,0.0,1.6823,1.9497,0.2673,0.375,0.8742,0.4991,V
174,174,0.49853,1.2,2,0.39052,0.24927,0.76442,174,2.7087,0.62,0.30743,0.80596,5,3D1U,2.0,True,1.4,4,True,right,0.0,1.6583,2.4674,0.8091,0.3918,0.8917,0.4999,A
175,175,0.49853,0.1,1,0.43206,0.21603,0.54838,175,2.50096,0.62,0.30743,0.80596,5,3D1U,1.0,True,1.717,4,True,left,0.0,0.4329,1.2419,0.8089,1.7911,2.2918,0.5008,A
176,176,0.49853,1.2,2,0.30743,0.40713,0.54838,176,2.40956,0.3,0.14956,0.64809,5,2D1U,1.0,False,0.694,9,True,left,0.0,1.3558,2.0051,0.6493,0.3058,0.806,0.5003,A
177,177,0.49853,0.1,1,0.35728,0.26588,0.73949,177,2.66714,0.62,0.30743,0.80596,5,3D1U,1.0,True,1.506,4,True,left,0.0,0.3549,1.1625,0.8076,1.9046,2.4048,0.5002,A
178,178,0.49853,1.2,2,0.42375,0.26588,0.43206,178,2.29324,0.34,0.16618,0.67302,5,2D1U,2.0,True,1.863,10,True,right,0.0,1.3557,2.0308,0.6751,0.4222,0.9224,0.5002,V
179,179,0.49853,0.1,1,0.24096,0.41544,0.68133,179,2.14369,-0.38,-0.1911,0.30743,5,1D3U,2.0,True,0.775,3,False,right,0.0,0.2405,0.5483,0.3079,1.2322,1.7316,0.4994,V
180,180,0.49853,1.2,1,0.29081,0.32405,0.82258,180,2.2434,-0.38,-0.1911,0.30743,5,1D3U,2.0,True,0.774,3,False,right,0.0,0.2951,0.6036,0.3085,1.4284,1.9286,0.5002,A
181,181,0.49853,0.1,2,0.2825,0.44868,0.60655,181,2.12707,-0.42,-0.20772,0.29081,5,1D2U,1.0,True,0.532,10,True,left,0.0,1.3893,1.6809,0.2915,0.2809,0.7808,0.4999,V
182,182,0.49853,1.2,1,0.2825,0.35728,0.88074,182,2.30986,-0.42,-0.20772,0.29081,5,1D2U,1.0,False,2.267,10,True,left,0.0,0.2783,0.5699,0.2917,1.454,1.954,0.5001,V
183,183,0.49853,0.1,1,0.43206,0.39883,0.44037,183,2.07722,-0.38,-0.1911,0.30743,5,1D3U,2.0,True,0.644,3,False,right,0.0,0.4304,0.7386,0.3083,1.1804,1.6806,0.5001,V
184,184,0.49853,1.2,1,0.24927,0.41544,0.87243,184,2.82501,0.58,0.29081,0.78934,5,3D1U,1.0,True,0.54,5,True,left,0.0,0.2499,1.0411,0.7912,1.9165,2.4167,0.5002,V
185,185,0.49853,0.1,2,0.44868,0.44037,0.83919,185,3.01611,0.58,0.29081,0.78934,5,3D1U,1.0,False,3.342,5,True,left,0.0,1.7947,2.586,0.7913,0.4522,0.9528,0.5006,V
186,186,0.49853,1.2,2,0.27419,0.44868,0.85581,186,2.75023,0.34,0.16618,0.67302,5,2D1U,1.0,False,0.582,10,True,left,0.0,1.6316,2.3054,0.6739,0.2716,0.772,0.5004,A
187,187,0.49853,0.1,2,0.20772,0.44037,0.55669,187,2.50927,0.62,0.30743,0.80596,5,3D1U,2.0,True,0.509,6,True,right,0.0,1.2654,2.0743,0.8089,0.2074,0.7075,0.5001,V
188,188,0.49853,1.2,2,0.34897,0.33235,0.55669,188,2.06889,-0.34,-0.16618,0.33235,5,1D3U,1.0,True,0.591,4,True,left,0.0,1.4074,1.7398,0.3324,0.3489,0.8482,0.4993,V
189,189,0.49853,0.1,1,0.23265,0.40713,0.75611,189,2.58406,0.38,0.1911,0.68964,5,2D1U,1.0,True,0.467,10,False,left,0.0,0.2302,0.9214,0.6912,1.6798,2.1799,0.5001,V
190,190,0.49853,1.2,2,0.2825,0.23265,0.6564,190,1.93596,-0.46,-0.23265,0.26588,5,1D2U,1.0,True,0.57,11,True,left,0.0,1.439,1.7054,0.2664,0.2805,0.7809,0.5004,A
191,191,0.49853,0.1,2,0.44868,0.42375,0.67302,191,2.30986,-0.46,-0.23265,0.26588,5,1D2U,1.0,True,0.541,11,True,left,0.0,1.626,1.8927,0.2667,0.4509,0.951,0.5002,V
192,192,0.49853,1.2,1,0.38221,0.20772,0.44868,192,2.22678,0.38,0.1911,0.68964,5,2D1U,1.0,True,0.621,10,False,left,0.0,0.3819,1.0739,0.6921,1.5237,2.0236,0.4999,A
193,193,0.49853,0.1,2,0.21603,0.34897,0.67302,193,2.0689,-0.34,-0.16618,0.33235,5,1D3U,1.0,True,0.518,4,True,left,0.0,1.3924,1.7261,0.3337,0.2176,0.7176,0.5,A
194,194,0.49853,1.2,1,0.24927,0.41544,0.43206,194,1.88611,-0.42,-0.20772,0.29081,5,1D2U,1.0,False,1.075,12,True,left,0.0,0.2459,0.5377,0.2917,0.9711,1.4711,0.5,V
195,195,0.49853,0.1,1,0.30743,0.39052,0.61486,195,2.07722,-0.46,-0.23265,0.26588,5,1D2U,2.0,True,0.528,13,True,right,0.0,0.309,0.5764,0.2674,1.1926,1.6924,0.4998,A
196,196,0.49853,1.2,2,0.30743,0.34897,0.61486,196,2.57575,0.62,0.30743,0.80596,5,3D1U,1.0,False,0.59,6,True,left,0.0,1.4278,2.2362,0.8083,0.3112,0.8114,0.5002,V
197,197,0.49853,0.1,1,0.3739,0.35728,0.63978,197,2.20184,-0.34,-0.16618,0.33235,5,1D3U,2.0,True,0.507,4,True,right,0.0,0.3702,0.7036,0.3334,1.3452,1.8451,0.5,A
198,198,0.49853,1.2,1,0.41544,0.39883,0.49022,198,2.47604,0.34,0.16618,0.67302,5,2D1U,1.0,True,0.611,11,True,left,0.0,0.4131,1.0881,0.675,1.5798,2.0799,0.5001,V
199,199,0.49853,0.1,1,0.44868,0.34897,0.59824,199,2.72531,0.66,0.33235,0.83089,5,3D1U,1.0,True,0.816,6,False,left,0.0,0.446,1.2793,0.8333,1.8794,2.3794,0.5,V
200,200,0.49853,1.2,1,0.44037,0.22434,0.72287,200,2.15199,-0.46,-0.23265,0.26588,5,1D2U,1.0,False,1.055,13,True,left,0.0,0.4397,0.706,0.2663,1.4319,1.9312,0.4994,V
201,201,0.49853,0.1,1,0.29912,0.43206,0.87243,201,2.35141,-0.5,-0.24927,0.24927,5,1D2U,2.0,True,0.384,13,False,right,0.0,0.2943,0.545,0.2506,1.4197,1.9199,0.5002,A
202,202,0.49853,1.2,1,0.31574,0.24927,0.58993,202,2.48436,0.66,0.33235,0.83089,5,3D1U,1.0,True,0.833,6,False,left,0.0,0.312,1.1447,0.8326,1.7368,2.2364,0.4996,V
203,203,0.49853,0.1,1,0.24096,0.43206,0.75611,203,2.60068,0.34,0.16618,0.67302,5,2D1U,1.0,True,0.516,11,True,left,0.0,0.2448,0.9201,0.6753,1.6788,2.1782,0.4994,A
204,204,0.49853,1.2,2,0.29912,0.27419,0.78934,204,2.50927,0.3,0.14956,0.64809,5,2D1U,1.0,False,0.648,11,False,left,0.0,1.5887,2.2384,0.6498,0.2968,0.7974,0.5006,V
205,205,0.49853,0.1,2,0.26588,0.29912,0.82258,205,2.13538,-0.5,-0.24927,0.24927,5,1D2U,1.0,True,0.467,13,False,left,0.0,1.5916,1.8415,0.2499,0.2667,0.7673,0.5006,A
206,206,0.49853,1.2,1,0.27419,0.27419,0.73118,206,2.12706,-0.3,-0.14956,0.34897,5,1D3U,1.0,False,0.569,4,False,left,0.0,0.2749,0.6243,0.3494,1.3577,1.8585,0.5007,V
207,207,0.49853,0.1,1,0.21603,0.34066,0.68133,207,2.40957,0.34,0.16618,0.67302,5,2D1U,1.0,True,0.426,12,True,left,0.0,0.2183,0.8931,0.6748,1.576,2.0766,0.5006,A
208,208,0.49853,1.2,2,0.24096,0.22434,0.63147,208,1.86118,-0.46,-0.23265,0.26588,5,1D2U,1.0,True,0.942,14,True,left,0.0,1.3731,1.6402,0.2672,0.2397,0.7399,0.5002,A
209,209,0.49853,0.1,1,0.21603,0.44037,0.58162,209,2.56744,0.66,0.33235,0.83089,5,3D1U,1.0,True,0.667,6,False,left,0.0,0.2213,1.0554,0.8341,1.6385,2.1386,0.5001,A
210,210,0.49853,1.2,1,0.42375,0.30743,0.66471,210,2.22677,-0.34,-0.16618,0.33235,5,1D3U,1.0,False,0.667,5,True,left,0.0,0.4244,0.7583,0.334,1.4244,1.9254,0.501,A
211,211,0.49853,0.1,1,0.32405,0.36559,0.58993,211,2.45112,0.34,0.16618,0.67302,5,2D1U,1.0,True,0.543,12,True,left,0.0,0.3266,1.0011,0.6746,1.5935,2.0931,0.4996,V
212,212,0.49853,1.2,2,0.29081,0.29912,0.76442,212,2.50097,0.3,0.14956,0.64809,5,2D1U,1.0,False,0.532,13,True,left,0.0,1.5563,2.2065,0.6502,0.2895,0.7902,0.5007,V
213,213,0.49853,0.1,2,0.26588,0.21603,0.59824,213,1.84456,-0.46,-0.23265,0.26588,5,1D2U,1.0,True,0.492,14,True,left,0.0,1.3678,1.6346,0.2669,0.2683,0.7678,0.4995,V
214,214,0.49853,1.2,2,0.2825,0.23265,0.63978,214,2.45942,0.62,0.30743,0.80596,5,3D1U,2.0,True,2.058,7,True,right,0.0,1.4196,2.2283,0.8087,0.2785,0.7786,0.5001,V
215,215,0.49853,0.1,2,0.26588,0.29912,0.43206,215,1.80302,-0.38,-0.1911,0.30743,5,1D3U,1.0,True,0.639,5,False,left,0.0,1.1983,1.5059,0.3076,0.2642,0.7646,0.5004,V
216,216,0.49853,1.2,2,0.44037,0.44037,0.73118,216,2.41788,-0.38,-0.1911,0.30743,5,1D3U,1.0,True,0.487,5,False,left,0.0,1.6706,1.9783,0.3078,0.4367,0.9369,0.5003,A
217,217,0.49853,0.1,1,0.30743,0.38221,0.41544,217,1.89442,-0.42,-0.20772,0.29081,5,1D2U,2.0,True,0.529,14,False,right,0.0,0.305,0.5965,0.2915,1.0134,1.5135,0.5001,A
218,218,0.49853,1.2,2,0.40713,0.39052,0.58162,218,2.16861,-0.42,-0.20772,0.29081,5,1D2U,1.0,True,0.53,14,False,left,0.0,1.4889,1.7807,0.2918,0.4055,0.9059,0.5004,V
219,219,0.49853,0.1,2,0.34897,0.29081,0.64809,219,2.45942,0.34,0.16618,0.67302,5,2D1U,2.0,True,3.073,14,True,right,0.0,1.4946,2.1701,0.6754,0.3448,0.8445,0.4998,A
220,220,0.49853,1.2,1,0.42375,0.29912,0.6564,220,2.18523,-0.38,-0.1911,0.30743,5,1D3U,1.0,False,0.587,5,False,left,0.0,0.4256,0.7344,0.3089,1.392,1.892,0.5,V
221,221,0.49853,0.1,2,0.39883,0.3739,0.6564,221,2.73362,0.62,0.30743,0.80596,5,3D1U,2.0,True,0.401,7,True,right,0.0,1.5583,2.3668,0.8085,0.3994,0.8993,0.4999,V
222,222,0.49853,1.2,1,0.42375,0.35728,0.58993,222,2.54251,0.34,0.16618,0.67302,5,2D1U,1.0,True,0.772,14,True,left,0.0,0.4243,1.0987,0.6744,1.6902,2.1896,0.4994,V
223,223,0.49853,0.1,2,0.38221,0.23265,0.6564,223,2.07722,-0.38,-0.1911,0.30743,5,1D2U,1.0,True,0.761,14,False,left,0.0,1.544,1.8529,0.309,0.3855,0.885,0.4995,V
224,224,0.49853,1.2,2,0.34897,0.38221,0.45699,224,1.97751,-0.42,-0.20772,0.29081,5,1D3U,1.0,True,1.99,5,False,left,0.0,1.3035,1.5951,0.2916,0.3455,0.8451,0.4996,A
225,225,0.49853,0.1,1,0.22434,0.34066,0.63978,225,2.50927,0.62,0.30743,0.80596,5,3D1U,1.0,True,0.509,7,True,left,0.0,0.228,1.0356,0.8076,1.6775,2.1776,0.5001,V
226,226,0.49853,1.2,2,0.36559,0.22434,0.63147,226,2.50927,0.58,0.29081,0.78934,5,3D1U,1.0,False,1.17,7,False,left,0.0,1.4969,2.2888,0.7919,0.3638,0.8637,0.4999,A
227,227,0.49853,0.1,1,0.35728,0.27419,0.87243,227,2.30986,-0.38,-0.1911,0.30743,5,1D2U,2.0,True,0.574,14,False,right,0.0,0.3582,0.6661,0.308,1.5413,2.0416,0.5003,V
228,228,0.49853,1.2,1,0.38221,0.31574,0.58993,228,2.11876,-0.34,-0.16618,0.33235,5,1D2U,1.0,False,1.737,14,False,left,0.0,0.3806,0.7145,0.3339,1.3065,1.8061,0.4996,A
229,229,0.49853,0.1,1,0.30743,0.32405,0.72287,229,2.50097,0.3,0.14956,0.64809,5,2D1U,1.0,True,0.622,15,True,left,0.0,0.3075,0.9579,0.6504,1.6827,2.1821,0.4994,A
230,230,0.49853,1.2,2,0.26588,0.2825,0.40713,230,2.26,0.62,0.30743,0.80596,5,3D1U,1.0,False,1.034,8,True,left,0.0,1.1714,1.98,0.8085,0.2631,0.7636,0.5005,A
231,231,0.49853,0.1,1,0.29912,0.33235,0.43206,231,1.85287,-0.42,-0.20772,0.29081,5,1D3U,2.0,True,0.505,5,False,right,0.0,0.2966,0.5884,0.2918,1.0214,1.5221,0.5007,A
232,232,0.49853,1.2,1,0.3739,0.40713,0.8475,232,2.77515,0.3,0.14956,0.64809,5,2D1U,1.0,True,0.691,15,True,left,0.0,0.3764,1.0269,0.6504,1.8762,2.3766,0.5004,A
233,233,0.49853,0.1,1,0.26588,0.44037,0.78103,233,2.27662,-0.42,-0.20772,0.29081,5,1D3U,2.0,True,0.695,5,False,right,0.0,0.2692,0.561,0.2918,1.3446,1.8436,0.4991,A
234,234,0.49853,1.2,2,0.23265,0.34066,0.51515,234,1.89442,-0.38,-0.1911,0.30743,5,1D3U,1.0,True,0.543,6,True,left,0.0,1.249,1.5574,0.3083,0.2327,0.7326,0.4999,V
235,235,0.49853,0.1,2,0.43206,0.34897,0.57331,235,2.1603,-0.38,-0.1911,0.30743,5,1D2U,1.0,True,0.496,15,True,left,0.0,1.5121,1.8208,0.3088,0.4368,0.9367,0.4999,V
236,236,0.49853,1.2,2,0.24096,0.40713,0.48191,236,2.45942,0.66,0.33235,0.83089,5,3D1U,1.0,False,2.043,8,False,left,0.0,1.228,2.0607,0.8327,0.2444,0.7447,0.5003,V
237,237,0.49853,0.1,1,0.39052,0.39883,0.50684,237,2.64222,0.7,0.34897,0.8475,5,3D1U,1.0,True,0.474,8,False,left,0.0,0.3868,1.2372,0.8504,1.7451,2.2452,0.5001,A
238,238,0.49853,1.2,1,0.42375,0.36559,0.77272,238,2.36802,-0.38,-0.1911,0.30743,5,1D2U,1.0,False,0.796,15,True,left,0.0,0.4249,0.7332,0.3082,1.5076,2.0082,0.5005,V
239,239,0.49853,0.1,1,0.44868,0.27419,0.73118,239,2.58405,0.26,0.13294,0.63147,5,2D1U,1.0,True,0.978,15,False,left,0.0,0.4486,1.0813,0.6327,1.8145,2.3146,0.5001,A
240,240,0.49853,1.2,2,0.20772,0.39052,0.40713,240,1.81133,-0.38,-0.1911,0.30743,5,1D3U,1.0,True,0.727,6,True,left,0.0,1.1124,1.4207,0.3083,0.2045,0.7037,0.4992,A
241,241,0.49853,0.1,2,0.30743,0.31574,0.85581,241,2.82501,0.7,0.34897,0.8475,5,3D1U,2.0,True,0.724,8,False,right,0.0,1.6648,2.5145,0.8497,0.3061,0.8057,0.4995,V
242,242,0.49853,1.2,2,0.34897,0.38221,0.88074,242,2.74192,0.26,0.13294,0.63147,5,2D1U,1.0,False,1.639,15,False,left,0.0,1.7322,2.3646,0.6325,0.3489,0.8486,0.4997,V
243,243,0.49853,0.1,1,0.21603,0.35728,0.76442,243,2.68376,0.7,0.34897,0.8475,5,3D1U,1.0,True,0.669,8,False,left,0.0,0.2146,1.0648,0.8502,1.8315,2.3315,0.5,A
244,244,0.49853,1.2,1,0.40713,0.24096,0.76442,244,2.20185,-0.42,-0.20772,0.29081,5,1D2U,1.0,False,0.964,15,False,left,0.0,0.4049,0.6965,0.2916,1.4634,1.9657,0.5024,A
245,245,0.49853,0.1,2,0.34897,0.32405,0.66471,245,2.14369,-0.38,-0.1911,0.30743,5,1D3U,1.0,True,0.413,6,True,left,0.0,1.5169,1.8245,0.3076,0.3494,0.8503,0.5009,A
246,246,0.49853,1.2,2,0.38221,0.44037,0.44868,246,2.10214,-0.34,-0.16618,0.33235,5,1D3U,1.0,True,0.556,6,False,left,0.0,1.3316,1.6651,0.3335,0.3811,0.8817,0.5006,V
247,247,0.49853,0.1,2,0.24927,0.3739,0.43206,247,1.88611,-0.34,-0.16618,0.33235,5,1D3U,1.0,True,0.412,6,False,left,0.0,1.1808,1.5143,0.3336,0.2471,0.7476,0.5005,A
248,248,0.49853,1.2,1,0.40713,0.44037,0.68133,248,2.85825,0.66,0.33235,0.83089,5,3D1U,1.0,True,0.6,9,True,left,0.0,0.4046,1.2379,0.8332,1.9214,2.4214,0.4999,V
249,249,0.49853,0.1,2,0.3739,0.39052,0.43206,249,1.96089,-0.46,-0.23265,0.26588,5,1D2U,1.0,True,0.593,15,False,left,0.0,1.3073,1.5731,0.2658,0.373,0.873,0.5,A
250,250,0.49853,1.2,2,0.31574,0.32405,0.49853,250,1.90273,-0.46,-0.23265,0.26588,5,1D2U,1.0,True,1.077,15,False,left,0.0,1.313,1.5791,0.2661,0.313,0.8126,0.4996,A
251,251,0.49853,0.1,1,0.30743,0.39883,0.63978,251,2.49266,0.3,0.14956,0.64809,5,2D1U,1.0,True,0.473,16,True,left,0.0,0.309,0.9594,0.6504,1.6011,2.1011,0.5001,V
252,252,0.49853,1.2,1,0.38221,0.34066,0.7478,252,2.30155,-0.34,-0.16618,0.33235,5,1D3U,1.0,False,0.421,6,False,left,0.0,0.3793,0.7137,0.3344,1.4631,1.9628,0.4997,V
253,253,0.49853,0.1,1,0.39883,0.34066,0.77272,253,2.30155,-0.42,-0.20772,0.29081,5,1D2U,2.0,True,0.442,16,True,right,0.0,0.3958,0.6881,0.2924,1.463,1.9624,0.4993,V
254,254,0.49853,1.2,1,0.40713,0.39052,0.41544,254,2.00243,-0.42,-0.20772,0.29081,5,1D2U,1.0,False,1.426,16,True,left,0.0,0.4077,0.6997,0.2919,1.1158,1.6161,0.5003,V
255,255,0.49853,0.1,2,0.27419,0.22434,0.88905,255,2.717,0.66,0.33235,0.83089,5,3D1U,2.0,True,0.466,9,True,right,0.0,1.6653,2.499,0.8338,0.2738,0.7745,0.5007,V
256,256,0.49853,1.2,1,0.32405,0.23265,0.78934,256,2.49266,0.3,0.14956,0.64809,5,2D1U,1.0,True,0.491,16,True,left,0.0,0.327,0.9767,0.6497,1.7684,2.2681,0.4997,V
257,257,0.49853,0.1,1,0.3739,0.32405,0.54008,257,2.04399,-0.38,-0.1911,0.30743,5,1D3U,2.0,True,0.293,7,True,right,0.0,0.3768,0.6861,0.3094,1.2266,1.7273,0.5007,A
258,258,0.49853,1.2,2,0.39052,0.20772,0.85581,258,2.58405,0.26,0.13294,0.63147,5,2D1U,1.0,False,0.396,17,True,left,0.0,1.7449,2.3787,0.6338,0.3873,0.887,0.4997,V
259,259,0.49853,0.1,2,0.2825,0.40713,0.49853,259,1.95257,-0.46,-0.23265,0.26588,5,1D2U,1.0,True,0.273,17,True,left,0.0,1.284,1.5508,0.2668,0.2841,0.7843,0.5002,A
260,260,0.49853,1.2,2,0.31574,0.43206,0.67302,260,2.75024,0.66,0.33235,0.83089,5,3D1U,1.0,False,0.717,9,True,left,0.0,1.4906,2.3245,0.8338,0.3153,0.815,0.4997,V
261,261,0.49853,0.1,1,0.22434,0.27419,0.565,261,1.86949,-0.38,-0.1911,0.30743,5,1D3U,2.0,True,0.421,7,True,right,0.0,0.2217,0.531,0.3093,1.0969,1.5974,0.5005,A
262,262,0.49853,1.2,2,0.44868,0.21603,0.76442,262,2.23509,-0.38,-0.1911,0.30743,5,1D3U,1.0,True,0.413,7,True,left,0.0,1.7132,2.0221,0.3089,0.4465,0.947,0.5005,A
263,263,0.49853,0.1,2,0.24927,0.42375,0.68964,263,2.12707,-0.46,-0.23265,0.26588,5,1D2U,1.0,True,0.554,17,True,left,0.0,1.4386,1.7055,0.2669,0.2477,0.7472,0.4995,V
264,264,0.49853,1.2,2,0.21603,0.32405,0.72287,264,2.40957,0.3,0.14956,0.64809,5,2D1U,1.0,False,0.549,18,True,left,0.0,1.4416,2.0919,0.6503,0.2162,0.7166,0.5004,A
265,265,0.49853,0.1,2,0.29081,0.22434,0.41544,265,2.27662,0.7,0.34897,0.8475,5,3D1U,1.0,False,1.487,10,True,left,0.0,1.2037,2.0536,0.8499,0.2872,0.7872,0.4999,A
266,266,0.49853,1.2,2,0.38221,0.24927,0.80596,266,2.26832,-0.34,-0.16618,0.33235,5,1D3U,1.0,True,0.509,8,True,left,0.0,1.6942,2.0275,0.3333,0.3865,0.8862,0.4997,A
267,267,0.49853,0.1,1,0.30743,0.41544,0.64809,267,2.74192,0.74,0.3739,0.87243,5,3D1U,1.0,True,0.389,10,False,left,0.0,0.308,1.1831,0.8751,1.8333,2.3331,0.4998,A
268,268,0.49853,1.2,2,0.38221,0.33235,0.44868,268,2.33479,0.34,0.16618,0.67302,5,2D1U,2.0,True,0.708,18,False,right,0.0,1.332,2.0063,0.6743,0.3814,0.8818,0.5004,A
269,269,0.49853,0.1,1,0.30743,0.40713,0.69794,269,2.20184,-0.42,-0.20772,0.29081,5,1D2U,2.0,True,0.632,18,True,right,0.0,0.3069,0.5991,0.2923,1.2983,1.7987,0.5004,A
270,270,0.49853,1.2,1,0.41544,0.43206,0.71456,270,2.3514,-0.42,-0.20772,0.29081,5,1D2U,1.0,False,0.443,18,True,left,0.0,0.4131,0.7043,0.2912,1.4217,1.9211,0.4994,V
271,271,0.49853,0.1,2,0.41544,0.34066,0.61486,271,2.20184,-0.34,-0.16618,0.33235,5,1D3U,1.0,True,0.408,8,True,left,0.0,1.5356,1.8694,0.3338,0.4193,0.9191,0.4998,A
272,272,0.49853,1.2,1,0.38221,0.39883,0.80596,272,2.75855,0.34,0.16618,0.67302,5,2D1U,1.0,True,0.366,18,False,left,0.0,0.3851,1.0606,0.6755,1.8689,2.3682,0.4993,A
273,273,0.49853,0.1,1,0.21603,0.3739,0.81427,273,2.55082,0.3,0.14956,0.64809,5,2D1U,1.0,True,0.409,19,True,left,0.0,0.2185,0.8687,0.6502,1.6849,2.1848,0.4999,A
274,274,0.49853,1.2,1,0.21603,0.34897,0.83089,274,2.1603,-0.46,-0.23265,0.26588,5,1D2U,1.0,False,0.74,19,True,left,0.0,0.2137,0.4804,0.2667,1.3137,1.8136,0.4999,V
275,275,0.49853,0.1,2,0.43206,0.31574,0.6564,275,2.77516,0.74,0.3739,0.87243,5,3D1U,2.0,True,0.44,10,False,right,0.0,1.5901,2.4653,0.8752,0.4319,0.9319,0.5,V
276,276,0.49853,1.2,2,0.34897,0.26588,0.48191,276,1.92764,-0.34,-0.16618,0.33235,5,1D3U,1.0,True,0.558,8,True,left,0.0,1.3307,1.6639,0.3332,0.3469,0.8473,0.5005,A
277,277,0.49853,0.1,2,0.42375,0.43206,0.55669,277,2.55912,0.3,0.14956,0.64809,5,2D1U,2.0,True,0.409,19,True,right,0.0,1.4791,2.1293,0.6502,0.4206,0.9209,0.5003,A
278,278,0.49853,1.2,1,0.3739,0.21603,0.76442,278,2.48435,0.26,0.13294,0.63147,5,2D1U,1.0,True,0.388,19,False,left,0.0,0.3713,1.0047,0.6334,1.7712,2.2714,0.5002,V
279,279,0.49853,0.1,1,0.32405,0.22434,0.76442,279,2.68377,0.74,0.3739,0.87243,5,3D1U,1.0,True,0.473,10,False,left,0.0,0.3223,1.197,0.8747,1.9639,2.4634,0.4995,V
280,280,0.49853,1.2,2,0.40713,0.22434,0.75611,280,2.23508,-0.3,-0.14956,0.34897,5,1D3U,1.0,True,0.793,8,False,left,0.0,1.6654,2.0155,0.3501,0.4065,0.907,0.5005,A
281,281,0.49853,0.1,1,0.38221,0.20772,0.60655,281,1.94428,-0.5,-0.24927,0.24927,5,1D2U,2.0,True,0.403,19,False,right,0.0,0.3805,0.6295,0.249,1.2379,1.7378,0.4999,V
282,282,0.49853,1.2,1,0.25757,0.33235,0.87243,282,2.80838,0.7,0.34897,0.8475,5,3D1U,1.0,True,3.393,11,True,left,0.0,0.2596,1.1101,0.8505,1.9851,2.4843,0.4992,A
283,283,0.49853,0.1,1,0.44868,0.24096,0.72287,283,2.54251,0.26,0.13294,0.63147,5,2D1U,1.0,True,0.407,19,False,left,0.0,0.4478,1.0811,0.6333,1.808,2.3084,0.5004,V
284,284,0.49853,1.2,1,0.35728,0.44037,0.47361,284,2.01906,-0.5,-0.24927,0.24927,5,1D2U,1.0,False,0.776,19,False,left,0.0,0.3567,0.6069,0.2502,1.0821,1.5815,0.4994,A
285,285,0.49853,0.1,2,0.21603,0.39883,0.83089,285,2.29325,-0.3,-0.14956,0.34897,5,1D3U,1.0,True,0.386,8,False,left,0.0,1.5469,1.8964,0.3496,0.2127,0.7135,0.5008,V
286,286,0.49853,1.2,1,0.35728,0.30743,0.76442,286,2.27663,-0.3,-0.14956,0.34897,5,1D3U,1.0,False,0.744,8,False,left,0.0,0.358,0.7076,0.3496,1.475,1.9749,0.4998,A
287,287,0.49853,0.1,1,0.41544,0.27419,0.67302,287,2.70868,0.7,0.34897,0.8475,5,3D1U,1.0,True,0.341,11,True,left,0.0,0.4157,1.2653,0.8497,1.9401,2.4405,0.5003,A
288,288,0.49853,1.2,1,0.41544,0.2825,0.73118,288,2.77515,0.7,0.34897,0.8475,5,3D1U,1.0,True,0.586,11,True,left,0.0,0.4151,1.2651,0.85,1.9988,2.498,0.4993,A
289,289,0.49853,0.1,2,0.23265,0.29081,0.51515,289,2.14369,0.22,0.10802,0.60655,5,2D1U,1.0,False,1.063,19,False,left,0.0,1.2467,1.8551,0.6084,0.2296,0.7304,0.5008,V
290,290,0.49853,1.2,2,0.39052,0.38221,0.60655,290,2.11046,-0.54,-0.26588,0.23265,5,1D2U,1.0,True,0.509,19,False,left,0.0,1.499,1.7319,0.2329,0.3906,0.8903,0.4997,A
291,291,0.49853,0.1,1,0.36559,0.24096,0.64809,291,2.08552,-0.34,-0.16618,0.33235,5,1D3U,1.0,False,0.553,9,True,left,0.0,0.3619,0.6947,0.3328,1.3449,1.8452,0.5003,A
292,292,0.49853,1.2,2,0.2825,0.29081,0.52346,292,1.90273,-0.38,-0.1911,0.30743,5,1D3U,1.0,True,0.443,9,False,left,0.0,1.3056,1.6141,0.3085,0.281,0.7811,0.5001,A
293,293,0.49853,0.1,2,0.34066,0.21603,0.4653,293,2.35141,0.66,0.33235,0.83089,5,3D1U,1.0,False,0.585,11,False,left,0.0,1.3093,2.1432,0.8339,0.3428,0.8426,0.4998,V
294,294,0.49853,1.2,2,0.27419,0.22434,0.76442,294,1.99413,-0.54,-0.26588,0.23265,5,1D2U,1.0,True,0.392,19,False,left,0.0,1.5452,1.7783,0.2332,0.2778,0.7779,0.5001,A
295,295,0.49853,0.1,1,0.21603,0.31574,0.49022,295,2.15199,0.26,0.13294,0.63147,5,2D1U,1.0,True,0.433,20,True,left,0.0,0.2188,0.8518,0.633,1.3441,1.8432,0.4992,V
296,296,0.49853,1.2,1,0.3739,0.38221,0.68133,296,2.56744,0.26,0.13294,0.63147,5,2D1U,1.0,True,0.532,20,True,left,0.0,0.3741,1.0069,0.6328,1.6908,2.1904,0.4996,V
297,297,0.49853,0.1,2,0.34066,0.34066,0.83089,297,2.31817,-0.38,-0.1911,0.30743,5,1D3U,1.0,True,0.476,9,False,left,0.0,1.672,1.9809,0.3089,0.3392,0.8388,0.4995,V
298,298,0.49853,1.2,2,0.23265,0.3739,0.50684,298,2.21847,0.22,0.10802,0.60655,5,2D1U,1.0,False,0.536,21,True,left,0.0,1.2396,1.8474,0.6078,0.2307,0.7313,0.5007,V
299,299,0.49853,0.1,1,0.40713,0.27419,0.78934,299,2.81669,0.7,0.34897,0.8475,5,3D1U,1.0,True,0.414,12,True,left,0.0,0.4041,1.255,0.851,2.0459,2.5454,0.4995,V
300,300,0.49853,1.2,2,0.41544,0.41544,0.83089,300,3.0078,0.7,0.34897,0.8475,5,3D1U,1.0,False,0.572,12,True,left,0.0,1.746,2.596,0.85,0.4122,0.9129,0.5007,V
301,301,0.49853,0.1,2,0.29912,0.2825,0.48191,301,1.81133,-0.5,-0.24927,0.24927,5,1D2U,1.0,True,0.383,20,True,left,0.0,1.2803,1.5303,0.25,0.297,0.7972,0.5002,A
302,302,0.49853,1.2,2,0.39883,0.24096,0.51515,302,2.28494,0.26,0.13294,0.63147,5,2D1U,1.0,False,0.432,22,True,left,0.0,1.4147,2.0476,0.6329,0.398,0.8977,0.4997,V
303,303,0.49853,0.1,2,0.2825,0.33235,0.40713,303,2.39294,0.74,0.3739,0.87243,5,3D1U,2.0,True,0.417,12,False,right,0.0,1.1938,2.0691,0.8752,0.2857,0.7857,0.5,V
304,304,0.49853,1.2,1,0.25757,0.35728,0.66471,304,2.65052,0.74,0.3739,0.87243,5,3D1U,1.0,True,0.373,12,False,left,0.0,0.2575,1.1326,0.8752,1.7994,2.2994,0.5,A
305,305,0.49853,0.1,2,0.29081,0.38221,0.54008,305,1.9609,-0.5,-0.24927,0.24927,5,1D2U,1.0,True,0.404,20,True,left,0.0,1.3283,1.5785,0.2501,0.2869,0.7867,0.4999,V
306,306,0.49853,1.2,1,0.29912,0.39883,0.49853,306,2.3431,0.3,0.14956,0.64809,5,2D1U,1.0,True,0.424,22,False,left,0.0,0.295,0.9449,0.6498,1.4448,1.9448,0.5,A
307,307,0.49853,0.1,2,0.26588,0.34066,0.85581,307,2.60897,0.3,0.14956,0.64809,5,2D1U,2.0,True,0.492,22,False,right,0.0,1.6212,2.2712,0.65,0.2628,0.7628,0.5,V
