,Unnamed: 0,standardDur,audNoise,order,preDur,postDur,isiDur,trial_num,totalDur,delta_dur_percents,deltaDurS,testDurS,intensities,current_stair,responses,is_correct,response_rts,stair_num_reversal,stair_is_reversal,response_keys,conflictDur,recordedOnsetVisualTest,recordedOffsetVisualTest,recordedDurVisualTest,recordedOnsetVisualStandard,recordedOffsetVisualStandard,recordedDurVisualStandard,modalityPostCue
0,0,0.49813,1.2,1,0.44001,0.42341,0.73058,0,2.14194,-0.9,-0.44831,0.04981,5,1D2U,2.0,True,0.727,0,False,right,0.0,0.4453,0.4952,0.0499,1.2284,1.7286,0.5002,A
1,1,0.49813,0.1,1,0.28227,0.3819,0.76379,1,1.9759,-0.9,-0.44831,0.04981,5,1D3U,1.0,False,0.484,0,False,left,0.0,0.2855,0.3356,0.0501,1.1023,1.6024,0.5001,A
2,2,0.49813,0.1,1,0.25737,0.30718,0.48152,2,2.49064,0.9,0.44831,0.94644,5,lapse_rate,1.0,True,1.874,0,False,left,0.0,0.2567,1.2065,0.9498,1.6901,2.1902,0.5001,A
3,3,0.49813,1.2,1,0.26567,0.24906,0.70568,3,1.76835,-0.9,-0.44831,0.04981,5,2D1U,2.0,True,0.871,0,False,right,0.0,0.268,0.3182,0.0501,1.0261,1.5268,0.5006,V
4,4,0.49813,0.1,2,0.43171,0.36529,0.4068,4,1.75174,-0.9,-0.44831,0.04981,5,3D1U,1.0,True,1.888,0,False,left,0.0,1.3434,1.394,0.0506,0.4353,0.9356,0.5004,A
5,5,0.49813,1.2,2,0.29057,0.21585,0.53133,5,1.58569,-0.9,-0.44831,0.04981,5,1D3U,2.0,False,0.873,0,False,right,0.0,1.3241,1.3741,0.0501,0.2908,0.791,0.5002,V
6,6,0.49813,0.1,2,0.22416,0.22416,0.68077,6,1.67703,-0.9,-0.44831,0.04981,5,1D2U,1.0,True,0.622,0,False,left,0.0,1.4081,1.4583,0.0501,0.2245,0.7247,0.5002,A
7,7,0.49813,1.2,2,0.44001,0.31548,0.54794,7,1.93439,-0.74,-0.37359,0.13283,5,3D1U,2.0,False,0.604,0,False,right,0.0,1.4906,1.6234,0.1328,0.4401,0.9403,0.5002,A
8,8,0.49813,0.1,2,0.26567,0.35699,0.53964,8,1.79326,-0.74,-0.37359,0.13283,5,2D1U,1.0,True,0.687,0,False,left,0.0,1.306,1.4394,0.1333,0.2645,0.7645,0.5,A
9,9,0.49813,1.2,1,0.4068,0.32378,0.89663,9,2.17515,-0.9,-0.44831,0.04981,5,lapse_rate,2.0,True,0.996,0,False,right,0.0,0.4118,0.4619,0.0501,1.3616,1.8619,0.5002,A
10,10,0.49813,1.2,1,0.3985,0.23246,0.68907,10,1.95099,-0.74,-0.37359,0.13283,5,1D2U,2.0,True,2.768,0,False,right,0.0,0.3955,0.5289,0.1335,1.2201,1.7207,0.5006,V
11,11,0.49813,0.1,2,0.24906,0.3902,0.81361,11,2.00081,-0.9,-0.44831,0.04981,5,1D3U,1.0,True,0.597,0,False,left,0.0,1.5639,1.6137,0.0498,0.2468,0.7468,0.5001,V
12,12,0.49813,1.2,1,0.32378,0.33208,0.81361,12,2.01741,-0.9,-0.44831,0.04981,5,1D3U,2.0,True,1.793,0,False,right,0.0,0.3285,0.3785,0.05,1.1951,1.695,0.4998,V
13,13,0.49813,0.1,2,0.23246,0.3819,0.7804,13,2.10044,-0.58,-0.29057,0.20755,5,2D1U,1.0,True,0.537,0,False,left,0.0,1.516,1.7238,0.2077,0.2326,0.7327,0.5001,A
14,14,0.49813,0.1,2,0.43171,0.36529,0.44001,14,1.78495,-0.9,-0.44831,0.04981,5,lapse_rate,1.0,True,0.974,0,False,left,0.0,1.3724,1.4219,0.0496,0.43,0.9309,0.5009,V
15,15,0.49813,1.2,1,0.34869,0.3985,0.62266,15,2.00081,-0.74,-0.37359,0.13283,5,1D2U,2.0,True,2.45,0,False,right,0.0,0.3508,0.4834,0.1326,1.1085,1.6089,0.5004,V
16,16,0.49813,0.1,2,0.23246,0.28227,0.74719,16,1.89288,-0.74,-0.37359,0.13283,5,3D1U,1.0,True,0.624,0,False,left,0.0,1.4856,1.6189,0.1333,0.2354,0.7357,0.5003,A
17,17,0.49813,1.2,2,0.44831,0.23246,0.44001,17,1.82646,-0.58,-0.29057,0.20755,5,1D2U,1.0,True,1.583,0,False,left,0.0,1.3927,1.6011,0.2083,0.451,0.9511,0.5001,A
18,18,0.49813,0.1,1,0.21585,0.23246,0.67247,18,1.90948,-0.42,-0.20755,0.29057,5,2D1U,2.0,True,0.925,0,False,right,0.0,0.2187,0.5108,0.2921,1.1853,1.6855,0.5002,V
19,19,0.49813,0.1,2,0.30718,0.23246,0.68077,19,1.76835,-0.9,-0.44831,0.04981,5,lapse_rate,2.0,False,2.291,0,False,right,0.0,1.4927,1.5428,0.0501,0.3094,0.81,0.5006,V
20,20,0.49813,1.2,2,0.34039,0.30718,0.797,20,1.99251,-0.9,-0.44831,0.04981,5,1D3U,2.0,False,0.691,0,False,right,0.0,1.6381,1.6881,0.0501,0.3376,0.8375,0.4999,A
21,21,0.49813,0.1,2,0.44831,0.26567,0.83851,21,2.25817,-0.58,-0.29057,0.20755,5,3D1U,1.0,True,0.445,0,False,left,0.0,1.7928,2.0011,0.2084,0.4515,0.9511,0.4997,A
22,22,0.49813,1.2,1,0.34869,0.34039,0.83851,22,2.31629,-0.42,-0.20755,0.29057,5,3D1U,2.0,True,3.8,0,False,right,0.0,0.3462,0.6381,0.2919,1.4796,1.9793,0.4997,A
23,23,0.49813,1.2,2,0.35699,0.24076,0.7804,23,1.92609,-0.9,-0.44831,0.04981,5,lapse_rate,2.0,False,0.697,0,False,right,0.0,1.6412,1.691,0.0498,0.3576,0.857,0.4994,A
24,24,0.49813,0.1,1,0.27397,0.31548,0.83021,24,2.12534,-0.58,-0.29057,0.20755,5,1D2U,2.0,True,0.367,0,False,right,0.0,0.275,0.4832,0.2082,1.3163,1.8163,0.4999,V
25,25,0.49813,1.2,2,0.24906,0.30718,0.63926,25,2.06722,-0.26,-0.13283,0.37359,5,2D1U,2.0,False,0.771,0,False,right,0.0,1.3887,1.7634,0.3747,0.2469,0.747,0.5,V
26,26,0.49813,0.1,1,0.20755,0.30718,0.73058,26,1.79325,-0.9,-0.44831,0.04981,5,1D3U,2.0,True,0.47,0,False,right,0.0,0.2068,0.2569,0.0501,0.9901,1.4902,0.5002,V
27,27,0.49813,1.2,1,0.25737,0.33208,0.44001,27,1.5774,-0.9,-0.44831,0.04981,5,1D3U,1.0,False,0.814,0,False,left,0.0,0.2535,0.3038,0.0503,0.7454,1.2456,0.5003,V
28,28,0.49813,0.1,1,0.3902,0.29888,0.83851,28,2.39931,-0.26,-0.13283,0.37359,5,3D1U,1.0,False,0.289,0,False,left,0.0,0.3876,0.7626,0.375,1.6043,2.1044,0.5001,V
29,29,0.49813,1.2,2,0.3985,0.44001,0.4068,29,2.11703,-0.26,-0.13283,0.37359,5,2D1U,2.0,False,2.26,0,False,right,0.0,1.309,1.6848,0.3757,0.4011,0.901,0.4999,A
30,30,0.49813,1.2,2,0.30718,0.24076,0.51473,30,2.50724,0.9,0.44831,0.94644,5,lapse_rate,2.0,True,2.422,0,False,right,0.0,1.3233,2.274,0.9507,0.3064,0.8063,0.4999,V
31,31,0.49813,0.1,2,0.29888,0.4151,0.81361,31,2.31629,-0.42,-0.20755,0.29057,5,1D2U,1.0,True,0.305,0,False,left,0.0,1.6169,1.9082,0.2912,0.2998,0.7994,0.4996,V
32,32,0.49813,1.2,2,0.42341,0.29057,0.46492,32,1.72684,-0.9,-0.44831,0.04981,5,1D3U,1.0,True,2.859,0,False,left,0.0,1.3948,1.445,0.0502,0.4282,0.9285,0.5002,V
33,33,0.49813,0.1,2,0.35699,0.42341,0.48982,33,2.14194,-0.26,-0.13283,0.37359,5,3D1U,1.0,True,0.467,0,False,left,0.0,1.3495,1.7238,0.3743,0.3575,0.8578,0.5004,A
34,34,0.49813,1.2,2,0.21585,0.27397,0.7804,34,1.81816,-0.9,-0.44831,0.04981,5,lapse_rate,2.0,False,1.724,0,False,right,0.0,1.4978,1.5482,0.0504,0.2145,0.7142,0.4996,A
35,35,0.49813,1.2,2,0.44831,0.36529,0.88832,35,2.53213,-0.34,-0.16604,0.33208,5,2D1U,2.0,False,1.893,1,True,right,0.0,1.8386,2.1719,0.3333,0.447,0.947,0.5,V
36,36,0.49813,0.1,2,0.28227,0.37359,0.44831,36,1.89287,-0.42,-0.20755,0.29057,5,1D2U,1.0,True,0.412,0,False,left,0.0,1.2356,1.5279,0.2922,0.2864,0.7862,0.4998,V
37,37,0.49813,0.1,1,0.35699,0.4068,0.49813,37,2.70649,0.9,0.44831,0.94644,5,lapse_rate,1.0,True,0.51,0,False,left,0.0,0.3561,1.3058,0.9496,1.8063,2.3063,0.5,V
38,38,0.49813,1.2,2,0.24906,0.34869,0.74719,38,2.17515,-0.34,-0.16604,0.33208,5,2D1U,2.0,False,1.325,1,True,right,0.0,1.5033,1.8362,0.3329,0.2522,0.7529,0.5007,A
39,39,0.49813,0.1,1,0.31548,0.44001,0.7804,39,2.08383,-0.9,-0.44831,0.04981,5,1D3U,2.0,True,0.408,0,False,right,0.0,0.3177,0.3676,0.0499,1.1509,1.6504,0.4995,V
40,40,0.49813,1.2,2,0.20755,0.25737,0.68907,40,2.02571,-0.26,-0.13283,0.37359,5,1D2U,1.0,True,1.975,0,False,left,0.0,1.3972,1.7725,0.3754,0.2053,0.7054,0.5001,V
41,41,0.49813,0.1,1,0.30718,0.4068,0.85512,41,2.51554,-0.1,-0.04981,0.44831,5,3D1U,1.0,False,2.158,0,False,left,0.0,0.3107,0.7604,0.4498,1.6192,2.1198,0.5006,V
42,42,0.49813,1.2,1,0.4068,0.20755,0.49813,42,2.05892,-0.1,-0.04981,0.44831,5,3D1U,1.0,False,0.951,0,False,left,0.0,0.4077,0.8579,0.4502,1.3576,1.8579,0.5003,V
43,43,0.49813,0.1,2,0.37359,0.44001,0.84681,43,2.44911,-0.42,-0.20755,0.29057,5,2D1U,1.0,True,2.229,1,False,left,0.0,1.7273,2.0188,0.2916,0.3772,0.8767,0.4995,A
44,44,0.49813,1.2,2,0.24076,0.4151,0.81361,44,2.34119,-0.26,-0.13283,0.37359,5,1D2U,2.0,False,0.98,0,False,right,0.0,1.556,1.9302,0.3742,0.2385,0.7387,0.5002,A
45,45,0.49813,0.1,1,0.32378,0.30718,0.7804,45,1.9593,-0.9,-0.44831,0.04981,5,1D3U,2.0,True,0.934,0,False,right,0.0,0.324,0.3746,0.0506,1.158,1.6578,0.4997,V
46,46,0.49813,0.1,2,0.35699,0.44001,0.55624,46,2.79781,0.9,0.44831,0.94644,5,lapse_rate,2.0,True,0.359,0,False,right,0.0,1.4204,2.3703,0.9499,0.3614,0.8621,0.5007,A
47,47,0.49813,1.2,2,0.28227,0.33208,0.55624,47,2.0008,-0.34,-0.16604,0.33208,5,1D2U,1.0,True,0.501,1,True,left,0.0,1.3415,1.6751,0.3336,0.2833,0.7825,0.4992,A
48,48,0.49813,0.1,1,0.3902,0.30718,0.43171,48,1.71854,-0.82,-0.4068,0.09132,5,1D3U,1.0,False,2.677,1,True,left,0.0,0.3894,0.4804,0.091,0.9139,1.4139,0.4999,A
49,49,0.49813,1.2,1,0.44831,0.27397,0.83851,49,2.50723,-0.1,-0.04981,0.44831,5,3D1U,2.0,True,2.602,0,False,right,0.0,0.4454,0.8951,0.4497,1.7376,2.2376,0.5,A
50,50,0.49813,0.1,2,0.44831,0.3985,0.84681,50,2.49893,-0.38,-0.19095,0.30718,5,2D1U,1.0,True,0.343,2,True,left,0.0,1.7992,2.1076,0.3084,0.4488,0.9495,0.5007,A
51,51,0.49813,1.2,1,0.30718,0.30718,0.83021,51,1.99251,-0.9,-0.44831,0.04981,5,lapse_rate,2.0,True,1.736,0,False,right,0.0,0.3062,0.3564,0.0501,1.1896,1.6894,0.4998,A
52,52,0.49813,1.2,2,0.22416,0.37359,0.67247,52,2.29968,0.06,0.03321,0.53133,5,3D1U,2.0,True,1.525,0,False,right,0.0,1.3994,1.9329,0.5334,0.224,0.7245,0.5005,V
53,53,0.49813,1.2,2,0.34869,0.21585,0.47322,53,1.5857,-0.9,-0.44831,0.04981,5,lapse_rate,2.0,False,1.751,0,False,right,0.0,1.3281,1.378,0.0499,0.3529,0.8529,0.5001,V
54,54,0.49813,0.1,1,0.31548,0.3985,0.56454,54,2.10873,-0.34,-0.16604,0.33208,5,2D1U,2.0,True,0.408,2,False,right,0.0,0.3165,0.6491,0.3327,1.2165,1.7162,0.4997,V
55,55,0.49813,1.2,2,0.28227,0.31548,0.69738,55,1.85968,-0.86,-0.43171,0.06642,5,1D3U,1.0,True,1.668,2,True,left,0.0,1.4866,1.5532,0.0665,0.2863,0.7864,0.5001,V
56,56,0.49813,0.1,2,0.29057,0.4151,0.49813,56,2.03401,-0.34,-0.16604,0.33208,5,1D2U,1.0,True,0.973,1,True,left,0.0,1.2888,1.6221,0.3333,0.2885,0.7887,0.5003,A
57,57,0.49813,1.2,1,0.32378,0.29888,0.797,57,2.44912,0.06,0.03321,0.53133,5,3D1U,1.0,True,1.626,0,False,left,0.0,0.3241,0.8574,0.5333,1.6577,2.1576,0.5,A
58,58,0.49813,0.1,1,0.44831,0.28227,0.68077,58,2.25817,-0.3,-0.14944,0.34869,5,2D1U,2.0,True,0.308,2,False,right,0.0,0.453,0.8033,0.3504,1.4865,1.9874,0.5009,V
59,59,0.49813,1.2,2,0.3902,0.42341,0.55624,59,2.81442,0.9,0.44831,0.94644,5,lapse_rate,2.0,True,0.601,0,False,right,0.0,1.4478,2.3978,0.95,0.3899,0.8896,0.4997,V
60,60,0.49813,1.2,1,0.3985,0.29888,0.68077,60,1.9427,-0.86,-0.43171,0.06642,5,1D3U,1.0,False,1.137,2,True,left,0.0,0.4004,0.4667,0.0663,1.1501,1.6506,0.5004,V
61,61,0.49813,0.1,2,0.36529,0.30718,0.797,61,2.31629,-0.3,-0.14944,0.34869,5,1D2U,2.0,False,0.541,2,True,right,0.0,1.6701,2.0194,0.3494,0.3693,0.8701,0.5008,V
62,62,0.49813,1.2,2,0.3902,0.44831,0.65587,62,2.32459,-0.34,-0.16604,0.33208,5,1D2U,1.0,True,1.384,3,True,left,0.0,1.5529,1.887,0.3341,0.3945,0.8941,0.4995,A
63,63,0.49813,0.1,1,0.35699,0.42341,0.58945,63,2.39931,0.06,0.03321,0.53133,5,3D1U,2.0,False,0.25,0,False,right,0.0,0.3558,0.8886,0.5328,1.4815,1.9812,0.4997,V
64,64,0.49813,1.2,1,0.22416,0.44001,0.84681,64,2.05892,-0.9,-0.44831,0.04981,5,1D3U,2.0,True,2.092,2,False,right,0.0,0.221,0.271,0.05,1.1214,1.6209,0.4995,V
65,65,0.49813,0.1,1,0.31548,0.34039,0.7721,65,1.97591,-0.9,-0.44831,0.04981,5,lapse_rate,2.0,True,0.967,0,False,right,0.0,0.3147,0.3652,0.0505,1.1395,1.639,0.4995,A
66,66,0.49813,0.1,1,0.4151,0.44831,0.50643,66,2.24156,-0.26,-0.13283,0.37359,5,2D1U,2.0,True,0.374,2,False,right,0.0,0.4127,0.7876,0.3749,1.2958,1.7961,0.5003,V
67,67,0.49813,1.2,1,0.25737,0.20755,0.68077,67,2.03402,-0.22,-0.10793,0.3902,5,2D1U,1.0,False,1.434,2,False,left,0.0,0.2596,0.6519,0.3923,1.3354,1.8353,0.4999,V
68,68,0.49813,0.1,2,0.29057,0.29057,0.68907,68,2.10042,-0.34,-0.16604,0.33208,5,1D2U,1.0,True,0.808,3,True,left,0.0,1.4846,1.8181,0.3336,0.2928,0.7929,0.5001,V
69,69,0.49813,0.1,2,0.32378,0.3985,0.43171,69,1.70193,-0.9,-0.44831,0.04981,5,lapse_rate,1.0,True,0.546,0,False,left,0.0,1.2617,1.3115,0.0498,0.3283,0.8284,0.5001,A
70,70,0.49813,1.2,2,0.34039,0.43171,0.44001,70,2.31629,0.22,0.10793,0.60605,5,3D1U,2.0,True,0.346,0,False,right,0.0,1.2866,1.8943,0.6077,0.3445,0.8455,0.501,A
71,71,0.49813,0.1,2,0.43171,0.20755,0.71398,71,1.90118,-0.9,-0.44831,0.04981,5,1D3U,1.0,True,0.633,2,False,left,0.0,1.6506,1.7005,0.0499,0.4338,0.9337,0.4999,V
72,72,0.49813,1.2,1,0.34039,0.36529,0.42341,72,2.01742,-0.22,-0.10793,0.3902,5,2D1U,1.0,False,2.9,2,False,left,0.0,0.3428,0.7348,0.392,1.1595,1.6594,0.4999,V
73,73,0.49813,0.1,2,0.36529,0.44001,0.63926,73,2.88913,0.9,0.44831,0.94644,5,lapse_rate,2.0,True,0.108,0,False,right,0.0,1.511,2.4607,0.9498,0.3695,0.8691,0.4996,A
74,74,0.49813,0.1,1,0.32378,0.44831,0.71398,74,2.03401,-0.9,-0.44831,0.04981,5,1D3U,2.0,True,0.284,2,False,right,0.0,0.3278,0.3782,0.0504,1.0949,1.5963,0.5013,A
75,75,0.49813,1.2,1,0.3819,0.32378,0.63926,75,2.19176,-0.3,-0.14944,0.34869,5,1D2U,1.0,False,0.406,4,True,left,0.0,0.3846,0.7344,0.3499,1.3759,1.876,0.5,A
76,76,0.49813,0.1,2,0.3902,0.34869,0.797,76,2.64007,0.22,0.10793,0.60605,5,3D1U,2.0,True,0.158,0,False,right,0.0,1.6912,2.299,0.6078,0.391,0.8901,0.4991,V
77,77,0.49813,1.2,2,0.43171,0.25737,0.89663,77,2.41592,-0.34,-0.16604,0.33208,5,1D2U,1.0,True,0.642,5,True,left,0.0,1.8314,2.1651,0.3337,0.4311,0.9315,0.5004,V
78,78,0.49813,0.1,2,0.36529,0.26567,0.50643,78,1.70194,-0.86,-0.43171,0.06642,5,1D3U,1.0,True,0.458,3,True,left,0.0,1.3745,1.4413,0.0668,0.3664,0.8659,0.4994,A
79,79,0.49813,0.1,2,0.26567,0.29888,0.7804,79,1.89289,-0.9,-0.44831,0.04981,5,lapse_rate,1.0,True,0.453,0,False,left,0.0,1.5471,1.5972,0.0502,0.2638,0.7634,0.4996,A
80,80,0.49813,1.2,1,0.33208,0.34869,0.81361,80,2.59856,0.22,0.10793,0.60605,5,3D1U,1.0,True,1.033,0,False,left,0.0,0.3359,0.9444,0.6085,1.7613,2.2612,0.4999,V
81,81,0.49813,0.1,1,0.42341,0.29888,0.71398,81,2.30799,-0.26,-0.13283,0.37359,5,2D1U,2.0,True,0.141,3,True,right,0.0,0.4217,0.7971,0.3753,1.5139,2.0138,0.4999,A
82,82,0.49813,1.2,1,0.3985,0.19925,0.50643,82,1.93439,-0.34,-0.16604,0.33208,5,1D2U,1.0,False,0.66,5,True,left,0.0,0.4003,0.7334,0.3331,1.2416,1.7416,0.5,V
83,83,0.49813,0.1,1,0.3819,0.34869,0.85512,83,2.15026,-0.86,-0.43171,0.06642,5,1D3U,2.0,True,0.111,3,True,right,0.0,0.386,0.4532,0.0672,1.3109,1.8115,0.5006,V
84,84,0.49813,1.2,2,0.29057,0.34039,0.47322,84,1.99251,-0.22,-0.10793,0.3902,5,2D1U,1.0,True,1.535,4,True,left,0.0,1.2642,1.6559,0.3916,0.2899,0.7895,0.4996,V
85,85,0.49813,0.1,1,0.29888,0.34869,0.55624,85,2.27478,0.14,0.06642,0.57284,5,3D1U,2.0,False,1.95,1,True,right,0.0,0.3035,0.8777,0.5742,1.4358,1.9364,0.5006,A
86,86,0.49813,1.2,1,0.37359,0.42341,0.57284,86,1.91778,-0.9,-0.44831,0.04981,5,lapse_rate,2.0,True,0.334,0,False,right,0.0,0.3769,0.4275,0.0506,1.0019,1.5025,0.5006,A
87,87,0.49813,1.2,1,0.20755,0.21585,0.89663,87,2.12534,-0.38,-0.19095,0.30718,5,1D2U,2.0,True,0.504,5,False,right,0.0,0.2062,0.5137,0.3075,1.4146,1.9144,0.4998,A
88,88,0.49813,0.1,2,0.4151,0.31548,0.44831,88,1.74344,-0.86,-0.43171,0.06642,5,1D3U,1.0,True,0.453,3,True,left,0.0,1.3626,1.4293,0.0667,0.4127,0.9129,0.5003,V
89,89,0.49813,1.2,2,0.42341,0.42341,0.44831,89,2.20006,-0.18,-0.09132,0.4068,5,2D1U,2.0,False,0.358,4,False,right,0.0,1.3786,1.7866,0.4079,0.4282,0.9284,0.5003,V
90,90,0.49813,1.2,1,0.25737,0.29888,0.76379,90,2.76461,0.9,0.44831,0.94644,5,lapse_rate,1.0,True,0.448,0,False,left,0.0,0.2585,1.209,0.9505,1.9757,2.475,0.4993,V
91,91,0.49813,0.1,2,0.19925,0.36529,0.46492,91,2.11704,0.18,0.09132,0.58945,5,3D1U,2.0,True,0.804,2,True,right,0.0,1.1656,1.7571,0.5914,0.1989,0.6988,0.4998,A
92,92,0.49813,1.2,2,0.4151,0.25737,0.53133,92,2.29138,0.18,0.09132,0.58945,5,3D1U,1.0,False,0.655,2,True,left,0.0,1.4493,2.0408,0.5915,0.4153,0.9156,0.5002,V
93,93,0.49813,0.1,1,0.27397,0.20755,0.63096,93,2.01741,-0.18,-0.09132,0.4068,5,2D1U,2.0,True,0.242,4,False,right,0.0,0.277,0.6858,0.4087,1.3189,1.8183,0.4995,A
94,94,0.49813,1.2,2,0.24906,0.37359,0.7804,94,2.20836,-0.38,-0.19095,0.30718,5,1D2U,1.0,True,0.359,5,False,left,0.0,1.5347,1.8427,0.308,0.2512,0.7515,0.5003,A
95,95,0.49813,0.1,2,0.4151,0.21585,0.43171,95,1.65211,-0.82,-0.4068,0.09132,5,1D3U,1.0,True,0.401,3,False,left,0.0,1.3482,1.4401,0.0919,0.4149,0.9151,0.5002,A
96,96,0.49813,0.1,1,0.20755,0.4068,0.51473,96,2.57365,0.9,0.44831,0.94644,5,lapse_rate,1.0,True,0.299,0,False,left,0.0,0.2045,1.1541,0.9496,1.6709,2.1706,0.4997,A
97,97,0.49813,1.2,2,0.44831,0.30718,0.86342,97,2.72309,0.22,0.10793,0.60605,5,3D1U,1.0,False,0.53,2,False,left,0.0,1.8169,2.4252,0.6083,0.4505,0.95,0.4995,A
98,98,0.49813,0.1,2,0.3819,0.21585,0.82191,98,2.00911,-0.82,-0.4068,0.09132,5,1D3U,1.0,True,0.351,3,False,left,0.0,1.7078,1.7996,0.0918,0.383,0.8823,0.4993,V
99,99,0.49813,1.2,2,0.34039,0.22416,0.66417,99,2.15856,-0.14,-0.06642,0.43171,5,2D1U,1.0,True,0.533,4,False,left,0.0,1.5094,1.943,0.4336,0.3426,0.8432,0.5006,V
100,100,0.49813,0.1,2,0.44001,0.42341,0.65587,100,2.3495,-0.34,-0.16604,0.33208,5,1D2U,1.0,True,0.877,6,True,left,0.0,1.5972,1.9299,0.3327,0.4381,0.9378,0.4997,A
101,101,0.49813,0.1,2,0.4068,0.29057,0.73058,101,2.87252,0.9,0.44831,0.94644,5,lapse_rate,2.0,True,0.107,0,False,right,0.0,1.6442,2.5944,0.9501,0.411,0.9106,0.4997,V
102,102,0.49813,1.2,1,0.36529,0.42341,0.52303,102,2.14194,-0.34,-0.16604,0.33208,5,1D2U,2.0,True,0.11,6,True,right,0.0,0.3639,0.6974,0.3336,1.2224,1.7225,0.5,V
103,103,0.49813,0.1,2,0.44831,0.42341,0.50643,103,1.9676,-0.82,-0.4068,0.09132,5,1D3U,1.0,True,0.317,3,False,left,0.0,1.459,1.5502,0.0912,0.4508,0.9506,0.4998,A
104,104,0.49813,1.2,2,0.44001,0.23246,0.49813,104,2.11704,-0.1,-0.04981,0.44831,5,2D1U,2.0,False,0.446,4,False,right,0.0,1.4438,1.8937,0.4499,0.4441,0.944,0.4999,A
105,105,0.49813,0.1,2,0.26567,0.4068,0.61436,105,2.41592,0.26,0.13283,0.63096,5,3D1U,2.0,True,0.422,2,False,right,0.0,1.3866,2.021,0.6344,0.2703,0.7704,0.5001,V
106,106,0.49813,0.1,2,0.32378,0.43171,0.71398,106,2.91404,0.9,0.44831,0.94644,5,lapse_rate,2.0,True,2.209,0,False,right,0.0,1.5422,2.4924,0.9501,0.3256,0.8259,0.5003,A
107,107,0.49813,0.1,2,0.33208,0.35699,0.83021,107,2.06722,-0.9,-0.44831,0.04981,5,lapse_rate,1.0,True,0.384,0,False,left,0.0,1.6696,1.7202,0.0506,0.3363,0.8367,0.5003,V
108,108,0.49813,1.2,1,0.31548,0.4151,0.73889,108,2.41591,-0.1,-0.04981,0.44831,5,2D1U,1.0,False,0.691,4,False,left,0.0,0.3167,0.7666,0.45,1.5079,2.008,0.5001,A
109,109,0.49813,0.1,1,0.33208,0.34039,0.65587,109,1.9344,-0.78,-0.3902,0.10793,5,1D3U,2.0,True,0.308,3,False,right,0.0,0.3362,0.4436,0.1075,1.1024,1.6024,0.5,V
110,110,0.49813,1.2,2,0.43171,0.36529,0.58115,110,2.50724,0.26,0.13283,0.63096,5,3D1U,1.0,False,0.481,2,False,left,0.0,1.5163,2.1496,0.6333,0.4329,0.9324,0.4995,A
111,111,0.49813,0.1,2,0.3902,0.27397,0.71398,111,2.22497,-0.3,-0.14944,0.34869,5,1D2U,1.0,True,0.366,6,False,left,0.0,1.6101,1.9604,0.3503,0.3936,0.8933,0.4997,A
112,112,0.49813,1.2,2,0.23246,0.24906,0.45662,112,1.5442,-0.78,-0.3902,0.10793,5,1D3U,1.0,True,0.408,3,False,left,0.0,1.1874,1.2956,0.1082,0.2291,0.7291,0.4999,A
113,113,0.49813,0.1,1,0.28227,0.3985,0.47322,113,2.00081,-0.3,-0.14944,0.34869,5,1D2U,2.0,True,0.592,6,False,right,0.0,0.2835,0.6334,0.3499,1.1086,1.609,0.5003,A
114,114,0.49813,1.2,1,0.44001,0.23246,0.43171,114,2.24987,0.3,0.14944,0.64756,5,3D1U,1.0,True,0.282,2,False,left,0.0,0.4392,1.0896,0.6503,1.5226,2.0228,0.5001,V
115,115,0.49813,0.1,1,0.3985,0.3985,0.87172,115,2.59856,-0.14,-0.06642,0.43171,5,2D1U,1.0,False,1.5,5,True,left,0.0,0.3968,0.83,0.4332,1.7053,2.2049,0.4995,V
116,116,0.49813,1.2,2,0.34869,0.34039,0.72228,116,2.85593,0.9,0.44831,0.94644,5,lapse_rate,2.0,True,1.832,0,False,right,0.0,1.5743,2.5243,0.95,0.3499,0.849,0.4991,A
117,117,0.49813,1.2,1,0.44001,0.35699,0.4151,117,2.65667,0.9,0.44831,0.94644,5,lapse_rate,2.0,False,0.825,0,False,right,0.0,0.4371,1.3876,0.9505,1.8043,2.3035,0.4992,V
118,118,0.49813,1.2,1,0.24906,0.37359,0.55624,118,1.78495,-0.78,-0.3902,0.10793,5,1D3U,1.0,False,1.344,3,False,left,0.0,0.2493,0.3578,0.1086,0.9161,1.4162,0.5001,A
119,119,0.49813,0.1,1,0.34039,0.26567,0.43171,119,2.18346,0.3,0.14944,0.64756,5,3D1U,1.0,True,0.6,2,False,left,0.0,0.3412,0.9906,0.6494,1.4245,1.9244,0.4998,V
120,120,0.49813,1.2,2,0.30718,0.21585,0.83851,120,2.23326,-0.26,-0.13283,0.37359,5,1D2U,1.0,True,0.391,6,False,left,0.0,1.6497,2.0246,0.3749,0.307,0.8084,0.5014,V
121,121,0.49813,0.1,2,0.3819,0.42341,0.70568,121,2.44083,-0.14,-0.06642,0.43171,5,2D1U,1.0,True,2.079,5,True,left,0.0,1.5943,2.0276,0.4333,0.386,0.8859,0.4999,V
122,122,0.49813,1.2,1,0.34039,0.34039,0.74719,122,2.57366,0.3,0.14944,0.64756,5,3D1U,1.0,True,0.262,2,False,left,0.0,0.3377,0.9877,0.6499,1.7382,2.2371,0.4989,A
123,123,0.49813,0.1,2,0.32378,0.44001,0.4151,123,1.72683,-0.9,-0.44831,0.04981,5,lapse_rate,1.0,True,0.237,0,False,left,0.0,1.2413,1.291,0.0498,0.3244,0.8245,0.5001,V
124,124,0.49813,0.1,1,0.27397,0.29057,0.52303,124,2.03401,-0.1,-0.04981,0.44831,5,2D1U,1.0,False,0.302,6,True,left,0.0,0.2706,0.7205,0.4498,1.2463,1.7461,0.4998,V
125,125,0.49813,1.2,2,0.4068,0.4151,0.59775,125,2.29137,-0.26,-0.13283,0.37359,5,1D2U,1.0,True,0.142,6,False,left,0.0,1.5049,1.88,0.3751,0.405,0.9049,0.4999,V
126,126,0.49813,0.1,1,0.29888,0.37359,0.54794,126,1.80986,-0.82,-0.4068,0.09132,5,1D3U,2.0,True,1.401,4,True,right,0.0,0.3023,0.3942,0.0918,0.9442,1.4441,0.4999,A
127,127,0.49813,1.2,2,0.32378,0.27397,0.76379,127,2.24987,-0.22,-0.10793,0.3902,5,1D2U,1.0,True,1.185,6,False,left,0.0,1.5908,1.9828,0.392,0.3238,0.8241,0.5003,A
128,128,0.49813,0.1,2,0.37359,0.24906,0.65587,128,2.22496,-0.1,-0.04981,0.44831,5,2D1U,2.0,False,0.556,6,True,right,0.0,1.5305,1.9803,0.4498,0.3719,0.8714,0.4995,A
129,129,0.49813,1.2,1,0.3985,0.32378,0.82191,129,2.13364,-0.82,-0.4068,0.09132,5,1D3U,2.0,True,0.9,4,True,right,0.0,0.4028,0.4946,0.0918,1.3195,1.8195,0.5,A
130,130,0.49813,0.1,2,0.34039,0.21585,0.61436,130,2.29969,0.26,0.13283,0.63096,5,3D1U,2.0,True,1.309,3,True,right,0.0,1.4576,2.0909,0.6333,0.3409,0.8408,0.4999,A
131,131,0.49813,1.2,1,0.35699,0.37359,0.62266,131,1.90118,-0.9,-0.44831,0.04981,5,lapse_rate,1.0,False,0.4,0,False,left,0.0,0.3597,0.4097,0.05,1.0348,1.5348,0.4999,A
132,132,0.49813,1.2,2,0.43171,0.32378,0.7887,132,2.98876,0.9,0.44831,0.94644,5,lapse_rate,2.0,True,1.1,0,False,right,0.0,1.7273,2.6774,0.9501,0.436,0.9352,0.4992,V
133,133,0.49813,1.2,1,0.30718,0.29888,0.88002,133,2.61517,0.26,0.13283,0.63096,5,3D1U,1.0,True,1.861,3,True,left,0.0,0.3056,0.939,0.6334,1.8216,2.3224,0.5008,V
134,134,0.49813,0.1,2,0.29057,0.3902,0.81361,134,2.38271,-0.22,-0.10793,0.3902,5,1D2U,1.0,True,0.732,6,False,left,0.0,1.6061,1.9983,0.3922,0.2895,0.7898,0.5003,V
135,135,0.49813,1.2,2,0.3985,0.42341,0.75549,135,2.50724,-0.14,-0.06642,0.43171,5,2D1U,1.0,True,0.25,7,True,left,0.0,1.6564,2.0898,0.4334,0.3983,0.8981,0.4998,V
136,136,0.49813,0.1,1,0.32378,0.3985,0.44001,136,1.75174,-0.82,-0.4068,0.09132,5,1D3U,2.0,True,2.5,4,True,right,0.0,0.325,0.4171,0.0921,0.8588,1.3592,0.5004,V
137,137,0.49813,1.2,1,0.32378,0.26567,0.63096,137,1.82647,-0.78,-0.3902,0.10793,5,1D3U,1.0,False,1.676,5,True,left,0.0,0.3249,0.4334,0.1085,1.0667,1.5666,0.5,A
138,138,0.49813,0.1,2,0.23246,0.24076,0.49813,138,1.91779,-0.1,-0.04981,0.44831,5,2D1U,1.0,True,0.634,8,True,left,0.0,1.2334,1.6834,0.45,0.2328,0.7329,0.5001,V
139,139,0.49813,1.2,1,0.44001,0.43171,0.81361,139,2.81442,0.26,0.13283,0.63096,5,3D1U,1.0,True,0.725,3,True,left,0.0,0.4425,1.0764,0.6338,1.893,2.3933,0.5003,A
140,140,0.49813,0.1,1,0.44001,0.23246,0.58945,140,2.16685,-0.18,-0.09132,0.4068,5,1D2U,2.0,True,1.946,6,False,right,0.0,0.4388,0.8465,0.4077,1.4389,1.9386,0.4998,A
141,141,0.49813,1.2,2,0.21585,0.32378,0.59775,141,2.58195,0.9,0.44831,0.94644,5,lapse_rate,1.0,False,1.424,0,False,left,0.0,1.3179,2.2675,0.9496,0.2173,0.7179,0.5006,V
142,142,0.49813,1.2,1,0.20755,0.23246,0.46492,142,1.49438,-0.82,-0.4068,0.09132,5,1D3U,2.0,True,1.581,6,True,right,0.0,0.2064,0.2985,0.092,0.7652,1.2653,0.5001,V
143,143,0.49813,0.1,2,0.29888,0.44831,0.67247,143,2.39101,-0.06,-0.03321,0.47322,5,2D1U,1.0,True,0.814,8,False,left,0.0,1.4704,1.9453,0.4749,0.2956,0.7956,0.5001,A
144,144,0.49813,1.2,1,0.3985,0.21585,0.89663,144,2.49893,-0.02,-0.0083,0.48982,5,2D1U,2.0,True,0.525,8,False,right,0.0,0.4019,0.8935,0.4915,1.7941,2.2945,0.5004,A
145,145,0.49813,0.1,2,0.4151,0.33208,0.84681,145,2.49892,-0.18,-0.09132,0.4068,5,1D2U,2.0,False,0.633,6,False,right,0.0,1.7676,2.1755,0.4079,0.4173,0.9175,0.5003,V
146,146,0.49813,1.2,1,0.37359,0.27397,0.67247,146,2.42421,0.22,0.10793,0.60605,5,3D1U,1.0,True,0.309,3,False,left,0.0,0.3766,0.9847,0.6081,1.6599,2.16,0.5,A
147,147,0.49813,0.1,2,0.29888,0.29888,0.66417,147,2.36611,0.22,0.10793,0.60605,5,3D1U,2.0,True,0.242,3,False,right,0.0,1.4657,2.074,0.6083,0.2985,0.7988,0.5003,V
148,148,0.49813,1.2,2,0.30718,0.3902,0.59775,148,2.18346,-0.22,-0.10793,0.3902,5,1D2U,1.0,True,0.623,7,True,left,0.0,1.4108,1.8021,0.3913,0.3104,0.8105,0.5001,A
149,149,0.49813,0.1,2,0.33208,0.26567,0.86342,149,2.3495,-0.22,-0.10793,0.3902,5,1D2U,1.0,True,0.717,7,True,left,0.0,1.7029,2.0938,0.3909,0.336,0.8369,0.5009,V
150,150,0.49813,1.2,2,0.43171,0.31548,0.55624,150,1.89288,-0.82,-0.4068,0.09132,5,1D3U,1.0,True,2.991,6,True,left,0.0,1.4924,1.584,0.0916,0.4339,0.934,0.5001,V
151,151,0.49813,0.1,1,0.25737,0.29888,0.49813,151,2.05894,0.02,0.0083,0.50643,5,2D1U,2.0,False,0.477,8,False,right,0.0,0.2602,0.7684,0.5082,1.2687,1.7685,0.4998,A
152,152,0.49813,1.2,1,0.34869,0.27397,0.51473,152,1.72684,-0.82,-0.4068,0.09132,5,1D3U,1.0,False,2.243,6,True,left,0.0,0.3516,0.4438,0.0921,0.9607,1.46,0.4992,A
153,153,0.49813,0.1,2,0.42341,0.3902,0.81361,153,2.19177,-0.86,-0.43171,0.06642,5,1D3U,1.0,True,0.392,6,False,left,0.0,1.7435,1.8109,0.0674,0.4277,0.9274,0.4997,V
154,154,0.49813,1.2,1,0.20755,0.34869,0.47322,154,1.93439,-0.18,-0.09132,0.4068,5,1D2U,1.0,False,0.866,8,True,left,0.0,0.208,0.6169,0.4089,1.0924,1.5922,0.4998,A
155,155,0.49813,0.1,2,0.30718,0.3819,0.48152,155,2.27478,0.22,0.10793,0.60605,5,3D1U,2.0,True,0.358,3,False,right,0.0,1.2932,1.9012,0.608,0.3097,0.8093,0.4997,A
156,156,0.49813,1.2,2,0.32378,0.23246,0.73889,156,2.32459,0.06,0.03321,0.53133,5,2D1U,2.0,True,0.379,8,False,right,0.0,1.5683,2.1014,0.5331,0.3259,0.8261,0.5002,A
157,157,0.49813,0.1,2,0.32378,0.29057,0.47322,157,1.65212,-0.86,-0.43171,0.06642,5,1D3U,1.0,True,0.399,6,False,left,0.0,1.2985,1.365,0.0665,0.323,0.8235,0.5005,A
158,158,0.49813,1.2,2,0.34039,0.19925,0.797,158,2.42422,0.18,0.09132,0.58945,5,3D1U,2.0,True,0.567,3,False,right,0.0,1.641,2.2325,0.5915,0.341,0.8402,0.4992,A
159,159,0.49813,0.1,2,0.21585,0.21585,0.57284,159,2.034,0.06,0.03321,0.53133,5,2D1U,1.0,False,0.383,8,False,left,0.0,1.2891,1.8226,0.5335,0.2139,0.714,0.5001,V
160,160,0.49813,1.2,1,0.21585,0.27397,0.52303,160,1.90118,-0.22,-0.10793,0.3902,5,1D2U,1.0,False,1.287,9,True,left,0.0,0.215,0.6071,0.3921,1.1318,1.6319,0.5001,A
161,161,0.49813,0.1,1,0.43171,0.24076,0.69738,161,1.9344,-0.86,-0.43171,0.06642,5,1D3U,2.0,True,0.313,6,False,right,0.0,0.4355,0.5024,0.0669,1.2025,1.7024,0.4999,A
162,162,0.49813,1.2,2,0.22416,0.30718,0.49813,162,2.11705,0.18,0.09132,0.58945,5,3D1U,2.0,True,0.295,3,False,right,0.0,1.2284,1.8201,0.5916,0.2284,0.7283,0.4999,V
163,163,0.49813,0.1,2,0.44001,0.24906,0.63926,163,1.91778,-0.82,-0.4068,0.09132,5,1D3U,1.0,True,0.258,7,True,left,0.0,1.5792,1.6705,0.0913,0.4374,0.9372,0.4997,A
164,164,0.49813,1.2,2,0.27397,0.20755,0.58115,164,1.93439,-0.26,-0.13283,0.37359,5,1D2U,1.0,True,0.616,9,False,left,0.0,1.3621,1.7364,0.3744,0.2781,0.7784,0.5003,V
165,165,0.49813,0.1,2,0.34869,0.42341,0.8053,165,2.62347,0.1,0.04981,0.54794,5,2D1U,1.0,False,0.253,8,False,left,0.0,1.6554,2.2053,0.5499,0.3467,0.8464,0.4997,V
166,166,0.49813,1.2,2,0.3985,0.31548,0.74719,166,2.54875,0.18,0.09132,0.58945,5,3D1U,2.0,True,0.316,3,False,right,0.0,1.6463,2.2387,0.5924,0.3969,0.8965,0.4997,V
167,167,0.49813,0.1,1,0.36529,0.29888,0.4151,167,2.15024,0.14,0.06642,0.57284,5,2D1U,1.0,True,0.632,8,False,left,0.0,0.3667,0.9414,0.5747,1.3581,1.858,0.4999,A
168,168,0.49813,1.2,1,0.34869,0.24906,0.69738,168,2.16685,-0.26,-0.13283,0.37359,5,1D2U,2.0,True,0.36,9,False,right,0.0,0.346,0.72,0.374,1.4206,1.9205,0.4999,A
169,169,0.49813,0.1,1,0.44001,0.44831,0.68907,169,2.16684,-0.82,-0.4068,0.09132,5,1D3U,2.0,True,1.337,7,True,right,0.0,0.4425,0.5339,0.0914,1.2254,1.7253,0.5,A
170,170,0.49813,1.2,1,0.34869,0.19925,0.43171,170,1.5691,-0.82,-0.4068,0.09132,5,1D3U,2.0,True,1.85,7,True,right,0.0,0.3456,0.4376,0.092,0.8698,1.3704,0.5006,V
171,171,0.49813,0.1,1,0.42341,0.32378,0.88002,171,2.69818,0.14,0.06642,0.57284,5,3D1U,1.0,True,2.092,3,False,left,0.0,0.4217,0.9963,0.5746,1.8803,2.3802,0.4999,V
172,172,0.49813,1.2,2,0.35699,0.21585,0.72228,172,2.36609,0.14,0.06642,0.57284,5,3D1U,2.0,True,1.954,3,False,right,0.0,1.5828,2.1583,0.5755,0.3582,0.8573,0.4991,A
173,173,0.49813,0.1,1,0.3902,0.27397,0.56454,173,2.11704,-0.22,-0.10793,0.3902,5,1D2U,2.0,True,0.356,10,True,right,0.0,0.3923,0.7841,0.3918,1.351,1.8503,0.4993,V
174,174,0.49813,1.2,2,0.4068,0.3902,0.58945,174,1.99251,-0.78,-0.3902,0.10793,5,1D3U,1.0,True,0.416,7,False,left,0.0,1.4974,1.6062,0.1088,0.406,0.9055,0.4994,A
175,175,0.49813,0.1,2,0.32378,0.27397,0.71398,175,1.91779,-0.78,-0.3902,0.10793,5,1D3U,1.0,True,0.337,7,False,left,0.0,1.5404,1.6485,0.1081,0.3237,0.8233,0.4997,A
176,176,0.49813,1.2,2,0.29888,0.26567,0.53133,176,2.16685,0.14,0.06642,0.57284,5,2D1U,1.0,False,0.676,8,False,left,0.0,1.3307,1.9057,0.575,0.2971,0.7977,0.5006,A
177,177,0.49813,0.1,1,0.42341,0.24906,0.8053,177,2.3661,-0.22,-0.10793,0.3902,5,1D2U,2.0,True,0.667,10,True,right,0.0,0.4283,0.82,0.3917,1.6277,2.1279,0.5003,A
178,178,0.49813,1.2,1,0.30718,0.3985,0.84681,178,2.15855,-0.78,-0.3902,0.10793,5,1D3U,2.0,True,0.297,7,False,right,0.0,0.3039,0.4122,0.1083,1.2623,1.7621,0.4998,A
179,179,0.49813,0.1,2,0.36529,0.4068,0.46492,179,2.32459,0.18,0.09132,0.58945,5,2D1U,2.0,True,0.345,8,False,right,0.0,1.3312,1.9224,0.5912,0.3644,0.8641,0.4997,A
180,180,0.49813,1.2,1,0.28227,0.21585,0.58945,180,2.17515,0.18,0.09132,0.58945,5,2D1U,2.0,False,1.665,8,False,right,0.0,0.2822,0.8733,0.5911,1.466,1.9657,0.4998,V
181,181,0.49813,0.1,2,0.29057,0.4151,0.45662,181,2.23326,0.14,0.06642,0.57284,5,3D1U,2.0,True,0.933,3,False,right,0.0,1.2482,1.8241,0.5759,0.2909,0.7909,0.5,V
182,182,0.49813,1.2,1,0.34039,0.42341,0.70568,182,2.51555,0.1,0.04981,0.54794,5,3D1U,2.0,False,0.803,3,False,right,0.0,0.337,0.8874,0.5503,1.5952,2.0958,0.5006,V
183,183,0.49813,0.1,2,0.25737,0.32378,0.84681,183,2.53214,0.22,0.10793,0.60605,5,2D1U,2.0,True,0.239,8,False,right,0.0,1.6095,2.2179,0.6084,0.2595,0.7597,0.5002,A
184,184,0.49813,1.2,1,0.29888,0.42341,0.7804,184,2.60687,0.22,0.10793,0.60605,5,2D1U,1.0,True,0.326,8,False,left,0.0,0.3005,0.9089,0.6084,1.6916,2.1917,0.5001,V
185,185,0.49813,0.1,1,0.34039,0.34869,0.81361,185,2.40762,-0.18,-0.09132,0.4068,5,1D2U,2.0,True,0.329,10,False,right,0.0,0.3415,0.7502,0.4087,1.5669,2.0664,0.4994,V
186,186,0.49813,1.2,1,0.21585,0.43171,0.797,186,2.07552,-0.74,-0.37359,0.13283,5,1D3U,2.0,True,0.879,7,False,right,0.0,0.2122,0.3453,0.1331,1.1458,1.6454,0.4997,A
187,187,0.49813,0.1,1,0.21585,0.3985,0.83021,187,2.53214,0.18,0.09132,0.58945,5,2D1U,2.0,False,0.733,9,True,right,0.0,0.213,0.8048,0.5918,1.6385,2.1377,0.4992,V
188,188,0.49813,1.2,1,0.27397,0.29057,0.70568,188,1.90118,-0.74,-0.37359,0.13283,5,1D3U,1.0,False,0.535,7,False,left,0.0,0.2741,0.4076,0.1335,1.1155,1.6157,0.5002,A
189,189,0.49813,0.1,2,0.44001,0.34869,0.62266,189,2.01742,-0.78,-0.3902,0.10793,5,1D3U,1.0,True,0.274,8,True,left,0.0,1.5663,1.6747,0.1084,0.4416,0.9413,0.4997,V
190,190,0.49813,1.2,2,0.20755,0.31548,0.57284,190,2.0008,-0.18,-0.09132,0.4068,5,1D2U,1.0,True,0.291,10,False,left,0.0,1.2855,1.6934,0.4079,0.2105,0.7108,0.5004,V
191,191,0.49813,0.1,2,0.36529,0.21585,0.42341,191,2.07552,0.14,0.06642,0.57284,5,3D1U,2.0,True,0.263,4,True,right,0.0,1.2924,1.8674,0.5749,0.367,0.8669,0.4999,A
192,192,0.49813,1.2,2,0.36529,0.24906,0.65587,192,2.20006,-0.14,-0.06642,0.43171,5,1D2U,1.0,True,0.218,10,False,left,0.0,1.5206,1.9548,0.4341,0.3625,0.8619,0.4994,V
193,193,0.49813,0.1,1,0.3902,0.34039,0.72228,193,2.52384,0.14,0.06642,0.57284,5,3D1U,1.0,True,1.448,4,True,left,0.0,0.3913,0.9658,0.5744,1.691,2.1905,0.4995,A
194,194,0.49813,1.2,1,0.35699,0.32378,0.82191,194,2.60686,0.22,0.10793,0.60605,5,2D1U,1.0,True,0.25,10,True,left,0.0,0.3614,0.9699,0.6085,1.7945,2.2943,0.4998,A
195,195,0.49813,0.1,2,0.3902,0.24906,0.62266,195,2.3661,0.22,0.10793,0.60605,5,2D1U,2.0,True,0.317,10,True,right,0.0,1.5166,2.1247,0.6081,0.3913,0.8906,0.4993,A
196,196,0.49813,1.2,2,0.34869,0.3902,0.75549,196,2.10044,-0.78,-0.3902,0.10793,5,1D3U,1.0,True,0.322,8,True,left,0.0,1.6061,1.7144,0.1083,0.348,0.847,0.499,V
197,197,0.49813,0.1,1,0.36529,0.28227,0.71398,197,1.9676,-0.78,-0.3902,0.10793,5,1D3U,2.0,True,0.289,8,True,right,0.0,0.368,0.4767,0.1087,1.1933,1.693,0.4997,A
198,198,0.49813,1.2,1,0.22416,0.33208,0.7721,198,1.9593,-0.74,-0.37359,0.13283,5,1D3U,1.0,False,0.359,9,True,left,0.0,0.2246,0.3582,0.1335,1.1324,1.6332,0.5008,V
199,199,0.49813,0.1,1,0.25737,0.4151,0.87172,199,2.47403,-0.14,-0.06642,0.43171,5,1D2U,1.0,False,0.613,10,False,left,0.0,0.2542,0.6875,0.4332,1.5623,2.0621,0.4998,A
200,200,0.49813,1.2,1,0.3902,0.27397,0.66417,200,2.41592,0.18,0.09132,0.58945,5,2D1U,2.0,False,0.309,11,True,right,0.0,0.3941,0.9858,0.5918,1.6523,2.1523,0.5,A
201,201,0.49813,0.1,1,0.21585,0.20755,0.57284,201,2.06721,0.14,0.06642,0.57284,5,3D1U,2.0,False,0.285,4,True,right,0.0,0.2152,0.7902,0.5749,1.3652,1.8655,0.5003,A
202,202,0.49813,1.2,2,0.23246,0.43171,0.50643,202,1.77666,-0.78,-0.3902,0.10793,5,1D3U,1.0,True,0.389,10,True,left,0.0,1.2392,1.3474,0.1082,0.2301,0.7308,0.5007,V
203,203,0.49813,0.1,1,0.25737,0.3819,0.44831,203,2.19176,0.22,0.10793,0.60605,5,2D1U,1.0,True,0.766,12,True,left,0.0,0.256,0.8641,0.6081,1.3141,1.8147,0.5006,V
204,204,0.49813,1.2,1,0.3819,0.30718,0.61436,204,2.40762,0.22,0.10793,0.60605,5,2D1U,1.0,True,0.301,12,True,left,0.0,0.3845,0.9928,0.6083,1.6097,2.1097,0.5,A
205,205,0.49813,0.1,1,0.34869,0.43171,0.45662,205,2.3246,0.18,0.09132,0.58945,5,3D1U,2.0,False,0.271,4,False,right,0.0,0.3486,0.9402,0.5916,1.3986,1.8987,0.5,V
206,206,0.49813,1.2,1,0.21585,0.25737,0.61436,206,1.99251,-0.18,-0.09132,0.4068,5,1D2U,1.0,False,0.7,11,True,left,0.0,0.2125,0.6209,0.4084,1.2376,1.7373,0.4997,V
207,207,0.49813,0.1,2,0.26567,0.26567,0.61436,207,1.75176,-0.78,-0.3902,0.10793,5,1D3U,1.0,True,0.48,10,True,left,0.0,1.3794,1.4876,0.1082,0.2624,0.7626,0.5003,V
208,208,0.49813,1.2,2,0.44001,0.34039,0.53964,208,2.20837,-0.22,-0.10793,0.3902,5,1D2U,1.0,True,0.272,11,False,left,0.0,1.4828,1.8741,0.3913,0.4405,0.9404,0.4999,A
209,209,0.49813,0.1,1,0.3985,0.25737,0.7887,209,2.54875,0.22,0.10793,0.60605,5,3D1U,2.0,False,1.138,4,False,right,0.0,0.3958,1.0043,0.6085,1.7965,2.2963,0.4998,A
210,210,0.49813,1.2,2,0.23246,0.29057,0.63926,210,2.29138,0.26,0.13283,0.63096,5,3D1U,1.0,False,0.265,4,False,left,0.0,1.376,2.0094,0.6334,0.234,0.7343,0.5003,A
211,211,0.49813,0.1,1,0.22416,0.24076,0.81361,211,2.36611,0.18,0.09132,0.58945,5,2D1U,2.0,False,0.107,13,True,right,0.0,0.228,0.8192,0.5913,1.6361,2.1363,0.5002,A
212,212,0.49813,1.2,2,0.27397,0.35699,0.72228,212,1.9593,-0.78,-0.3902,0.10793,5,1D3U,1.0,True,0.275,10,True,left,0.0,1.5033,1.6118,0.1085,0.2783,0.7784,0.5,V
213,213,0.49813,0.1,2,0.37359,0.3902,0.7721,213,2.64007,0.22,0.10793,0.60605,5,2D1U,2.0,True,0.875,14,True,right,0.0,1.6495,2.2573,0.6078,0.3738,0.874,0.5001,A
214,214,0.49813,1.2,2,0.21585,0.34039,0.53133,214,2.19175,0.22,0.10793,0.60605,5,2D1U,2.0,True,0.424,14,True,right,0.0,1.2473,1.855,0.6077,0.2138,0.714,0.5003,A
215,215,0.49813,0.1,2,0.37359,0.44831,0.69738,215,2.40761,-0.22,-0.10793,0.3902,5,1D2U,1.0,True,0.291,11,False,left,0.0,1.5716,1.9633,0.3917,0.3715,0.8716,0.5,V
216,216,0.49813,1.2,1,0.33208,0.34039,0.69738,216,2.51554,0.3,0.14944,0.64756,5,3D1U,2.0,False,2.196,4,False,right,0.0,0.3301,0.9795,0.6494,1.6797,2.1805,0.5008,A
217,217,0.49813,0.1,1,0.37359,0.3985,0.67247,217,2.53214,0.18,0.09132,0.58945,5,2D1U,1.0,True,0.355,15,True,left,0.0,0.374,0.9655,0.5915,1.6405,2.1404,0.4999,V
218,218,0.49813,1.2,2,0.34039,0.26567,0.81361,218,2.05063,-0.74,-0.37359,0.13283,5,1D3U,1.0,True,0.342,11,True,left,0.0,1.6584,1.7913,0.1329,0.3417,0.8413,0.4996,A
219,219,0.49813,0.1,1,0.25737,0.3819,0.68077,219,2.22497,-0.18,-0.09132,0.4068,5,1D2U,2.0,True,1.845,12,True,right,0.0,0.2614,0.6701,0.4087,1.3533,1.8527,0.4993,A
220,220,0.49813,1.2,1,0.25737,0.24076,0.74719,220,2.15025,-0.18,-0.09132,0.4068,5,1D2U,1.0,False,0.367,12,True,left,0.0,0.2565,0.665,0.4085,1.4149,1.9149,0.5,A
221,221,0.49813,0.1,2,0.34869,0.23246,0.82191,221,2.57366,0.34,0.16604,0.67247,5,3D1U,2.0,True,0.31,4,False,right,0.0,1.6772,2.3523,0.675,0.3519,0.8522,0.5004,V
222,222,0.49813,1.2,2,0.4068,0.36529,0.44001,222,2.29968,0.18,0.09132,0.58945,5,2D1U,1.0,False,0.291,15,True,left,0.0,1.352,1.9437,0.5917,0.4105,0.9103,0.4999,V
223,223,0.49813,0.1,2,0.36529,0.4151,0.85512,223,2.80611,0.34,0.16604,0.67247,5,3D1U,2.0,True,0.346,4,False,right,0.0,1.7239,2.3991,0.6752,0.3657,0.866,0.5003,A
224,224,0.49813,1.2,2,0.34869,0.31548,0.7887,224,2.08383,-0.74,-0.37359,0.13283,5,1D3U,1.0,True,1.13,11,True,left,0.0,1.6395,1.7731,0.1336,0.3481,0.848,0.4999,A
225,225,0.49813,0.1,2,0.19925,0.24906,0.8053,225,2.14194,-0.22,-0.10793,0.3902,5,1D2U,1.0,True,1.913,13,True,left,0.0,1.5117,1.9032,0.3915,0.2032,0.7034,0.5002,A
226,226,0.49813,1.2,1,0.27397,0.34039,0.7887,226,2.50724,0.22,0.10793,0.60605,5,2D1U,1.0,True,0.4,16,True,left,0.0,0.2764,0.8851,0.6087,1.6767,2.1764,0.4998,V
227,227,0.49813,0.1,2,0.3985,0.24076,0.64756,227,2.17515,-0.22,-0.10793,0.3902,5,1D2U,1.0,True,0.972,13,True,left,0.0,1.5512,1.9425,0.3913,0.4009,0.9009,0.5,V
228,228,0.49813,1.2,2,0.36529,0.21585,0.58945,228,2.27477,0.22,0.10793,0.60605,5,2D1U,1.0,False,0.425,16,True,left,0.0,1.4589,2.0681,0.6092,0.3679,0.8673,0.4995,V
229,229,0.49813,0.1,2,0.25737,0.42341,0.82191,229,2.67329,0.34,0.16604,0.67247,5,3D1U,2.0,True,0.177,4,False,right,0.0,1.5831,2.2579,0.6748,0.2576,0.7579,0.5003,V
230,230,0.49813,1.2,1,0.3819,0.34869,0.88832,230,2.7646,0.3,0.14944,0.64756,5,3D1U,2.0,False,0.287,5,True,right,0.0,0.3794,1.0295,0.6501,1.9214,2.4211,0.4997,V
231,231,0.49813,0.1,1,0.44831,0.28227,0.73058,231,2.09212,-0.74,-0.37359,0.13283,5,1D3U,2.0,True,0.287,11,True,right,0.0,0.446,0.5792,0.1332,1.3129,1.8131,0.5002,A
232,232,0.49813,1.2,1,0.23246,0.26567,0.58945,232,1.73515,-0.7,-0.34869,0.14944,5,1D3U,2.0,True,0.308,11,False,right,0.0,0.2369,0.3871,0.1501,0.9784,1.4779,0.4994,A
233,233,0.49813,0.1,2,0.23246,0.4151,0.44001,233,1.73514,-0.7,-0.34869,0.14944,5,1D3U,1.0,True,0.294,11,False,left,0.0,1.1767,1.3261,0.1495,0.2345,0.7348,0.5002,A
234,234,0.49813,1.2,2,0.42341,0.25737,0.74719,234,2.59857,0.34,0.16604,0.67247,5,3D1U,2.0,True,0.208,6,True,right,0.0,1.6769,2.3522,0.6753,0.427,0.9269,0.5,A
235,235,0.49813,0.1,2,0.4068,0.25737,0.52303,235,2.31629,0.26,0.13283,0.63096,5,2D1U,2.0,True,0.308,16,False,right,0.0,1.4323,2.0655,0.6332,0.4071,0.9066,0.4995,V
236,236,0.49813,1.2,2,0.42341,0.19925,0.83021,236,2.3578,-0.18,-0.09132,0.4068,5,1D2U,1.0,True,0.37,14,True,left,0.0,1.7618,2.1701,0.4083,0.4284,0.9285,0.5001,V
237,237,0.49813,0.1,2,0.25737,0.34869,0.44831,237,2.18346,0.26,0.13283,0.63096,5,2D1U,1.0,False,1.175,16,False,left,0.0,1.2091,1.8424,0.6333,0.2589,0.7585,0.4996,V
238,238,0.49813,1.2,1,0.22416,0.35699,0.52303,238,2.27478,0.34,0.16604,0.67247,5,3D1U,2.0,False,1.025,6,True,right,0.0,0.2277,0.9027,0.675,1.4275,1.9279,0.5003,A
239,239,0.49813,0.1,1,0.24076,0.31548,0.71398,239,2.17515,-0.18,-0.09132,0.4068,5,1D2U,2.0,True,0.433,14,True,right,0.0,0.2437,0.652,0.4082,1.368,1.8687,0.5007,A
240,240,0.49813,1.2,2,0.25737,0.34039,0.88832,240,2.41592,-0.14,-0.06642,0.43171,5,1D2U,1.0,True,0.109,14,False,left,0.0,1.6484,2.0813,0.433,0.2563,0.7566,0.5003,V
241,241,0.49813,0.1,2,0.3985,0.22416,0.56454,241,1.83477,-0.7,-0.34869,0.14944,5,1D3U,1.0,True,0.317,11,False,left,0.0,1.4672,1.6167,0.1495,0.4011,0.9002,0.4991,A
242,242,0.49813,1.2,1,0.3819,0.33208,0.64756,242,2.50723,0.3,0.14944,0.64756,5,2D1U,1.0,True,0.278,16,False,left,0.0,0.3798,1.0294,0.6496,1.6793,2.18,0.5008,V
243,243,0.49813,0.1,1,0.3902,0.35699,0.48152,243,2.15855,-0.14,-0.06642,0.43171,5,1D2U,1.0,False,0.396,14,False,left,0.0,0.3873,0.8201,0.4329,1.3035,1.804,0.5006,A
244,244,0.49813,1.2,2,0.24076,0.29057,0.68907,244,2.4076,0.38,0.19095,0.68907,5,3D1U,2.0,True,0.333,6,False,right,0.0,1.4344,2.126,0.6916,0.2426,0.7428,0.5002,V
245,245,0.49813,0.1,2,0.4068,0.3819,0.8053,245,2.7812,0.38,0.19095,0.68907,5,3D1U,2.0,True,0.241,6,False,right,0.0,1.7176,2.409,0.6915,0.4091,0.9093,0.5002,A
246,246,0.49813,1.2,2,0.26567,0.29057,0.797,246,2.01741,-0.66,-0.33208,0.16604,5,1D3U,1.0,True,0.359,11,False,left,0.0,1.5683,1.7349,0.1666,0.2682,0.7684,0.5002,V
247,247,0.49813,0.1,1,0.33208,0.22416,0.83021,247,2.29138,-0.18,-0.09132,0.4068,5,1D2U,2.0,True,0.393,15,True,right,0.0,0.3347,0.7432,0.4085,1.5764,2.0765,0.5001,V
248,248,0.49813,1.2,1,0.4151,0.3985,0.46492,248,1.94269,-0.66,-0.33208,0.16604,5,1D3U,2.0,True,0.434,11,False,right,0.0,0.4175,0.584,0.1665,1.0513,1.5509,0.4996,A
249,249,0.49813,0.1,1,0.24906,0.26567,0.87172,249,2.53214,0.3,0.14944,0.64756,5,2D1U,2.0,False,0.317,16,False,right,0.0,0.2486,0.8985,0.6499,1.7737,2.2743,0.5006,V
250,250,0.49813,1.2,2,0.24076,0.24906,0.53964,250,2.21666,0.38,0.19095,0.68907,5,3D1U,2.0,True,1.725,6,False,right,0.0,1.283,1.9752,0.6922,0.2413,0.7415,0.5002,A
251,251,0.49813,0.1,2,0.37359,0.3902,0.49813,251,2.43252,0.34,0.16604,0.67247,5,3D1U,2.0,True,0.276,7,True,right,0.0,1.3735,2.0489,0.6754,0.3738,0.8734,0.4995,V
252,252,0.49813,1.2,2,0.24906,0.22416,0.70568,252,2.3495,0.34,0.16604,0.67247,5,3D1U,2.0,True,0.184,7,True,right,0.0,1.4577,2.1328,0.675,0.2496,0.7497,0.5,A
253,253,0.49813,0.1,2,0.3985,0.25737,0.46492,253,2.02572,-0.18,-0.09132,0.4068,5,1D2U,1.0,True,0.351,15,True,left,0.0,1.368,1.7761,0.4081,0.4006,0.9016,0.5011,V
254,254,0.49813,1.2,2,0.43171,0.26567,0.67247,254,2.29969,-0.14,-0.06642,0.43171,5,1D2U,1.0,True,0.392,16,True,left,0.0,1.6063,2.0391,0.4328,0.4312,0.9312,0.5,A
255,255,0.49813,0.1,1,0.24076,0.24076,0.49813,255,1.64382,-0.66,-0.33208,0.16604,5,1D3U,2.0,True,0.281,11,False,right,0.0,0.2406,0.4076,0.167,0.9075,1.4075,0.5,A
256,256,0.49813,1.2,1,0.28227,0.20755,0.87172,256,2.53214,0.34,0.16604,0.67247,5,2D1U,1.0,True,0.38,16,False,left,0.0,0.2801,0.9547,0.6746,1.8304,2.3302,0.4998,A
257,257,0.49813,0.1,1,0.34039,0.22416,0.59775,257,2.3329,0.34,0.16604,0.67247,5,3D1U,1.0,True,0.392,7,True,left,0.0,0.3445,1.0194,0.6749,1.6198,2.1197,0.4999,V
258,258,0.49813,1.2,1,0.35699,0.22416,0.51473,258,2.26648,0.34,0.16604,0.67247,5,2D1U,1.0,True,0.634,16,False,left,0.0,0.3583,1.0329,0.6745,1.5505,2.0497,0.4992,V
259,259,0.49813,0.1,1,0.3985,0.27397,0.63096,259,2.23327,-0.14,-0.06642,0.43171,5,1D2U,2.0,True,1.356,16,True,right,0.0,0.3969,0.8304,0.4335,1.4639,1.9637,0.4999,A
260,260,0.49813,1.2,1,0.26567,0.34039,0.42341,260,1.71855,-0.62,-0.30718,0.19095,5,1D3U,1.0,False,1.771,11,False,left,0.0,0.2634,0.4555,0.1921,0.8805,1.3806,0.5001,A
261,261,0.49813,0.1,2,0.24076,0.23246,0.64756,261,1.78495,-0.66,-0.33208,0.16604,5,1D3U,1.0,True,0.382,12,True,left,0.0,1.3885,1.5543,0.1658,0.2383,0.7383,0.5,A
262,262,0.49813,1.2,1,0.44001,0.25737,0.4068,262,1.76835,-0.66,-0.33208,0.16604,5,1D3U,1.0,False,0.379,12,True,left,0.0,0.4448,0.6114,0.1667,1.0195,1.5203,0.5008,V
263,263,0.49813,0.1,2,0.22416,0.24906,0.89663,263,2.31629,-0.1,-0.04981,0.44831,5,1D2U,1.0,True,0.522,16,False,left,0.0,1.6203,2.0704,0.4501,0.22,0.7204,0.5004,A
264,264,0.49813,1.2,1,0.35699,0.31548,0.50643,264,2.32459,0.3,0.14944,0.64756,5,2D1U,2.0,False,1.617,17,True,right,0.0,0.3575,1.0077,0.6502,1.5159,2.0153,0.4994,A
265,265,0.49813,0.1,1,0.30718,0.33208,0.74719,265,2.53214,0.3,0.14944,0.64756,5,3D1U,1.0,True,0.275,7,False,left,0.0,0.3056,0.9555,0.6499,1.7048,2.206,0.5012,A
266,266,0.49813,1.2,2,0.3902,0.32378,0.86342,266,2.22497,-0.7,-0.34869,0.14944,5,1D3U,1.0,True,0.513,12,False,left,0.0,1.7597,1.9095,0.1497,0.3929,0.8928,0.4999,A
267,267,0.49813,0.1,1,0.29057,0.28227,0.797,267,2.51553,0.3,0.14944,0.64756,5,3D1U,1.0,True,0.316,7,False,left,0.0,0.2908,0.9411,0.6503,1.7403,2.2407,0.5004,V
268,268,0.49813,1.2,2,0.21585,0.3902,0.48152,268,2.23326,0.3,0.14944,0.64756,5,3D1U,2.0,True,1.001,7,False,right,0.0,1.2033,1.8537,0.6504,0.2195,0.7196,0.5001,V
269,269,0.49813,0.1,2,0.27397,0.25737,0.43171,269,1.90949,-0.1,-0.04981,0.44831,5,1D2U,1.0,True,0.576,16,False,left,0.0,1.2084,1.6589,0.4505,0.2748,0.7746,0.4998,V
270,270,0.49813,1.2,1,0.24906,0.26567,0.83851,270,2.00081,-0.7,-0.34869,0.14944,5,1D3U,1.0,False,0.242,12,False,left,0.0,0.252,0.4017,0.1497,1.2431,1.7435,0.5004,V
271,271,0.49813,0.1,1,0.32378,0.23246,0.58115,271,2.30799,0.34,0.16604,0.67247,5,2D1U,1.0,True,0.268,18,True,left,0.0,0.3263,1.0015,0.6751,1.5849,2.085,0.5,V
272,272,0.49813,1.2,2,0.42341,0.42341,0.63096,272,2.44913,-0.06,-0.03321,0.47322,5,1D2U,1.0,True,0.717,16,False,left,0.0,1.5564,2.0312,0.4748,0.4224,0.9228,0.5004,V
273,273,0.49813,0.1,2,0.3819,0.4151,0.64756,273,2.07552,-0.74,-0.37359,0.13283,5,1D3U,1.0,True,0.258,12,False,left,0.0,1.5327,1.6661,0.1334,0.383,0.8827,0.4997,A
274,274,0.49813,1.2,1,0.43171,0.20755,0.48152,274,1.75174,-0.74,-0.37359,0.13283,5,1D3U,1.0,False,0.918,12,False,left,0.0,0.4324,0.5659,0.1335,1.0493,1.5493,0.5001,V
275,275,0.49813,0.1,2,0.30718,0.37359,0.85512,275,2.66498,0.26,0.13283,0.63096,5,3D1U,2.0,True,1.05,7,False,right,0.0,1.6694,2.3028,0.6334,0.3112,0.8104,0.4992,V
276,276,0.49813,1.2,2,0.42341,0.29057,0.8053,276,2.68988,0.34,0.16604,0.67247,5,2D1U,2.0,True,0.3,18,True,right,0.0,1.7367,2.4115,0.6749,0.4282,0.9283,0.5001,A
277,277,0.49813,0.1,2,0.25737,0.25737,0.73889,277,1.85969,-0.78,-0.3902,0.10793,5,1D3U,1.0,True,0.326,12,False,left,0.0,1.5001,1.6084,0.1083,0.2586,0.7578,0.4992,A
278,278,0.49813,1.2,1,0.44001,0.26567,0.87172,278,2.18346,-0.78,-0.3902,0.10793,5,1D3U,2.0,True,0.264,12,False,right,0.0,0.4439,0.5522,0.1083,1.4272,1.9277,0.5005,V
279,279,0.49813,0.1,1,0.24906,0.19925,0.45662,279,1.87628,-0.06,-0.03321,0.47322,5,1D2U,2.0,True,0.746,16,False,right,0.0,0.2481,0.7225,0.4743,1.1819,1.6815,0.4996,A
280,280,0.49813,1.2,2,0.42341,0.24906,0.53133,280,2.33289,0.26,0.13283,0.63096,5,3D1U,1.0,False,0.324,7,False,left,0.0,1.4553,2.0886,0.6333,0.4218,0.9219,0.5002,V
281,281,0.49813,0.1,2,0.30718,0.35699,0.74719,281,2.55705,0.3,0.14944,0.64756,5,2D1U,2.0,True,0.489,19,True,right,0.0,1.555,2.2053,0.6503,0.3048,0.8044,0.4996,A
282,282,0.49813,1.2,2,0.30718,0.44831,0.4068,282,1.76835,-0.78,-0.3902,0.10793,5,1D3U,1.0,True,0.269,12,False,left,0.0,1.2137,1.322,0.1084,0.3048,0.8055,0.5007,V
283,283,0.49813,0.1,2,0.23246,0.36529,0.66417,283,2.40761,0.3,0.14944,0.64756,5,3D1U,1.0,False,0.292,8,True,left,0.0,1.3988,2.049,0.6501,0.2328,0.7324,0.4996,V
284,284,0.49813,1.2,1,0.30718,0.23246,0.7804,284,2.49064,0.34,0.16604,0.67247,5,3D1U,1.0,True,0.544,8,False,left,0.0,0.3105,0.9853,0.6748,1.7684,2.2688,0.5004,V
285,285,0.49813,0.1,1,0.3985,0.3819,0.53133,285,2.29968,-0.02,-0.0083,0.48982,5,1D2U,1.0,False,1.408,16,False,left,0.0,0.3987,0.8906,0.4919,1.424,1.9235,0.4995,V
286,286,0.49813,1.2,1,0.24906,0.3902,0.85512,286,2.64007,0.3,0.14944,0.64756,5,2D1U,2.0,False,0.876,19,True,right,0.0,0.2531,0.9029,0.6498,1.7609,2.2615,0.5006,A
287,287,0.49813,0.1,1,0.22416,0.31548,0.4068,287,2.11704,0.34,0.16604,0.67247,5,2D1U,1.0,True,0.438,20,True,left,0.0,0.2269,0.9016,0.6747,1.3098,1.81,0.5002,A
288,288,0.49813,1.2,1,0.43171,0.30718,0.76379,288,2.67328,0.34,0.16604,0.67247,5,3D1U,1.0,True,1.028,8,False,left,0.0,0.4347,1.1092,0.6745,1.8761,2.3759,0.4998,V
289,289,0.49813,0.1,1,0.23246,0.21585,0.4151,289,1.49437,-0.74,-0.37359,0.13283,5,1D3U,2.0,True,0.296,13,True,right,0.0,0.2348,0.3679,0.1331,0.7849,1.2845,0.4996,A
290,290,0.49813,1.2,1,0.30718,0.20755,0.83021,290,2.31629,-0.06,-0.03321,0.47322,5,1D2U,2.0,True,1.691,17,True,right,0.0,0.3045,0.7794,0.4749,1.6126,2.1125,0.4999,V
291,291,0.49813,0.1,1,0.22416,0.36529,0.72228,291,2.28308,-0.06,-0.03321,0.47322,5,1D2U,2.0,True,0.27,17,True,right,0.0,0.2243,0.6997,0.4754,1.4236,1.9243,0.5007,A
292,292,0.49813,1.2,1,0.42341,0.28227,0.88832,292,2.7646,0.34,0.16604,0.67247,5,2D1U,1.0,True,0.919,20,True,left,0.0,0.4214,1.0964,0.675,1.9881,2.4882,0.5001,V
293,293,0.49813,0.1,2,0.21585,0.3985,0.47322,293,2.23326,0.3,0.14944,0.64756,5,2D1U,1.0,False,2.759,21,True,left,0.0,1.1911,1.8413,0.6502,0.2161,0.7166,0.5004,A
294,294,0.49813,1.2,1,0.37359,0.36529,0.62266,294,2.34949,-0.02,-0.0083,0.48982,5,1D2U,2.0,True,0.284,18,True,right,0.0,0.3724,0.8643,0.4918,1.4889,1.9886,0.4996,A
295,295,0.49813,0.1,2,0.29057,0.28227,0.57284,295,2.13363,-0.02,-0.0083,0.48982,5,1D2U,2.0,False,0.418,18,True,right,0.0,1.3702,1.8616,0.4914,0.295,0.7945,0.4995,A
296,296,0.49813,1.2,1,0.27397,0.35699,0.55624,296,2.3578,0.34,0.16604,0.67247,5,3D1U,1.0,True,0.242,8,False,left,0.0,0.2756,0.9511,0.6755,1.5091,2.0091,0.5,V
297,297,0.49813,0.1,1,0.3902,0.23246,0.76379,297,2.3578,-0.06,-0.03321,0.47322,5,1D2U,2.0,True,0.919,19,True,right,0.0,0.3879,0.8635,0.4756,1.6303,2.1305,0.5002,V
298,298,0.49813,1.2,2,0.3819,0.24906,0.88002,298,2.48233,-0.06,-0.03321,0.47322,5,1D2U,1.0,True,0.288,19,True,left,0.0,1.7638,2.2386,0.4748,0.3801,0.8801,0.5,A
299,299,0.49813,0.1,2,0.3819,0.32378,0.73058,299,2.58195,0.3,0.14944,0.64756,5,3D1U,2.0,True,0.223,9,True,right,0.0,1.6114,2.2621,0.6507,0.3787,0.879,0.5003,V
300,300,0.49813,1.2,2,0.3902,0.34039,0.83851,300,2.7397,0.34,0.16604,0.67247,5,2D1U,1.0,False,0.267,22,True,left,0.0,1.7374,2.4112,0.6738,0.3954,0.8961,0.5006,A
301,301,0.49813,0.1,2,0.21585,0.4068,0.51473,301,2.12533,-0.02,-0.0083,0.48982,5,1D2U,1.0,True,0.268,20,True,left,0.0,1.2322,1.724,0.4918,0.2154,0.7159,0.5005,V
302,302,0.49813,1.2,1,0.21585,0.21585,0.43171,302,2.05061,0.38,0.19095,0.68907,5,2D1U,1.0,True,0.449,22,False,left,0.0,0.2125,0.9043,0.6918,1.338,1.8379,0.4999,V
303,303,0.49813,0.1,2,0.34039,0.44001,0.50643,303,2.27478,-0.02,-0.0083,0.48982,5,1D2U,1.0,True,0.354,20,True,left,0.0,1.349,1.8409,0.4919,0.341,0.8406,0.4996,A
304,304,0.49813,1.2,2,0.4068,0.44001,0.81361,304,2.80611,0.3,0.14944,0.64756,5,3D1U,2.0,True,1.1,9,True,right,0.0,1.724,2.3744,0.6504,0.4076,0.9076,0.5,A
305,305,0.49813,0.1,1,0.29057,0.4151,0.70568,305,2.55704,0.3,0.14944,0.64756,5,3D1U,1.0,True,0.292,9,True,left,0.0,0.2951,0.9445,0.6494,1.6529,2.153,0.5001,V
306,306,0.49813,1.2,2,0.4068,0.23246,0.51473,306,2.28308,0.26,0.13283,0.63096,5,3D1U,1.0,False,0.382,9,False,left,0.0,1.4231,2.0566,0.6335,0.4055,0.9064,0.5009,A
307,307,0.49813,0.1,2,0.20755,0.34869,0.53964,307,2.28308,0.38,0.19095,0.68907,5,2D1U,2.0,True,0.208,22,False,right,0.0,1.2507,1.9424,0.6916,0.2089,0.7091,0.5003,A
