Unnamed: 0,standardDur,audNoise,order,preDur,postDur,isiDur,trial_num,totalDur,delta_dur_percents,deltaDurS,testDurS,intensities,current_stair,responses,is_correct,response_rts,stair_num_reversal,stair_is_reversal,response_keys,conflictDur,recordedOnsetVisualTest,recordedOffsetVisualTest,recordedDurVisualTest,recordedOnsetVisualStandard,recordedOffsetVisualStandard,recordedDurVisualStandard,modalityCue,VisualPSE
0,0.50214,1.2,2,0.26781,0.30966,0.703,0,2.73668,0.9,0.45193,0.95407,5,lapse_rate,1.0,False,7.569,0,False,left,0.25107,1.5881,2.6216,1.0335,0.0958,0.9291,0.8333,A,0.08
1,0.50214,1.2,1,0.2427,0.36824,0.54399,1,1.68218,-0.95,-0.47704,0.02511,5,1D2U,2.0,True,0.259,0,False,right,0.0,0.1983,0.3068,0.1085,0.8072,1.3903,0.5831,A,0.08
2,0.50214,1.2,1,0.30129,0.42682,0.77832,2,2.03368,-0.95,-0.47704,0.02511,5,1D2U,2.0,True,0.358,0,False,right,-0.16738,0.2555,0.3638,0.1083,1.1804,1.5971,0.4167,A,0.08
3,0.50214,1.2,1,0.36824,0.41845,0.51051,3,2.75341,0.9,0.45193,0.95407,5,lapse_rate,1.0,True,0.333,0,False,left,0.25107,0.3233,1.3566,1.0333,1.6977,2.5316,0.8339,A,0.08
4,0.50214,1.2,2,0.28455,0.30966,0.82017,4,1.94163,-0.95,-0.47704,0.02511,5,2D1U,1.0,True,0.75,0,False,left,0.0,1.599,1.7074,0.1084,0.2402,0.824,0.5838,A,0.08
5,0.50214,0.1,1,0.35987,0.27618,0.61094,5,1.85793,-0.79,-0.39335,0.1088,5,2D1U,2.0,True,0.375,0,False,right,-0.16738,0.2989,0.5323,0.2334,1.1657,1.6239,0.4582,A,0.125
6,0.50214,1.2,2,0.41008,0.44356,0.5942,6,2.90405,0.9,0.45193,0.95407,5,lapse_rate,2.0,True,0.434,0,False,right,0.25107,1.6232,2.6558,1.0327,0.2392,1.0721,0.833,A,0.08
7,0.50214,0.1,1,0.30966,0.43519,0.58583,7,1.94162,-0.79,-0.39335,0.1088,5,1D2U,2.0,True,0.408,0,False,right,0.0,0.2475,0.4807,0.2332,1.0061,1.6311,0.625,A,0.125
8,0.50214,1.2,2,0.34313,0.26781,0.73648,8,2.80363,0.9,0.45193,0.95407,5,lapse_rate,2.0,True,0.401,0,False,right,-0.16738,1.4902,2.5235,1.0334,0.3813,0.7984,0.4171,A,0.08
9,0.50214,0.1,1,0.41845,0.25107,0.63605,9,1.91651,-0.79,-0.39335,0.1088,5,1D2U,2.0,True,0.466,0,False,right,0.25107,0.36,0.5931,0.2331,1.0433,1.9185,0.8751,A,0.125
10,0.50214,1.2,1,0.31802,0.38498,0.88712,10,2.27638,-0.63,-0.31802,0.18412,5,2D1U,2.0,True,0.383,0,False,right,0.0,0.2713,0.5381,0.2668,1.3801,1.9633,0.5833,A,0.08
11,0.50214,1.2,1,0.39335,0.29292,0.88712,11,2.25965,-0.63,-0.31802,0.18412,5,1D2U,2.0,True,0.374,0,False,right,-0.16738,0.3468,0.6134,0.2666,1.5385,1.9554,0.4168,A,0.08
12,0.50214,0.1,1,0.22596,0.30966,0.54399,12,1.60686,-0.95,-0.47704,0.02511,5,lapse_rate,2.0,True,0.409,0,False,right,0.25107,0.1699,0.32,0.15,0.6781,1.5531,0.8751,A,0.125
13,0.50214,1.2,1,0.22596,0.45193,0.83691,13,2.28475,-0.47,-0.23433,0.26781,5,2D1U,2.0,True,0.225,0,False,right,0.0,0.1805,0.5306,0.3501,1.3226,1.9055,0.5829,A,0.08
14,0.50214,0.1,2,0.2427,0.2176,0.54399,14,1.84956,-0.31,-0.15901,0.34313,5,2D1U,1.0,True,0.384,0,False,left,-0.16738,1.2062,1.6732,0.467,0.2649,0.7235,0.4587,A,0.125
15,0.50214,0.1,1,0.37661,0.27618,0.60257,15,1.94162,-0.63,-0.31802,0.18412,5,1D2U,2.0,True,0.113,0,False,right,0.25107,0.3157,0.6239,0.3082,1.0406,1.9154,0.8747,A,0.125
16,0.50214,0.1,2,0.20086,0.28455,0.62768,16,2.5693,0.9,0.45193,0.95407,5,lapse_rate,2.0,True,0.367,0,False,right,0.0,1.3339,2.4096,1.0757,0.1429,0.7679,0.625,A,0.125
17,0.50214,0.1,2,0.37661,0.44356,0.4603,17,2.20943,-0.15,-0.07532,0.42682,5,2D1U,1.0,True,0.308,0,False,left,-0.16738,1.2599,1.8096,0.5497,0.4016,0.8593,0.4577,A,0.125
18,0.50214,1.2,1,0.23433,0.31802,0.4603,18,1.7826,-0.47,-0.23433,0.26781,5,1D2U,2.0,True,0.333,0,False,right,0.25107,0.1882,0.5387,0.3505,0.8304,1.6637,0.8333,A,0.08
19,0.50214,0.1,1,0.28455,0.28455,0.61931,19,1.71566,-0.95,-0.47704,0.02511,5,lapse_rate,2.0,True,0.317,0,False,right,0.0,0.2285,0.3786,0.1501,0.9368,1.5615,0.6248,A,0.125
20,0.50214,1.2,2,0.3515,0.25944,0.76995,20,1.90814,-0.95,-0.47704,0.02511,5,lapse_rate,1.0,True,0.449,0,False,left,-0.16738,1.5356,1.6438,0.1081,0.394,0.8114,0.4173,A,0.08
21,0.50214,1.2,1,0.41008,0.31802,0.87875,21,2.61113,0.01,0.00837,0.50214,5,2D1U,2.0,False,0.509,0,False,right,0.25107,0.3701,0.9532,0.5831,1.6617,2.4951,0.8333,A,0.08
22,0.50214,1.2,1,0.2427,0.30129,0.64442,22,1.95836,-0.47,-0.23433,0.26781,5,1D2U,2.0,True,0.366,0,False,right,0.0,0.1968,0.5467,0.3499,1.1466,1.7298,0.5832,A,0.08
23,0.50214,1.2,1,0.38498,0.44356,0.47704,23,2.76179,0.9,0.45193,0.95407,5,lapse_rate,1.0,True,0.499,0,False,left,-0.16738,0.3436,1.3776,1.034,1.894,2.3108,0.4168,A,0.08
24,0.50214,0.1,1,0.41008,0.31802,0.47704,24,2.29311,0.17,0.08369,0.58583,5,2D1U,1.0,True,0.458,0,False,left,0.25107,0.3479,1.056,0.7081,1.3477,2.2227,0.8751,A,0.125
25,0.50214,0.1,2,0.36824,0.29292,0.43519,25,1.94162,-0.31,-0.15901,0.34313,5,1D2U,1.0,True,0.442,0,False,left,0.0,1.3084,1.7755,0.4671,0.3078,0.9336,0.6257,A,0.125
26,0.50214,0.1,2,0.39335,0.25944,0.46867,26,1.64871,-0.95,-0.47704,0.02511,5,lapse_rate,1.0,True,0.375,0,False,left,-0.16738,1.2808,1.4304,0.1496,0.4139,0.8715,0.4576,A,0.125
27,0.50214,0.1,2,0.2176,0.42682,0.84528,27,2.57767,0.17,0.08369,0.58583,5,2D1U,1.0,False,0.468,0,False,left,0.25107,1.6881,2.3969,0.7088,0.0302,0.9045,0.8743,A,0.125
28,0.50214,1.2,2,0.42682,0.2176,0.40171,28,1.8914,-0.31,-0.15901,0.34313,5,1D2U,1.0,True,0.342,0,False,left,0.0,1.3207,1.7461,0.4254,0.3794,0.9628,0.5834,A,0.08
29,0.50214,1.2,1,0.43519,0.30966,0.88712,29,2.79527,0.33,0.16738,0.66116,5,2D1U,1.0,True,0.732,0,False,left,-0.16738,0.3927,1.1342,0.7414,2.0591,2.4758,0.4167,A,0.08
30,0.50214,0.1,2,0.39335,0.34313,0.62768,30,1.89141,-0.95,-0.47704,0.02511,5,lapse_rate,1.0,True,0.217,0,False,left,0.25107,1.6514,1.8021,0.1507,0.21,1.0851,0.8751,A,0.125
31,0.50214,1.2,2,0.30129,0.2427,0.60257,31,2.07552,-0.15,-0.07532,0.42682,5,1D2U,1.0,True,1.141,0,False,left,0.0,1.4015,1.9093,0.5078,0.2595,0.8423,0.5828,A,0.08
32,0.50214,0.1,1,0.32639,0.42682,0.57747,32,2.25964,-0.15,-0.07532,0.42682,5,1D2U,1.0,False,0.333,0,False,left,-0.16738,0.2692,0.8182,0.549,1.4189,1.8769,0.4581,A,0.125
33,0.50214,0.1,2,0.30966,0.30129,0.61094,33,2.38519,0.33,0.16738,0.66116,5,2D1U,2.0,True,0.301,0,False,right,0.25107,1.5528,2.3359,0.7832,0.1275,1.0027,0.8752,A,0.125
34,0.50214,1.2,1,0.2427,0.32639,0.75322,34,1.84956,-0.95,-0.47704,0.02511,5,lapse_rate,2.0,True,0.359,0,False,right,0.0,0.2002,0.3083,0.108,1.0166,1.5994,0.5828,A,0.08
35,0.50214,0.1,1,0.2427,0.40171,0.86201,35,2.96263,0.9,0.45193,0.95407,5,lapse_rate,1.0,True,0.301,0,False,left,-0.16738,0.1801,1.2552,1.0751,2.1388,2.5966,0.4578,A,0.125
36,0.50214,0.1,2,0.2176,0.36824,0.51888,36,1.99184,-0.23,-0.11717,0.38498,5,1D2U,1.0,True,0.183,1,True,left,0.25107,1.3692,1.8776,0.5084,0.0359,0.9108,0.8749,A,0.125
37,0.50214,1.2,2,0.33476,0.25107,0.49377,37,2.20942,0.25,0.12554,0.62768,5,2D1U,2.0,True,0.392,1,True,right,0.0,1.3228,2.0311,0.7083,0.2896,0.8725,0.5829,A,0.08
38,0.50214,0.1,2,0.35987,0.39335,0.57747,38,1.85794,-0.95,-0.47704,0.02511,5,lapse_rate,1.0,True,0.358,0,False,left,-0.16738,1.3545,1.5048,0.1503,0.3799,0.8374,0.4575,A,0.125
39,0.50214,1.2,2,0.2176,0.31802,0.76158,39,2.18432,-0.23,-0.11717,0.38498,5,1D2U,1.0,True,0.275,1,True,left,0.25107,1.6028,2.0695,0.4667,0.0529,0.8861,0.8333,A,0.08
40,0.50214,1.2,1,0.41845,0.30129,0.87038,40,2.71994,0.25,0.12554,0.62768,5,2D1U,2.0,False,0.2,1,True,right,0.0,0.3738,1.0828,0.7089,1.9072,2.4906,0.5834,A,0.08
41,0.50214,0.1,1,0.38498,0.23433,0.87038,41,2.39354,-0.19,-0.09206,0.40171,5,1D2U,2.0,True,0.324,2,True,right,-0.16738,0.3201,0.8454,0.5253,1.7368,2.1957,0.4589,A,0.125
42,0.50214,1.2,2,0.28455,0.2427,0.53562,42,2.51908,0.9,0.45193,0.95407,5,lapse_rate,2.0,True,0.184,0,False,right,0.25107,1.443,2.4764,1.0335,0.1173,0.9516,0.8343,A,0.08
43,0.50214,0.1,1,0.22596,0.32639,0.60257,43,2.30148,0.29,0.14227,0.64442,5,2D1U,1.0,True,0.111,2,True,left,0.0,0.169,0.9365,0.7675,1.4781,2.103,0.6249,A,0.125
44,0.50214,0.1,2,0.35987,0.30129,0.41845,44,2.53582,0.9,0.45193,0.95407,5,lapse_rate,2.0,True,0.225,0,False,right,-0.16738,1.1976,2.2726,1.075,0.381,0.8388,0.4578,A,0.125
45,0.50214,0.1,2,0.38498,0.33476,0.51051,45,2.1341,-0.19,-0.09206,0.40171,5,1D2U,1.0,True,0.112,2,True,left,0.25107,1.5255,2.0515,0.526,0.2008,1.0758,0.875,A,0.125
46,0.50214,1.2,1,0.27618,0.25944,0.87038,46,2.55256,0.29,0.14227,0.64442,5,2D1U,1.0,True,0.325,2,True,left,0.0,0.2306,0.9563,0.7258,1.7813,2.3647,0.5834,A,0.08
47,0.50214,0.1,1,0.42682,0.32639,0.89549,47,3.10491,0.9,0.45193,0.95407,5,lapse_rate,1.0,True,0.507,0,False,left,-0.16738,0.363,1.4376,1.0746,2.3543,2.8126,0.4583,A,0.125
48,0.50214,1.2,2,0.20086,0.30966,0.42682,48,2.06716,0.25,0.12554,0.62768,5,2D1U,1.0,False,0.142,3,True,left,0.25107,1.2452,1.9535,0.7083,0.0292,0.8618,0.8326,A,0.08
49,0.50214,1.2,2,0.25107,0.26781,0.76158,49,2.20942,-0.15,-0.07532,0.42682,5,1D2U,1.0,True,1.425,2,False,left,0.0,1.511,2.0193,0.5082,0.2107,0.7939,0.5832,A,0.08
50,0.50214,0.1,1,0.20923,0.34313,0.80343,50,2.28475,-0.15,-0.07532,0.42682,5,1D2U,2.0,True,0.358,2,False,right,-0.16738,0.1465,0.6953,0.5488,1.5216,1.9796,0.458,A,0.125
51,0.50214,0.1,1,0.28455,0.39335,0.73648,51,1.94163,-0.95,-0.47704,0.02511,5,lapse_rate,2.0,True,0.417,0,False,right,0.25107,0.2265,0.3765,0.15,0.9272,1.8018,0.8746,A,0.125
52,0.50214,0.1,2,0.42682,0.45193,0.79506,52,2.82037,0.29,0.14227,0.64442,5,2D1U,2.0,True,0.166,4,True,right,0.0,1.7207,2.4874,0.7668,0.3619,0.9878,0.6259,A,0.125
53,0.50214,1.2,1,0.40171,0.20086,0.89549,53,2.95427,0.9,0.45193,0.95407,5,lapse_rate,1.0,True,0.512,0,False,left,-0.16738,0.3544,1.3869,1.0325,2.32,2.7369,0.4169,A,0.08
54,0.50214,0.1,2,0.41008,0.23433,0.47704,54,2.06715,-0.11,-0.05858,0.44356,5,1D2U,2.0,False,0.934,2,False,right,0.25107,1.5146,2.0863,0.5717,0.2233,1.0981,0.8748,A,0.125
55,0.50214,1.2,1,0.28455,0.3515,0.86201,55,2.64462,0.29,0.14227,0.64442,5,2D1U,2.0,False,2.858,4,True,right,0.0,0.2411,0.966,0.7249,1.7828,2.3661,0.5833,A,0.08
56,0.50214,1.2,2,0.40171,0.22596,0.57747,56,2.36844,0.33,0.16738,0.66116,5,2D1U,2.0,True,0.413,4,False,right,-0.16738,1.3879,2.1288,0.7409,0.4375,0.854,0.4165,A,0.08
57,0.50214,1.2,2,0.25944,0.25944,0.61094,57,1.65707,-0.95,-0.47704,0.02511,5,lapse_rate,1.0,True,0.392,0,False,left,0.25107,1.495,1.6038,0.1088,0.0949,0.9286,0.8337,A,0.08
58,0.50214,1.2,2,0.35987,0.34313,0.83691,58,2.46887,-0.15,-0.07532,0.42682,5,1D2U,1.0,True,0.317,3,True,left,0.0,1.6901,2.1985,0.5084,0.3157,0.8985,0.5828,A,0.08
59,0.50214,1.2,1,0.20086,0.34313,0.53562,59,1.60686,-0.95,-0.47704,0.02511,5,lapse_rate,2.0,True,0.339,0,False,right,-0.16738,0.1613,0.2694,0.1081,0.8447,1.2612,0.4165,A,0.08
60,0.50214,0.1,1,0.23433,0.27618,0.44356,60,1.88303,-0.15,-0.07532,0.42682,5,1D2U,1.0,False,0.275,3,True,left,0.25107,0.1728,0.7224,0.5496,0.9805,1.8564,0.8759,A,0.125
61,0.50214,0.1,2,0.29292,0.40171,0.87875,61,2.73668,0.33,0.16738,0.66116,5,2D1U,2.0,True,0.509,4,False,right,0.0,1.6738,2.4566,0.7828,0.2318,0.8563,0.6245,A,0.125
62,0.50214,0.1,2,0.2176,0.23433,0.76995,62,2.67809,0.9,0.45193,0.95407,5,lapse_rate,2.0,True,0.392,0,False,right,-0.16738,1.4105,2.4857,1.0752,0.2441,0.7021,0.458,A,0.125
63,0.50214,0.1,2,0.31802,0.29292,0.41008,63,1.92487,-0.19,-0.09206,0.40171,5,1D2U,1.0,True,0.192,3,False,left,0.25107,1.3589,1.8841,0.5252,0.1341,1.0095,0.8754,A,0.125
64,0.50214,1.2,1,0.41845,0.26781,0.80343,64,2.63625,0.29,0.14227,0.64442,5,2D1U,2.0,False,1.857,5,True,right,0.0,0.3767,1.1022,0.7255,1.8602,2.4434,0.5833,A,0.08
65,0.50214,1.2,1,0.2427,0.33476,0.74485,65,2.22616,-0.19,-0.09206,0.40171,5,1D2U,1.0,False,0.564,3,False,left,-0.16738,0.2027,0.6865,0.4838,1.4694,1.886,0.4166,A,0.08
66,0.50214,1.2,2,0.32639,0.34313,0.64442,66,2.47724,0.33,0.16738,0.66116,5,2D1U,2.0,True,0.382,6,True,right,0.25107,1.5952,2.3368,0.7416,0.162,0.9953,0.8333,A,0.08
67,0.50214,1.2,1,0.2427,0.30966,0.62768,67,1.70729,-0.95,-0.47704,0.02511,5,lapse_rate,2.0,True,0.358,0,False,right,0.0,0.1965,0.3046,0.1081,0.8879,1.4714,0.5835,A,0.08
68,0.50214,0.1,2,0.30129,0.34313,0.52725,68,2.05879,-0.23,-0.11717,0.38498,5,1D2U,1.0,True,0.334,3,False,left,-0.16738,1.2531,1.7615,0.5083,0.3277,0.786,0.4583,A,0.125
69,0.50214,0.1,1,0.31802,0.35987,0.64442,69,2.48561,0.33,0.16738,0.66116,5,2D1U,1.0,True,0.291,6,True,left,0.25107,0.2561,1.0386,0.7825,1.4976,2.3727,0.875,A,0.125
70,0.50214,1.2,2,0.2176,0.20086,0.60257,70,2.47724,0.9,0.45193,0.95407,5,lapse_rate,2.0,True,0.358,0,False,right,0.0,1.3178,2.3511,1.0333,0.176,0.7595,0.5835,A,0.08
71,0.50214,1.2,1,0.28455,0.3515,0.52725,71,1.69055,-0.95,-0.47704,0.02511,5,lapse_rate,2.0,True,0.397,0,False,right,-0.16738,0.2426,0.3515,0.1089,0.9179,1.334,0.4161,A,0.08
72,0.50214,0.1,2,0.39335,0.2176,0.78669,72,2.28476,-0.23,-0.11717,0.38498,5,1D2U,1.0,True,0.325,3,False,left,0.25107,1.806,2.3225,0.5164,0.2061,1.0813,0.8752,A,0.125
73,0.50214,1.2,2,0.41845,0.34313,0.71137,73,2.61951,0.29,0.14227,0.64442,5,2D1U,1.0,False,0.484,7,True,left,0.0,1.6221,2.3468,0.7247,0.3719,0.9551,0.5833,A,0.08
74,0.50214,1.2,1,0.27618,0.30129,0.68626,74,1.79098,-0.95,-0.47704,0.02511,5,lapse_rate,2.0,True,0.292,0,False,right,-0.16738,0.2307,0.3394,0.1088,1.0644,1.4809,0.4165,A,0.08
75,0.50214,1.2,1,0.38498,0.27618,0.42682,75,2.25128,0.33,0.16738,0.66116,5,2D1U,2.0,False,0.291,8,True,right,0.25107,0.3381,1.0798,0.7417,1.3378,2.1713,0.8335,A,0.08
76,0.50214,1.2,2,0.41845,0.20923,0.4603,76,1.99183,-0.19,-0.09206,0.40171,5,1D2U,1.0,True,0.3,4,True,left,0.0,1.373,1.8561,0.4831,0.3727,0.9561,0.5834,A,0.08
77,0.50214,0.1,2,0.37661,0.30966,0.56073,77,1.77425,-0.95,-0.47704,0.02511,5,lapse_rate,1.0,True,0.333,0,False,left,-0.16738,1.3596,1.5088,0.1493,0.4009,0.8586,0.4578,A,0.125
78,0.50214,0.1,2,0.31802,0.2176,0.703,78,2.14247,-0.19,-0.09206,0.40171,5,1D2U,1.0,True,0.333,4,True,left,0.25107,1.6525,2.1775,0.525,0.1363,1.0136,0.8773,A,0.125
79,0.50214,0.1,1,0.22596,0.20086,0.80343,79,2.41865,0.37,0.18412,0.68626,5,2D1U,1.0,True,0.458,8,False,left,0.0,0.1651,0.9731,0.808,1.7153,2.3405,0.6252,A,0.125
80,0.50214,0.1,2,0.31802,0.33476,0.8118,80,2.39354,-0.15,-0.07532,0.42682,5,1D2U,1.0,True,0.384,4,False,left,-0.16738,1.5475,2.098,0.5504,0.3391,0.7976,0.4585,A,0.125
81,0.50214,1.2,1,0.36824,0.25107,0.56073,81,2.63625,0.9,0.45193,0.95407,5,lapse_rate,1.0,True,0.258,0,False,left,0.25107,0.3212,1.3552,1.034,1.747,2.5802,0.8332,A,0.08
82,0.50214,1.2,2,0.37661,0.36824,0.43519,82,2.36844,0.37,0.18412,0.68626,5,2D1U,2.0,True,0.509,8,False,right,0.0,1.3039,2.0706,0.7667,0.3291,0.9116,0.5825,A,0.08
83,0.50214,1.2,2,0.43519,0.39335,0.40171,83,2.39355,0.33,0.16738,0.66116,5,2D1U,2.0,True,0.345,9,True,right,-0.16738,1.2477,1.9891,0.7415,0.4728,0.8887,0.416,A,0.08
84,0.50214,1.2,1,0.39335,0.27618,0.64442,84,2.24291,-0.15,-0.07532,0.42682,5,1D2U,2.0,True,0.35,4,False,right,0.25107,0.3531,0.8609,0.5078,1.3364,2.1697,0.8333,A,0.08
85,0.50214,0.1,2,0.2427,0.20923,0.42682,85,2.33496,0.9,0.45193,0.95407,5,lapse_rate,2.0,True,0.309,0,False,right,0.0,1.176,2.2504,1.0744,0.1849,0.8092,0.6243,A,0.125
86,0.50214,0.1,1,0.29292,0.31802,0.67789,86,2.45213,0.33,0.16738,0.66116,5,2D1U,1.0,True,0.308,9,True,left,-0.16738,0.2302,1.013,0.7827,1.7133,2.1715,0.4582,A,0.125
87,0.50214,0.1,1,0.36824,0.23433,0.87875,87,2.42702,-0.11,-0.05858,0.44356,5,1D2U,1.0,False,0.408,4,False,left,0.25107,0.309,0.8751,0.5661,1.5671,2.4503,0.8832,A,0.125
88,0.50214,1.2,1,0.20923,0.44356,0.66952,88,2.77852,0.9,0.45193,0.95407,5,lapse_rate,1.0,True,0.291,0,False,left,0.0,0.1683,1.2018,1.0335,1.8267,2.4106,0.5838,A,0.08
89,0.50214,1.2,2,0.28455,0.25107,0.46867,89,1.53154,-0.95,-0.47704,0.02511,5,lapse_rate,1.0,True,0.499,0,False,left,-0.16738,1.168,1.2764,0.1083,0.3267,0.7429,0.4162,A,0.08
90,0.50214,0.1,1,0.41008,0.43519,0.85364,90,2.84547,0.29,0.14227,0.64442,5,2D1U,1.0,True,0.8,9,False,left,0.25107,0.3477,1.1141,0.7665,1.7807,2.6558,0.8751,A,0.125
91,0.50214,1.2,2,0.29292,0.36824,0.60257,91,2.19269,-0.15,-0.07532,0.42682,5,1D2U,1.0,True,2.925,5,True,left,0.0,1.3894,1.8986,0.5092,0.248,0.8318,0.5839,A,0.08
92,0.50214,1.2,2,0.23433,0.43519,0.62768,92,2.44376,0.29,0.14227,0.64442,5,2D1U,2.0,True,0.112,9,False,right,-0.16738,1.2733,1.9989,0.7257,0.2732,0.6908,0.4175,A,0.08
93,0.50214,0.1,2,0.30966,0.2176,0.71137,93,1.76588,-0.95,-0.47704,0.02511,5,lapse_rate,1.0,True,0.441,0,False,left,0.25107,1.6512,1.8013,0.15,0.1267,1.0008,0.8741,A,0.125
94,0.50214,1.2,1,0.32639,0.41008,0.55236,94,2.21779,-0.15,-0.07532,0.42682,5,1D2U,2.0,True,0.251,5,True,right,0.0,0.2823,0.791,0.5086,1.2992,1.8826,0.5833,A,0.08
95,0.50214,0.1,1,0.23433,0.32639,0.8118,95,2.31822,-0.11,-0.05858,0.44356,5,1D2U,1.0,False,2.65,6,True,left,-0.16738,0.1709,0.738,0.5671,1.571,2.0296,0.4587,A,0.125
96,0.50214,0.1,1,0.31802,0.42682,0.60257,96,2.47723,0.25,0.12554,0.62768,5,2D1U,1.0,True,0.291,9,False,left,0.25107,0.2606,1.0093,0.7487,1.4258,2.3008,0.8749,A,0.125
97,0.50214,0.1,2,0.44356,0.35987,0.71974,97,2.97938,0.9,0.45193,0.95407,5,lapse_rate,1.0,False,0.417,0,False,left,0.0,1.6647,2.7398,1.0751,0.3816,1.0062,0.6246,A,0.125
98,0.50214,0.1,2,0.34313,0.32639,0.72811,98,2.32659,-0.15,-0.07532,0.42682,5,1D2U,1.0,True,0.333,7,True,left,-0.16738,1.4951,2.0448,0.5496,0.3701,0.8284,0.4583,A,0.125
99,0.50214,1.2,2,0.25107,0.29292,0.45193,99,2.12574,0.25,0.12554,0.62768,5,2D1U,1.0,False,0.114,9,False,left,0.25107,1.3205,2.0288,0.7083,0.0789,0.9117,0.8328,A,0.08
100,0.50214,0.1,1,0.33476,0.20086,0.49377,100,2.4856,0.9,0.45193,0.95407,5,lapse_rate,1.0,True,0.45,0,False,left,0.0,0.2737,1.3482,1.0745,1.782,2.407,0.6251,A,0.125
101,0.50214,1.2,2,0.39335,0.23433,0.41008,101,2.18432,0.29,0.14227,0.64442,5,2D1U,2.0,True,0.246,10,True,right,-0.16738,1.2204,1.9449,0.7245,0.437,0.8536,0.4166,A,0.08
102,0.50214,1.2,1,0.30129,0.3515,0.88712,102,2.06716,-0.95,-0.47704,0.02511,5,lapse_rate,2.0,True,0.113,0,False,right,0.25107,0.2565,0.3648,0.1084,1.0815,1.9147,0.8332,A,0.08
103,0.50214,1.2,2,0.41008,0.32639,0.89549,103,2.56092,-0.15,-0.07532,0.42682,5,1D2U,1.0,True,0.542,7,True,left,0.0,1.8011,2.3097,0.5086,0.368,0.9509,0.5829,A,0.08
104,0.50214,0.1,2,0.27618,0.2176,0.82854,104,2.46888,0.29,0.14227,0.64442,5,2D1U,2.0,True,0.35,10,True,right,-0.16738,1.5265,2.2931,0.7666,0.3017,0.7598,0.4581,A,0.125
105,0.50214,0.1,1,0.28455,0.41845,0.74485,105,2.39355,-0.11,-0.05858,0.44356,5,1D2U,2.0,True,1.167,8,True,right,0.25107,0.2255,0.793,0.5675,1.3511,2.2254,0.8743,A,0.125
106,0.50214,1.2,2,0.39335,0.28455,0.41008,106,1.61523,-0.95,-0.47704,0.02511,5,lapse_rate,1.0,True,0.5,0,False,left,0.0,1.3026,1.411,0.1083,0.3529,0.9357,0.5828,A,0.08
107,0.50214,0.1,1,0.45193,0.29292,0.50214,107,2.19269,-0.11,-0.05858,0.44356,5,1D2U,1.0,False,0.359,8,True,left,-0.16738,0.3925,0.9593,0.5667,1.4839,1.9426,0.4587,A,0.125
108,0.50214,1.2,1,0.30966,0.34313,0.47704,108,2.58604,0.9,0.45193,0.95407,5,lapse_rate,1.0,True,0.4,0,False,left,0.25107,0.2638,1.2966,1.0328,1.6054,2.4386,0.8332,A,0.08
109,0.50214,1.2,2,0.38498,0.22596,0.53562,109,2.27638,0.25,0.12554,0.62768,5,2D1U,2.0,True,0.441,11,True,right,0.0,1.4142,2.1221,0.7079,0.3395,0.9228,0.5833,A,0.08
110,0.50214,1.2,2,0.2427,0.41845,0.66116,110,2.25127,-0.15,-0.07532,0.42682,5,1D2U,2.0,False,0.523,9,True,right,-0.16738,1.3123,1.8208,0.5085,0.2793,0.696,0.4167,A,0.08
111,0.50214,1.2,1,0.3515,0.43519,0.71974,111,2.63625,0.25,0.12554,0.62768,5,2D1U,1.0,True,0.112,11,True,left,0.25107,0.3064,1.0143,0.7079,1.5636,2.3979,0.8344,A,0.08
112,0.50214,0.1,2,0.37661,0.28455,0.67789,112,2.79526,0.9,0.45193,0.95407,5,lapse_rate,2.0,True,0.134,0,False,right,0.0,1.5557,2.6302,1.0745,0.3141,0.939,0.6249,A,0.125
113,0.50214,0.1,2,0.34313,0.42682,0.84528,113,2.71994,0.21,0.1088,0.60257,5,2D1U,1.0,False,0.466,11,False,left,-0.16738,1.6109,2.3368,0.726,0.3698,0.8279,0.4581,A,0.125
114,0.50214,0.1,1,0.30129,0.20923,0.58583,114,2.0002,-0.19,-0.09206,0.40171,5,1D2U,2.0,True,0.113,9,False,right,0.25107,0.2449,0.7691,0.5242,1.1697,2.0441,0.8744,A,0.125
115,0.50214,1.2,2,0.25107,0.25107,0.71974,115,2.67809,0.9,0.45193,0.95407,5,lapse_rate,2.0,True,0.167,0,False,right,0.0,1.4629,2.4968,1.0339,0.2046,0.7881,0.5834,A,0.08
116,0.50214,1.2,2,0.32639,0.43519,0.83691,116,3.0547,0.9,0.45193,0.95407,5,lapse_rate,2.0,True,0.112,0,False,right,-0.16738,1.5728,2.6061,1.0333,0.3645,0.7813,0.4168,A,0.08
117,0.50214,0.1,2,0.41008,0.32639,0.69463,117,2.56092,0.25,0.12554,0.62768,5,2D1U,2.0,True,1.158,12,True,right,0.25107,1.7353,2.4855,0.7502,0.2277,1.1023,0.8746,A,0.125
118,0.50214,1.2,1,0.3515,0.22596,0.48541,118,1.96672,-0.19,-0.09206,0.40171,5,1D2U,2.0,True,0.333,9,False,right,0.0,0.3072,0.7907,0.4835,1.2323,1.8158,0.5835,A,0.08
119,0.50214,0.1,1,0.36824,0.41008,0.76995,119,2.07552,-0.95,-0.47704,0.02511,5,lapse_rate,2.0,True,0.208,0,False,right,-0.16738,0.3049,0.4546,0.1497,1.2464,1.7046,0.4582,A,0.125
120,0.50214,1.2,2,0.40171,0.34313,0.48541,120,2.36007,0.25,0.12554,0.62768,5,2D1U,1.0,False,0.266,12,True,left,0.25107,1.5048,2.213,0.7082,0.2297,1.0627,0.8331,A,0.08
121,0.50214,1.2,2,0.42682,0.3515,0.87875,121,2.58603,-0.15,-0.07532,0.42682,5,1D2U,1.0,True,0.225,10,True,left,0.0,1.7953,2.304,0.5087,0.3788,0.962,0.5832,A,0.08
122,0.50214,0.1,2,0.35987,0.40171,0.44356,122,2.1341,-0.15,-0.07532,0.42682,5,1D2U,1.0,True,0.134,10,True,left,-0.16738,1.2255,1.7751,0.5497,0.3838,0.8412,0.4575,A,0.125
123,0.50214,0.1,1,0.23433,0.20086,0.47704,123,2.05879,0.29,0.14227,0.64442,5,2D1U,1.0,True,0.358,12,False,left,0.25107,0.1716,0.9378,0.7662,1.2301,2.1136,0.8835,A,0.125
124,0.50214,0.1,1,0.42682,0.41008,0.41008,124,1.77423,-0.95,-0.47704,0.02511,5,lapse_rate,2.0,True,0.791,0,False,right,0.0,0.3626,0.5122,0.1496,0.8623,1.4872,0.625,A,0.125
125,0.50214,0.1,2,0.25107,0.25944,0.48541,125,1.94162,-0.11,-0.05858,0.44356,5,1D2U,1.0,True,0.375,10,False,left,-0.16738,1.1618,1.7284,0.5665,0.2783,0.7363,0.458,A,0.125
126,0.50214,0.1,2,0.25107,0.33476,0.54399,126,2.58603,0.9,0.45193,0.95407,5,lapse_rate,2.0,True,0.391,0,False,right,0.25107,1.4279,2.503,1.075,0.07,0.9444,0.8744,A,0.125
127,0.50214,1.2,1,0.25944,0.25107,0.5691,127,2.22617,0.29,0.14227,0.64442,5,2D1U,1.0,True,0.309,12,False,left,0.0,0.22,0.9447,0.7247,1.47,2.0531,0.5831,A,0.08
128,0.50214,1.2,1,0.22596,0.35987,0.78669,128,2.31822,-0.11,-0.05858,0.44356,5,1D2U,2.0,True,0.54,10,False,right,-0.16738,0.1812,0.7057,0.5246,1.5317,1.9474,0.4157,A,0.08
129,0.50214,1.2,1,0.32639,0.27618,0.76158,129,2.49397,0.25,0.12554,0.62768,5,2D1U,1.0,True,0.325,13,True,left,0.25107,0.2822,0.9913,0.7091,1.5828,2.4158,0.833,A,0.08
130,0.50214,1.2,2,0.30129,0.20923,0.64442,130,2.61115,0.9,0.45193,0.95407,5,lapse_rate,2.0,True,0.2,0,False,right,0.0,1.4391,2.4719,1.0329,0.2556,0.8382,0.5826,A,0.08
131,0.50214,0.1,2,0.26781,0.33476,0.73648,131,2.46887,0.25,0.12554,0.62768,5,2D1U,2.0,True,0.283,13,True,right,-0.16738,1.4231,2.1729,0.7497,0.2899,0.748,0.4581,A,0.125
132,0.50214,1.2,1,0.44356,0.42682,0.64442,132,2.04205,-0.95,-0.47704,0.02511,5,lapse_rate,2.0,True,1.367,0,False,right,0.25107,0.4014,0.5101,0.1086,0.9849,1.8179,0.8331,A,0.08
133,0.50214,0.1,1,0.30966,0.39335,0.60257,133,2.27639,-0.07,-0.03348,0.46867,5,1D2U,1.0,False,0.533,10,False,left,0.0,0.2468,0.838,0.5912,1.3799,2.0048,0.6248,A,0.125
134,0.50214,0.1,2,0.33476,0.38498,0.82017,134,2.48561,-0.11,-0.05858,0.44356,5,1D2U,1.0,True,0.475,11,True,left,-0.16738,1.5708,2.1372,0.5664,0.3544,0.8127,0.4583,A,0.125
135,0.50214,1.2,1,0.2176,0.25944,0.54399,135,1.54828,-0.95,-0.47704,0.02511,5,lapse_rate,2.0,True,0.366,0,False,right,0.25107,0.177,0.2859,0.1089,0.6602,1.4943,0.8341,A,0.08
136,0.50214,1.2,2,0.20086,0.33476,0.55236,136,2.19269,0.21,0.1088,0.60257,5,2D1U,2.0,True,0.334,13,False,right,0.0,1.2486,1.9313,0.6827,0.1568,0.7394,0.5826,A,0.08
137,0.50214,0.1,1,0.20086,0.2176,0.66952,137,1.61523,-0.95,-0.47704,0.02511,5,lapse_rate,2.0,True,0.384,0,False,right,-0.16738,0.1447,0.2947,0.15,0.9867,1.4447,0.458,A,0.125
138,0.50214,1.2,2,0.42682,0.27618,0.74485,138,2.55256,0.21,0.1088,0.60257,5,2D1U,2.0,True,0.166,13,False,right,0.25107,1.7931,2.4761,0.683,0.2597,1.0929,0.8333,A,0.08
139,0.50214,1.2,2,0.34313,0.35987,0.85364,139,2.50234,-0.11,-0.05858,0.44356,5,1D2U,1.0,True,0.325,11,True,left,0.0,1.687,2.2119,0.5249,0.2948,0.8782,0.5835,A,0.08
140,0.50214,1.2,2,0.20923,0.2427,0.52725,140,1.50643,-0.95,-0.47704,0.02511,5,lapse_rate,1.0,True,0.413,0,False,left,-0.16738,1.1534,1.2616,0.1082,0.2535,0.67,0.4165,A,0.08
141,0.50214,0.1,2,0.34313,0.28455,0.85364,141,2.56929,0.17,0.08369,0.58583,5,2D1U,2.0,True,0.325,13,False,right,0.25107,1.8277,2.5361,0.7084,0.1615,1.0363,0.8748,A,0.125
142,0.50214,0.1,2,0.37661,0.30129,0.61931,142,2.26802,-0.07,-0.03348,0.46867,5,1D2U,2.0,False,0.325,12,True,right,0.0,1.4964,2.0886,0.5922,0.3136,0.9385,0.6248,A,0.125
143,0.50214,0.1,2,0.33476,0.34313,0.60257,143,2.36843,0.17,0.08369,0.58583,5,2D1U,2.0,True,0.257,13,False,right,-0.16738,1.3562,2.0648,0.7085,0.3565,0.815,0.4585,A,0.125
144,0.50214,0.1,1,0.23433,0.41008,0.89549,144,2.06715,-0.95,-0.47704,0.02511,5,lapse_rate,2.0,True,0.292,0,False,right,0.25107,0.1779,0.3278,0.1499,1.0368,1.9113,0.8745,A,0.125
145,0.50214,1.2,2,0.41845,0.38498,0.43519,145,2.18432,-0.11,-0.05858,0.44356,5,1D2U,2.0,False,0.275,13,True,right,0.0,1.3488,1.8732,0.5244,0.3733,0.9568,0.5835,A,0.08
146,0.50214,0.1,2,0.22596,0.37661,0.65279,146,2.71157,0.9,0.45193,0.95407,5,lapse_rate,2.0,True,0.267,0,False,right,-0.16738,1.2965,2.3717,1.0751,0.2469,0.7051,0.4582,A,0.125
147,0.50214,1.2,2,0.30129,0.30966,0.43519,147,2.11738,0.13,0.06695,0.5691,5,2D1U,1.0,False,0.608,13,False,left,0.25107,1.3618,2.0111,0.6493,0.1367,0.9701,0.8334,A,0.08
148,0.50214,1.2,2,0.44356,0.44356,0.5942,148,2.41028,-0.15,-0.07532,0.42682,5,1D2U,1.0,True,0.284,13,False,left,0.0,1.5363,2.0445,0.5082,0.4031,0.9855,0.5824,A,0.08
149,0.50214,0.1,1,0.20086,0.2427,0.66952,149,2.04204,-0.15,-0.07532,0.42682,5,1D2U,1.0,False,0.476,13,False,left,-0.16738,0.1394,0.6888,0.5495,1.3813,1.8392,0.4579,A,0.125
150,0.50214,0.1,1,0.34313,0.41008,0.54399,150,1.82445,-0.95,-0.47704,0.02511,5,lapse_rate,2.0,True,0.284,0,False,right,0.25107,0.2802,0.4304,0.1502,0.7884,1.6631,0.8747,A,0.125
151,0.50214,0.1,2,0.33476,0.40171,0.64442,151,2.46886,0.17,0.08369,0.58583,5,2D1U,2.0,True,0.114,14,True,right,0.0,1.479,2.1869,0.708,0.2713,0.8949,0.6236,A,0.125
152,0.50214,0.1,1,0.41845,0.34313,0.46867,152,2.31822,0.17,0.08369,0.58583,5,2D1U,1.0,True,0.758,14,True,left,-0.16738,0.3595,1.0672,0.7077,1.5594,2.0177,0.4583,A,0.125
153,0.50214,0.1,2,0.36824,0.32639,0.43519,153,2.58603,0.9,0.45193,0.95407,5,lapse_rate,2.0,True,0.841,0,False,right,0.25107,1.4306,2.5055,1.0749,0.1808,1.0558,0.875,A,0.125
154,0.50214,1.2,2,0.34313,0.39335,0.52725,154,2.16758,-0.19,-0.09206,0.40171,5,1D2U,2.0,False,1.016,13,False,right,0.0,1.3647,1.8483,0.4836,0.2984,0.8814,0.583,A,0.08
155,0.50214,1.2,2,0.25944,0.33476,0.40171,155,1.88303,-0.23,-0.11717,0.38498,5,1D2U,1.0,True,0.34,13,False,left,-0.16738,1.0721,1.5384,0.4663,0.2971,0.7138,0.4167,A,0.08
156,0.50214,1.2,2,0.40171,0.41845,0.74485,156,2.63625,0.13,0.06695,0.5691,5,2D1U,2.0,True,0.5,15,True,right,0.25107,1.7696,2.4205,0.6509,0.2367,1.0698,0.833,A,0.08
157,0.50214,0.1,1,0.43519,0.41845,0.46867,157,1.84956,-0.95,-0.47704,0.02511,5,lapse_rate,2.0,True,0.975,0,False,right,0.0,0.3717,0.5226,0.1509,0.9303,1.5553,0.625,A,0.125
158,0.50214,0.1,1,0.29292,0.2427,0.60257,158,1.66544,-0.95,-0.47704,0.02511,5,lapse_rate,2.0,True,0.933,0,False,right,-0.16738,0.2295,0.3796,0.15,1.0049,1.4638,0.4589,A,0.125
159,0.50214,0.1,1,0.33476,0.22596,0.63605,159,2.08389,-0.23,-0.11717,0.38498,5,1D2U,2.0,True,0.308,13,False,right,0.25107,0.2718,0.78,0.5082,1.2294,2.1047,0.8753,A,0.125
160,0.50214,0.1,1,0.26781,0.31802,0.41845,160,2.07552,0.13,0.06695,0.5691,5,2D1U,1.0,True,0.284,15,True,left,0.0,0.2047,0.8956,0.6909,1.2546,1.8793,0.6247,A,0.125
161,0.50214,0.1,1,0.36824,0.39335,0.72811,161,2.53583,0.09,0.04185,0.54399,5,2D1U,2.0,False,1.091,15,False,right,-0.16738,0.31,0.9758,0.6657,1.7271,2.1849,0.4578,A,0.125
162,0.50214,1.2,1,0.25944,0.41008,0.61094,162,1.80771,-0.95,-0.47704,0.02511,5,lapse_rate,2.0,True,1.675,0,False,right,0.25107,0.2138,0.322,0.1083,0.7636,1.5972,0.8336,A,0.08
163,0.50214,1.2,1,0.40171,0.31802,0.8118,163,2.43538,-0.19,-0.09206,0.40171,5,1D2U,1.0,False,1.791,14,True,left,0.0,0.3574,0.8401,0.4828,1.6074,2.1904,0.583,A,0.08
164,0.50214,1.2,1,0.37661,0.30129,0.40171,164,2.53582,0.9,0.45193,0.95407,5,lapse_rate,1.0,True,0.382,0,False,left,-0.16738,0.3319,1.3648,1.0329,1.8066,2.2227,0.4161,A,0.08
165,0.50214,1.2,2,0.33476,0.26781,0.71137,165,2.38518,0.13,0.06695,0.5691,5,2D1U,1.0,False,1.051,16,True,left,0.25107,1.6658,2.3152,0.6494,0.1655,0.9987,0.8331,A,0.08
166,0.50214,1.2,2,0.41845,0.30966,0.67789,166,2.29312,-0.23,-0.11717,0.38498,5,1D2U,1.0,True,0.35,15,True,left,0.0,1.5881,2.0548,0.4667,0.3714,0.9549,0.5835,A,0.08
167,0.50214,0.1,2,0.3515,0.2427,0.71137,167,2.39354,0.17,0.08369,0.58583,5,2D1U,2.0,True,0.674,16,False,right,-0.16738,1.4807,2.1889,0.7082,0.3726,0.8303,0.4577,A,0.125
168,0.50214,1.2,2,0.42682,0.34313,0.45193,168,2.67809,0.9,0.45193,0.95407,5,lapse_rate,2.0,True,0.533,0,False,right,0.25107,1.5009,2.534,1.0331,0.2598,1.0924,0.8326,A,0.08
169,0.50214,0.1,2,0.43519,0.20923,0.66116,169,2.1927,-0.23,-0.11717,0.38498,5,1D2U,1.0,True,0.317,15,True,left,0.0,1.599,2.1072,0.5082,0.3742,0.9988,0.6246,A,0.125
170,0.50214,0.1,1,0.26781,0.34313,0.62768,170,1.76587,-0.95,-0.47704,0.02511,5,lapse_rate,2.0,True,0.317,0,False,right,-0.16738,0.206,0.3554,0.1494,1.0053,1.4638,0.4585,A,0.125
171,0.50214,0.1,2,0.28455,0.38498,0.40171,171,2.15921,0.17,0.08369,0.58583,5,2D1U,1.0,False,0.399,16,False,left,0.25107,1.3127,2.0213,0.7086,0.0963,0.9706,0.8744,A,0.125
172,0.50214,1.2,1,0.3515,0.41845,0.51888,172,2.19268,-0.19,-0.09206,0.40171,5,1D2U,1.0,False,0.416,16,True,left,0.0,0.3057,0.7892,0.4834,1.264,1.8475,0.5835,A,0.08
173,0.50214,1.2,1,0.25944,0.37661,0.51051,173,2.25127,0.21,0.1088,0.60257,5,2D1U,1.0,True,0.376,16,False,left,-0.16738,0.2129,0.8955,0.6826,1.4462,1.8623,0.4161,A,0.08
174,0.50214,0.1,1,0.33476,0.38498,0.42682,174,2.60277,0.9,0.45193,0.95407,5,lapse_rate,1.0,True,0.525,0,False,left,0.25107,0.2728,1.3478,1.075,1.5901,2.4645,0.8744,A,0.125
175,0.50214,1.2,1,0.38498,0.23433,0.87038,175,2.37681,-0.23,-0.11717,0.38498,5,1D2U,2.0,True,0.408,17,True,right,0.0,0.3388,0.8057,0.4669,1.6307,2.2139,0.5832,A,0.08
176,0.50214,0.1,2,0.2427,0.35987,0.43519,176,2.14247,0.21,0.1088,0.60257,5,2D1U,1.0,False,0.642,16,False,left,-0.16738,1.0984,1.8238,0.7254,0.2653,0.7238,0.4585,A,0.125
177,0.50214,1.2,1,0.29292,0.30966,0.89549,177,2.95428,0.9,0.45193,0.95407,5,lapse_rate,1.0,True,0.4,0,False,left,0.25107,0.2475,1.2809,1.0334,2.006,2.839,0.833,A,0.08
178,0.50214,0.1,1,0.2176,0.20923,0.53562,178,1.84957,-0.23,-0.11717,0.38498,5,1D2U,2.0,True,0.375,17,True,right,0.0,0.1621,0.67,0.5079,1.1454,1.7705,0.6251,A,0.125
179,0.50214,0.1,2,0.27618,0.23433,0.62768,179,2.04204,-0.19,-0.09206,0.40171,5,1D2U,1.0,True,0.35,18,True,left,-0.16738,1.3206,1.8454,0.5248,0.2957,0.7535,0.4578,A,0.125
180,0.50214,1.2,1,0.20923,0.30129,0.68626,180,2.3266,0.25,0.12554,0.62768,5,2D1U,1.0,True,0.192,16,False,left,0.25107,0.1686,0.877,0.7084,1.3939,2.227,0.8331,A,0.08
181,0.50214,0.1,2,0.41008,0.41008,0.60257,181,2.87894,0.9,0.45193,0.95407,5,lapse_rate,2.0,True,0.283,0,False,right,0.0,1.5143,2.5891,1.0748,0.3478,0.9726,0.6248,A,0.125
182,0.50214,1.2,2,0.43519,0.30966,0.66952,182,2.54419,0.25,0.12554,0.62768,5,2D1U,1.0,False,0.393,16,False,left,-0.16738,1.5154,2.2235,0.7081,0.4734,0.8901,0.4167,A,0.08
183,0.50214,1.2,1,0.22596,0.25944,0.82854,183,2.21779,-0.19,-0.09206,0.40171,5,1D2U,2.0,True,0.592,18,True,right,0.25107,0.1846,0.6681,0.4835,1.3258,2.1597,0.8339,A,0.08
184,0.50214,0.1,2,0.25107,0.26781,0.76158,184,2.73667,0.9,0.45193,0.95407,5,lapse_rate,2.0,True,0.324,0,False,right,0.0,1.5134,2.5879,1.0745,0.1874,0.8122,0.6247,A,0.125
185,0.50214,0.1,1,0.27618,0.29292,0.44356,185,2.15922,0.29,0.14227,0.64442,5,2D1U,1.0,True,0.583,16,False,left,-0.16738,0.2161,0.983,0.7669,1.4501,1.9082,0.458,A,0.125
186,0.50214,0.1,1,0.22596,0.32639,0.83691,186,2.31822,-0.15,-0.07532,0.42682,5,1D2U,2.0,True,0.35,18,False,right,0.25107,0.1641,0.7138,0.5496,1.3637,2.2386,0.875,A,0.125
187,0.50214,0.1,1,0.28455,0.2427,0.88712,187,2.87058,0.9,0.45193,0.95407,5,lapse_rate,1.0,True,0.234,0,False,left,0.0,0.2261,1.3013,1.0752,2.1262,2.7511,0.6249,A,0.125
188,0.50214,0.1,2,0.36824,0.30966,0.87038,188,3.00449,0.9,0.45193,0.95407,5,lapse_rate,2.0,True,0.308,0,False,right,-0.16738,1.6589,2.7338,1.0749,0.3923,0.8502,0.4579,A,0.125
189,0.50214,0.1,2,0.41845,0.44356,0.48541,189,2.49398,0.29,0.14227,0.64442,5,2D1U,2.0,True,0.875,16,False,right,0.25107,1.5294,2.2959,0.7665,0.2292,1.1044,0.8752,A,0.125
190,0.50214,1.2,2,0.32639,0.39335,0.61094,190,2.25964,-0.15,-0.07532,0.42682,5,1D2U,1.0,True,0.883,18,False,left,0.0,1.4303,1.9385,0.5082,0.2798,0.863,0.5831,A,0.08
191,0.50214,1.2,1,0.41845,0.31802,0.66952,191,2.35169,-0.11,-0.05858,0.44356,5,1D2U,1.0,False,0.323,18,False,left,-0.16738,0.3715,0.8965,0.525,1.6055,2.0223,0.4168,A,0.08
192,0.50214,0.1,1,0.27618,0.30966,0.61094,192,2.65299,0.9,0.45193,0.95407,5,lapse_rate,1.0,True,0.392,0,False,left,0.25107,0.2192,1.2945,1.0752,1.7198,2.594,0.8743,A,0.125
193,0.50214,1.2,2,0.43519,0.30129,0.58583,193,2.45213,0.25,0.12554,0.62768,5,2D1U,2.0,True,0.367,17,True,right,0.0,1.5136,2.2217,0.7081,0.3882,0.9713,0.5831,A,0.08
194,0.50214,0.1,2,0.39335,0.27618,0.85364,194,2.65299,0.25,0.12554,0.62768,5,2D1U,2.0,True,0.367,17,True,right,-0.16738,1.6627,2.4123,0.7496,0.4127,0.8703,0.4576,A,0.125
195,0.50214,0.1,2,0.39335,0.37661,0.88712,195,3.11329,0.9,0.45193,0.95407,5,lapse_rate,2.0,True,0.567,0,False,right,0.25107,1.9057,2.981,1.0753,0.2061,1.0809,0.8749,A,0.125
196,0.50214,0.1,2,0.34313,0.2427,0.41008,196,1.92487,-0.15,-0.07532,0.42682,5,1D2U,1.0,True,0.675,19,True,left,0.0,1.2577,1.8078,0.5501,0.2826,0.9077,0.6251,A,0.125
197,0.50214,0.1,2,0.3515,0.43519,0.64442,197,2.36007,-0.15,-0.07532,0.42682,5,1D2U,1.0,True,0.55,19,True,left,-0.16738,1.4178,1.9681,0.5503,0.3769,0.8343,0.4574,A,0.125
198,0.50214,0.1,2,0.2427,0.31802,0.86201,198,1.94998,-0.95,-0.47704,0.02511,5,lapse_rate,1.0,True,0.291,0,False,left,0.25107,1.7333,1.8828,0.1495,0.0582,0.9332,0.875,A,0.125
199,0.50214,1.2,2,0.20086,0.44356,0.73648,199,2.48561,0.21,0.1088,0.60257,5,2D1U,2.0,True,0.825,17,False,right,0.0,1.4326,2.1158,0.6832,0.1577,0.7407,0.583,A,0.08
200,0.50214,1.2,1,0.32639,0.43519,0.71974,200,2.58603,0.21,0.1088,0.60257,5,2D1U,1.0,True,0.298,17,False,left,-0.16738,0.2795,0.9627,0.6831,1.7209,2.1371,0.4162,A,0.08
201,0.50214,1.2,1,0.37661,0.20923,0.87038,201,2.40192,-0.11,-0.05858,0.44356,5,1D2U,2.0,True,1.167,20,True,right,0.25107,0.3326,0.8571,0.5245,1.5573,2.3913,0.8341,A,0.08
202,0.50214,1.2,1,0.38498,0.27618,0.52725,202,1.71566,-0.95,-0.47704,0.02511,5,lapse_rate,2.0,True,0.459,0,False,right,0.0,0.3431,0.451,0.1079,0.9348,1.5174,0.5826,A,0.08
203,0.50214,0.1,1,0.29292,0.3515,0.79506,203,1.96673,-0.95,-0.47704,0.02511,5,lapse_rate,2.0,True,0.592,0,False,right,-0.16738,0.2349,0.385,0.1501,1.2012,1.6603,0.4592,A,0.125
204,0.50214,0.1,1,0.41008,0.3515,0.84528,204,2.55256,-0.11,-0.05858,0.44356,5,1D2U,2.0,True,0.309,20,True,right,0.25107,0.3483,0.9149,0.5666,1.5741,2.4481,0.8741,A,0.125
205,0.50214,0.1,1,0.2427,0.43519,0.86201,205,2.62787,0.17,0.08369,0.58583,5,2D1U,1.0,True,0.125,17,False,left,0.0,0.1803,0.8883,0.708,1.689,2.3137,0.6247,A,0.125
206,0.50214,1.2,2,0.36824,0.23433,0.84528,206,1.9751,-0.95,-0.47704,0.02511,5,lapse_rate,1.0,True,0.426,0,False,left,-0.16738,1.6282,1.7367,0.1086,0.4114,0.8274,0.4161,A,0.08
207,0.50214,0.1,1,0.26781,0.41008,0.86201,207,2.62787,0.17,0.08369,0.58583,5,2D1U,2.0,False,1.367,17,False,right,0.25107,0.2054,0.9135,0.7081,1.5884,2.4637,0.8752,A,0.125
208,0.50214,1.2,2,0.33476,0.44356,0.43519,208,2.18432,-0.07,-0.03348,0.46867,5,1D2U,1.0,True,0.384,20,False,left,0.0,1.263,1.8136,0.5507,0.2886,0.8714,0.5828,A,0.08
209,0.50214,1.2,1,0.28455,0.22596,0.703,209,2.18432,-0.07,-0.03348,0.46867,5,1D2U,1.0,False,0.624,20,False,left,-0.16738,0.2401,0.7907,0.5506,1.5315,1.948,0.4165,A,0.08
210,0.50214,0.1,2,0.44356,0.3515,0.42682,210,1.74913,-0.95,-0.47704,0.02511,5,lapse_rate,2.0,False,0.175,0,False,right,0.25107,1.5023,1.6526,0.1503,0.2605,1.1357,0.8752,A,0.125
211,0.50214,1.2,2,0.27618,0.33476,0.68626,211,2.40191,0.21,0.1088,0.60257,5,2D1U,2.0,True,1.908,18,True,right,0.0,1.4615,2.145,0.6835,0.2369,0.8196,0.5827,A,0.08
212,0.50214,1.2,1,0.26781,0.20923,0.61094,212,1.61523,-0.95,-0.47704,0.02511,5,lapse_rate,2.0,True,0.329,0,False,right,-0.16738,0.2218,0.3302,0.1084,0.9801,1.3969,0.4168,A,0.08
213,0.50214,0.1,1,0.38498,0.27618,0.86201,213,2.46887,-0.11,-0.05858,0.44356,5,1D2U,2.0,True,0.509,21,True,right,0.25107,0.3228,0.8898,0.567,1.5648,2.4391,0.8743,A,0.125
214,0.50214,0.1,2,0.32639,0.28455,0.89549,214,2.61114,0.21,0.1088,0.60257,5,2D1U,2.0,True,0.274,18,True,right,0.0,1.7267,2.452,0.7253,0.2682,0.8932,0.625,A,0.125
215,0.50214,0.1,1,0.43519,0.35987,0.54399,215,1.8663,-0.95,-0.47704,0.02511,5,lapse_rate,2.0,True,0.366,0,False,right,-0.16738,0.3733,0.5232,0.1499,1.0899,1.5484,0.4585,A,0.125
216,0.50214,0.1,1,0.27618,0.30966,0.58583,216,2.25964,0.17,0.08369,0.58583,5,2D1U,1.0,True,0.184,19,True,left,0.25107,0.2196,0.9286,0.709,1.3278,2.2032,0.8754,A,0.125
217,0.50214,1.2,1,0.20923,0.2176,0.5691,217,1.94163,-0.11,-0.05858,0.44356,5,1D2U,1.0,False,0.358,21,True,left,0.0,0.1621,0.6873,0.5252,1.2123,1.7958,0.5835,A,0.08
218,0.50214,1.2,1,0.39335,0.34313,0.48541,218,2.15085,-0.15,-0.07532,0.42682,5,1D2U,1.0,False,0.413,21,False,left,-0.16738,0.3459,0.8535,0.5075,1.3789,1.7953,0.4164,A,0.08
219,0.50214,1.2,2,0.42682,0.20923,0.8118,219,2.53582,0.17,0.08369,0.58583,5,2D1U,1.0,False,0.8,19,True,left,0.25107,1.8567,2.5233,0.6666,0.2567,1.0904,0.8337,A,0.08
220,0.50214,0.1,1,0.37661,0.20086,0.55236,220,2.58604,0.9,0.45193,0.95407,5,lapse_rate,1.0,True,0.358,0,False,left,0.0,0.319,1.3938,1.0748,1.8851,2.5104,0.6252,A,0.125
221,0.50214,1.2,2,0.2176,0.2176,0.89549,221,1.85794,-0.95,-0.47704,0.02511,5,lapse_rate,1.0,True,0.413,0,False,left,-0.16738,1.5265,1.635,0.1085,0.2599,0.677,0.4172,A,0.08
222,0.50214,0.1,2,0.33476,0.30129,0.43519,222,2.17595,0.21,0.1088,0.60257,5,2D1U,2.0,True,0.11,20,True,right,0.25107,1.3973,2.1224,0.7251,0.1476,1.0222,0.8746,A,0.125
223,0.50214,0.1,2,0.28455,0.2176,0.75322,223,2.15922,-0.19,-0.09206,0.40171,5,1D2U,1.0,True,0.508,21,False,left,0.0,1.5386,2.0636,0.525,0.2224,0.8468,0.6245,A,0.125
224,0.50214,0.1,1,0.29292,0.2427,0.75322,224,2.19269,-0.19,-0.09206,0.40171,5,1D2U,1.0,False,0.359,21,False,left,-0.16738,0.2347,0.7596,0.5249,1.5348,1.9936,0.4588,A,0.125
225,0.50214,1.2,1,0.34313,0.2427,0.42682,225,2.11736,0.21,0.1088,0.60257,5,2D1U,1.0,True,1.465,20,True,left,0.25107,0.2996,0.9831,0.6835,1.2409,2.0749,0.834,A,0.08
226,0.50214,1.2,1,0.31802,0.3515,0.47704,226,1.67381,-0.95,-0.47704,0.02511,5,lapse_rate,2.0,True,0.4,0,False,right,0.0,0.2718,0.3799,0.1081,0.8133,1.3965,0.5833,A,0.08
227,0.50214,1.2,2,0.33476,0.28455,0.62768,227,2.33496,0.17,0.08369,0.58583,5,2D1U,2.0,True,0.393,21,True,right,-0.16738,1.3701,2.0368,0.6667,0.3706,0.787,0.4163,A,0.08
228,0.50214,1.2,1,0.44356,0.25107,0.56073,228,2.14248,-0.23,-0.11717,0.38498,5,1D2U,2.0,True,0.391,21,False,right,0.25107,0.3969,0.8632,0.4664,1.2556,2.0884,0.8328,A,0.08
229,0.50214,0.1,1,0.35987,0.42682,0.63605,229,2.87895,0.9,0.45193,0.95407,5,lapse_rate,1.0,True,0.333,0,False,left,0.0,0.2995,1.3744,1.0749,1.95,2.5752,0.6252,A,0.125
230,0.50214,1.2,2,0.25107,0.28455,0.76995,230,2.76178,0.9,0.45193,0.95407,5,lapse_rate,2.0,True,0.45,0,False,right,-0.16738,1.4336,2.4669,1.0333,0.2916,0.7085,0.4169,A,0.08
231,0.50214,0.1,1,0.29292,0.37661,0.61931,231,2.17596,-0.23,-0.11717,0.38498,5,1D2U,2.0,True,0.4,21,False,right,0.25107,0.2334,0.7417,0.5083,1.1747,2.0502,0.8755,A,0.125
232,0.50214,0.1,2,0.2176,0.41008,0.79506,232,2.51071,0.17,0.08369,0.58583,5,2D1U,2.0,True,0.525,21,True,right,0.0,1.5129,2.2212,0.7083,0.1542,0.7792,0.625,A,0.125
233,0.50214,0.1,2,0.35987,0.42682,0.56073,233,2.41866,0.13,0.06695,0.5691,5,2D1U,2.0,True,0.384,21,False,right,-0.16738,1.3382,2.0295,0.6913,0.38,0.8378,0.4578,A,0.125
234,0.50214,1.2,1,0.42682,0.22596,0.66952,234,2.77851,0.9,0.45193,0.95407,5,lapse_rate,1.0,True,0.115,0,False,left,0.25107,0.3827,1.4159,1.0332,1.916,2.7493,0.8332,A,0.08
235,0.50214,1.2,1,0.35987,0.32639,0.85364,235,2.44375,-0.19,-0.09206,0.40171,5,1D2U,2.0,True,0.324,22,True,right,0.0,0.3126,0.7953,0.4827,1.6044,2.1876,0.5832,A,0.08
236,0.50214,1.2,2,0.41845,0.26781,0.71974,236,2.47724,0.13,0.06695,0.5691,5,2D1U,1.0,False,0.558,21,False,left,-0.16738,1.5514,2.2017,0.6503,0.4602,0.8761,0.4158,A,0.08
237,0.50214,1.2,2,0.22596,0.43519,0.78669,237,2.35169,-0.19,-0.09206,0.40171,5,1D2U,1.0,True,0.35,22,True,left,0.25107,1.6316,2.115,0.4834,0.056,0.8896,0.8336,A,0.08
238,0.50214,1.2,2,0.20086,0.27618,0.66116,238,2.59441,0.9,0.45193,0.95407,5,lapse_rate,2.0,True,0.35,0,False,right,0.0,1.3541,2.3882,1.0341,0.1551,0.7376,0.5825,A,0.08
239,0.50214,1.2,1,0.20923,0.32639,0.40171,239,1.46458,-0.95,-0.47704,0.02511,5,lapse_rate,2.0,True,0.387,0,False,right,-0.16738,0.1691,0.2763,0.1072,0.7187,1.135,0.4164,A,0.08
240,0.50214,0.1,2,0.30129,0.25107,0.82017,240,2.30149,-0.15,-0.07532,0.42682,5,1D2U,1.0,True,0.517,22,False,left,0.25107,1.7474,2.2974,0.5501,0.1138,0.989,0.8752,A,0.125
241,0.50214,0.1,1,0.20086,0.36824,0.61931,241,2.27638,0.17,0.08369,0.58583,5,2D1U,1.0,True,0.274,22,True,left,0.0,0.1389,0.846,0.7071,1.4045,2.0301,0.6256,A,0.125
242,0.50214,0.1,1,0.41008,0.29292,0.76158,242,2.39354,-0.15,-0.07532,0.42682,5,1D2U,1.0,False,1.833,22,False,left,-0.16738,0.3509,0.9013,0.5504,1.6847,2.1433,0.4586,A,0.125
243,0.50214,0.1,2,0.2176,0.32639,0.62768,243,1.69892,-0.95,-0.47704,0.02511,5,lapse_rate,1.0,True,0.284,0,False,left,0.25107,1.4766,1.6267,0.1501,0.035,0.9098,0.8748,A,0.125
244,0.50214,1.2,1,0.43519,0.41008,0.73648,244,2.66972,0.17,0.08369,0.58583,5,2D1U,1.0,True,0.408,22,True,left,0.0,0.3873,1.0544,0.6671,1.7465,2.3295,0.583,A,0.08
245,0.50214,1.2,1,0.23433,0.41008,0.51888,245,2.06714,-0.19,-0.09206,0.40171,5,1D2U,2.0,True,0.776,23,True,right,-0.16738,0.1913,0.6738,0.4825,1.233,1.6491,0.4161,A,0.08
246,0.50214,1.2,1,0.38498,0.2176,0.61931,246,2.29313,0.13,0.06695,0.5691,5,2D1U,2.0,False,0.401,23,True,right,0.25107,0.3448,0.9948,0.65,1.4447,2.2783,0.8336,A,0.08
247,0.50214,1.2,1,0.43519,0.2176,0.45193,247,2.56093,0.9,0.45193,0.95407,5,lapse_rate,1.0,True,0.158,0,False,left,0.0,0.389,1.4221,1.0331,1.8302,2.4137,0.5835,A,0.08
248,0.50214,1.2,2,0.38498,0.35987,0.73648,248,2.00858,-0.95,-0.47704,0.02511,5,lapse_rate,1.0,True,0.642,0,False,left,-0.16738,1.5349,1.6429,0.108,0.4257,0.8422,0.4165,A,0.08
249,0.50214,0.1,1,0.42682,0.22596,0.61094,249,2.35169,0.17,0.08369,0.58583,5,2D1U,1.0,True,0.4,24,True,left,0.25107,0.3656,1.0734,0.7078,1.4979,2.3746,0.8767,A,0.125
250,0.50214,0.1,1,0.28455,0.29292,0.8118,250,2.29312,-0.19,-0.09206,0.40171,5,1D2U,2.0,True,0.241,23,True,right,0.0,0.2205,0.7454,0.5249,1.495,2.1201,0.625,A,0.125
251,0.50214,0.1,2,0.31802,0.36824,0.65279,251,2.26801,-0.15,-0.07532,0.42682,5,1D2U,2.0,False,0.7,24,True,right,-0.16738,1.395,1.9451,0.5501,0.3455,0.8032,0.4577,A,0.125
252,0.50214,1.2,1,0.38498,0.27618,0.67789,252,2.2429,-0.19,-0.09206,0.40171,5,1D2U,2.0,True,0.185,25,True,right,0.25107,0.3373,0.8203,0.4831,1.3288,2.1622,0.8333,A,0.08
253,0.50214,1.2,1,0.20923,0.3515,0.86201,253,2.51071,0.17,0.08369,0.58583,5,2D1U,2.0,False,0.276,24,True,right,0.0,0.1693,0.8349,0.6656,1.6517,2.236,0.5843,A,0.08
254,0.50214,1.2,1,0.41845,0.30129,0.49377,254,2.31822,0.21,0.1088,0.60257,5,2D1U,1.0,True,0.393,24,False,left,-0.16738,0.3758,1.0597,0.6839,1.5929,2.0092,0.4162,A,0.08
255,0.50214,0.1,2,0.34313,0.29292,0.68626,255,2.22616,-0.19,-0.09206,0.40171,5,1D2U,1.0,True,0.115,25,True,left,0.25107,1.6531,2.1794,0.5263,0.1535,1.0286,0.8751,A,0.125
256,0.50214,0.1,2,0.27618,0.40171,0.71137,256,2.49397,0.21,0.1088,0.60257,5,2D1U,1.0,False,0.225,24,False,left,0.0,1.4939,2.2189,0.725,0.2184,0.8435,0.6251,A,0.125
257,0.50214,0.1,1,0.45193,0.35987,0.45193,257,2.19269,-0.15,-0.07532,0.42682,5,1D2U,2.0,True,1.075,26,True,right,-0.16738,0.3952,0.945,0.5498,1.4205,1.8778,0.4573,A,0.125
258,0.50214,1.2,1,0.41845,0.38498,0.55236,258,2.48561,0.25,0.12554,0.62768,5,2D1U,1.0,True,1.133,24,False,left,0.25107,0.3749,1.0834,0.7084,1.4673,2.3001,0.8328,A,0.08
259,0.50214,1.2,1,0.20086,0.44356,0.44356,259,2.01694,-0.15,-0.07532,0.42682,5,1D2U,2.0,True,0.316,26,True,right,0.0,0.1617,0.6698,0.5081,1.0701,1.6534,0.5833,A,0.08
260,0.50214,1.2,1,0.20086,0.41008,0.41845,260,1.97509,-0.11,-0.05858,0.44356,5,1D2U,1.0,False,0.452,26,False,left,-0.16738,0.1614,0.6862,0.5249,1.1452,1.5621,0.417,A,0.08
261,0.50214,0.1,2,0.23433,0.2427,0.69463,261,2.10062,-0.15,-0.07532,0.42682,5,1D2U,1.0,True,0.216,27,True,left,0.25107,1.5546,2.1045,0.5499,0.0454,0.9207,0.8753,A,0.125
262,0.50214,0.1,1,0.37661,0.44356,0.71974,262,2.66973,0.25,0.12554,0.62768,5,2D1U,2.0,False,0.15,24,False,right,0.0,0.3151,1.0654,0.7503,1.7238,2.3481,0.6243,A,0.125
263,0.50214,0.1,2,0.36824,0.45193,0.48541,263,2.45214,0.29,0.14227,0.64442,5,2D1U,2.0,True,0.209,24,False,right,-0.16738,1.2729,2.0394,0.7665,0.3892,0.8474,0.4583,A,0.125
264,0.50214,1.2,2,0.36824,0.25107,0.48541,264,2.25128,0.29,0.14227,0.64442,5,2D1U,2.0,True,0.316,24,False,right,0.25107,1.4761,2.2012,0.7252,0.2015,1.0346,0.833,A,0.08
265,0.50214,1.2,1,0.2427,0.35987,0.67789,265,2.20942,-0.15,-0.07532,0.42682,5,1D2U,2.0,True,0.459,27,True,right,0.0,0.1987,0.7064,0.5077,1.3401,1.9236,0.5834,A,0.08
266,0.50214,1.2,1,0.23433,0.26781,0.74485,266,2.19269,-0.11,-0.05858,0.44356,5,1D2U,1.0,False,0.45,28,True,left,-0.16738,0.1892,0.7139,0.5247,1.4972,1.9142,0.417,A,0.08
267,0.50214,0.1,2,0.36824,0.3515,0.41008,267,2.25964,0.25,0.12554,0.62768,5,2D1U,2.0,True,0.113,25,True,right,0.25107,1.406,2.1561,0.7501,0.1801,1.056,0.8759,A,0.125
268,0.50214,0.1,2,0.2176,0.3515,0.64442,268,2.14248,-0.15,-0.07532,0.42682,5,1D2U,1.0,True,0.25,29,True,left,0.0,1.3676,1.9173,0.5497,0.1591,0.7838,0.6247,A,0.125
269,0.50214,0.1,2,0.25944,0.34313,0.64442,269,2.37681,0.25,0.12554,0.62768,5,2D1U,2.0,True,0.276,25,True,right,-0.16738,1.3215,2.0716,0.7501,0.279,0.7381,0.459,A,0.125
270,0.50214,1.2,1,0.42682,0.42682,0.42682,270,2.20942,-0.15,-0.07532,0.42682,5,1D2U,1.0,False,0.341,29,True,left,0.25107,0.3846,0.8935,0.5089,1.1515,1.9848,0.8333,A,0.08
271,0.50214,1.2,2,0.44356,0.41008,0.8118,271,2.56929,-0.19,-0.09206,0.40171,5,1D2U,1.0,True,0.333,29,False,left,0.0,1.751,2.2336,0.4825,0.4004,0.9838,0.5834,A,0.08
272,0.50214,1.2,1,0.31802,0.41845,0.69463,272,2.53581,0.21,0.1088,0.60257,5,2D1U,1.0,True,0.776,25,False,left,-0.16738,0.2713,0.9538,0.6825,1.6874,2.1041,0.4168,A,0.08
273,0.50214,0.1,2,0.32639,0.27618,0.74485,273,2.45213,0.21,0.1088,0.60257,5,2D1U,1.0,False,2.458,25,False,left,0.25107,1.6991,2.4248,0.7257,0.1415,1.016,0.8745,A,0.125
274,0.50214,0.1,1,0.41845,0.35987,0.74485,274,2.42702,-0.19,-0.09206,0.40171,5,1D2U,1.0,False,9.8,29,False,left,0.0,0.3561,0.881,0.5249,1.5647,2.189,0.6244,A,0.125
275,0.50214,0.1,2,0.28455,0.26781,0.45193,275,2.13411,0.25,0.12554,0.62768,5,2D1U,2.0,True,0.359,26,True,right,-0.16738,1.1616,1.9111,0.7495,0.312,0.7697,0.4578,A,0.125
276,0.50214,1.2,2,0.35987,0.43519,0.71974,276,2.40192,-0.23,-0.11717,0.38498,5,1D2U,1.0,True,0.432,29,False,left,0.25107,1.7028,2.1694,0.4666,0.1935,1.0279,0.8344,A,0.08
277,0.50214,1.2,1,0.30129,0.20923,0.88712,277,2.28476,-0.23,-0.11717,0.38498,5,1D2U,2.0,True,0.341,29,False,right,0.0,0.2546,0.7215,0.4669,1.5629,2.1464,0.5834,A,0.08
278,0.50214,1.2,2,0.37661,0.27618,0.87038,278,2.42702,-0.19,-0.09206,0.40171,5,1D2U,1.0,True,0.578,30,True,left,-0.16738,1.6593,2.142,0.4827,0.4172,0.8334,0.4162,A,0.08
279,0.50214,0.1,1,0.39335,0.37661,0.40171,279,2.07552,-0.19,-0.09206,0.40171,5,1D2U,2.0,True,0.113,30,True,right,0.25107,0.3314,0.8558,0.5244,1.073,1.9485,0.8755,A,0.125
280,0.50214,0.1,1,0.38498,0.37661,0.86201,280,2.75342,0.25,0.12554,0.62768,5,2D1U,2.0,False,0.491,26,True,right,0.0,0.3221,1.0721,0.7501,1.8722,2.4968,0.6246,A,0.125
281,0.50214,0.1,2,0.28455,0.36824,0.83691,281,2.41866,-0.15,-0.07532,0.42682,5,1D2U,2.0,False,0.525,30,False,right,-0.16738,1.5449,2.0954,0.5504,0.3118,0.7696,0.4578,A,0.125
282,0.50214,1.2,2,0.25944,0.40171,0.61931,282,2.18431,-0.19,-0.09206,0.40171,5,1D2U,1.0,True,0.425,31,True,left,0.25107,1.5006,1.984,0.4834,0.0918,0.9251,0.8333,A,0.08
283,0.50214,1.2,1,0.28455,0.30129,0.76995,283,2.50235,0.29,0.14227,0.64442,5,2D1U,1.0,True,0.725,26,False,left,0.0,0.2391,0.9645,0.7255,1.6896,2.2731,0.5836,A,0.08
284,0.50214,1.2,1,0.43519,0.38498,0.82854,284,2.55256,-0.19,-0.09206,0.40171,5,1D2U,2.0,True,0.476,31,True,right,-0.16738,0.3902,0.8741,0.4839,1.7402,2.1571,0.4169,A,0.08
285,0.50214,0.1,1,0.43519,0.41008,0.66952,285,2.66135,0.29,0.14227,0.64442,5,2D1U,1.0,True,0.366,26,False,left,0.25107,0.3779,1.1441,0.7663,1.6275,2.5024,0.8749,A,0.125
286,0.50214,0.1,2,0.2176,0.23433,0.40171,286,1.98346,0.25,0.12554,0.62768,5,2D1U,2.0,True,0.475,27,True,right,0.0,1.1228,1.872,0.7492,0.1564,0.7804,0.6241,A,0.125
287,0.50214,0.1,2,0.25107,0.22596,0.58583,287,2.19268,0.25,0.12554,0.62768,5,2D1U,2.0,True,0.359,27,True,right,-0.16738,1.2558,2.0058,0.7501,0.2726,0.7311,0.4585,A,0.125
288,0.50214,1.2,1,0.27618,0.41008,0.86201,288,2.47723,-0.15,-0.07532,0.42682,5,1D2U,2.0,True,0.425,32,True,right,0.25107,0.2303,0.7391,0.5088,1.4297,2.2631,0.8334,A,0.08
289,0.50214,1.2,2,0.29292,0.2427,0.44356,289,2.08389,0.21,0.1088,0.60257,5,2D1U,1.0,False,0.443,27,False,left,0.0,1.2369,1.9203,0.6833,0.2537,0.8365,0.5829,A,0.08
290,0.50214,1.2,2,0.33476,0.41008,0.63605,290,2.51071,0.25,0.12554,0.62768,5,2D1U,2.0,True,0.3,28,True,right,-0.16738,1.3779,2.0861,0.7082,0.3699,0.7859,0.4161,A,0.08
291,0.50214,0.1,1,0.31802,0.42682,0.72811,291,2.40191,-0.15,-0.07532,0.42682,5,1D2U,2.0,True,0.575,32,True,right,0.25107,0.2553,0.8045,0.5493,1.3465,2.2218,0.8753,A,0.125
292,0.50214,0.1,1,0.29292,0.33476,0.60257,292,2.36007,0.25,0.12554,0.62768,5,2D1U,1.0,True,0.35,28,True,left,0.0,0.2316,0.9818,0.7501,1.5228,2.1484,0.6256,A,0.125
293,0.50214,0.1,1,0.43519,0.23433,0.85364,293,2.62787,0.21,0.1088,0.60257,5,2D1U,1.0,True,0.358,29,True,left,-0.16738,0.3782,1.1032,0.725,1.9784,2.4366,0.4582,A,0.125
294,0.50214,1.2,1,0.40171,0.41845,0.51051,294,2.43538,0.21,0.1088,0.60257,5,2D1U,2.0,False,0.114,29,True,right,0.25107,0.3591,1.0424,0.6834,1.384,2.2175,0.8335,A,0.08
295,0.50214,1.2,1,0.41845,0.45193,0.61094,295,2.42702,-0.11,-0.05858,0.44356,5,1D2U,1.0,False,0.291,32,False,left,0.0,0.3707,0.8958,0.525,1.4627,2.0452,0.5825,A,0.08
296,0.50214,1.2,1,0.2176,0.20086,0.5942,296,2.14248,0.25,0.12554,0.62768,5,2D1U,1.0,True,0.274,30,True,left,-0.16738,0.1703,0.8791,0.7088,1.5118,1.9289,0.4171,A,0.08
297,0.50214,0.1,1,0.25107,0.2427,0.80343,297,2.22616,-0.15,-0.07532,0.42682,5,1D2U,2.0,True,0.113,33,True,right,0.25107,0.1889,0.7388,0.5499,1.3557,2.2306,0.8749,A,0.125
298,0.50214,0.1,1,0.41008,0.40171,0.88712,298,2.82873,0.25,0.12554,0.62768,5,2D1U,1.0,True,0.275,30,True,left,0.0,0.353,1.1035,0.7505,1.9285,2.5535,0.6251,A,0.125
299,0.50214,0.1,1,0.41845,0.20086,0.84528,299,2.5693,0.21,0.1088,0.60257,5,2D1U,1.0,True,0.409,31,True,left,-0.16738,0.354,1.0789,0.7249,1.9456,2.4039,0.4583,A,0.125
300,0.50214,1.2,2,0.44356,0.3515,0.76158,300,2.4856,-0.15,-0.07532,0.42682,5,1D2U,1.0,True,0.141,33,True,left,0.25107,1.824,2.3318,0.5079,0.2729,1.1072,0.8343,A,0.08
301,0.50214,1.2,1,0.35987,0.3515,0.82854,301,2.64462,0.21,0.1088,0.60257,5,2D1U,1.0,True,0.291,31,True,left,0.0,0.3157,0.9984,0.6827,1.782,2.3651,0.5831,A,0.08
302,0.50214,1.2,1,0.22596,0.3515,0.57747,302,2.10063,-0.11,-0.05858,0.44356,5,1D2U,1.0,False,0.396,34,True,left,-0.16738,0.1817,0.7062,0.5245,1.3231,1.7397,0.4166,A,0.08
303,0.50214,0.1,2,0.38498,0.28455,0.41845,303,2.17595,0.17,0.08369,0.58583,5,2D1U,2.0,True,0.113,31,False,right,0.25107,1.4323,2.1411,0.7088,0.1992,1.0745,0.8753,A,0.125
304,0.50214,0.1,2,0.38498,0.26781,0.87038,304,2.61114,0.17,0.08369,0.58583,5,2D1U,2.0,True,0.242,31,False,right,0.0,1.7545,2.463,0.7085,0.3216,0.9465,0.6249,A,0.125
305,0.50214,0.1,2,0.39335,0.26781,0.78669,305,2.51909,0.13,0.06695,0.5691,5,2D1U,2.0,True,0.325,31,False,right,-0.16738,1.5982,2.2897,0.6915,0.4149,0.8725,0.4576,A,0.125
306,0.50214,1.2,2,0.41008,0.43519,0.71974,306,2.49397,-0.15,-0.07532,0.42682,5,1D2U,2.0,False,0.159,35,True,right,0.25107,1.7474,2.2553,0.5079,0.2389,1.0721,0.8332,A,0.08
307,0.50214,1.2,2,0.41008,0.31802,0.86201,307,2.66135,0.13,0.06695,0.5691,5,2D1U,2.0,True,0.249,31,False,right,0.0,1.7649,2.4147,0.6498,0.3645,0.9481,0.5836,A,0.08
308,0.50214,1.2,1,0.39335,0.30966,0.83691,308,2.44377,-0.19,-0.09206,0.40171,5,1D2U,2.0,True,0.724,35,False,right,-0.16738,0.3479,0.831,0.4832,1.7063,2.123,0.4168,A,0.08
309,0.50214,0.1,2,0.41008,0.23433,0.48541,309,2.17595,0.09,0.04185,0.54399,5,2D1U,1.0,False,0.367,31,False,left,0.25107,1.5251,2.1987,0.6735,0.2254,1.1005,0.8751,A,0.125
310,0.50214,0.1,1,0.25944,0.22596,0.88712,310,2.27637,-0.19,-0.09206,0.40171,5,1D2U,2.0,True,0.335,35,False,right,0.0,0.1965,0.7218,0.5252,1.5465,2.1713,0.6247,A,0.125
311,0.50214,0.1,1,0.37661,0.26781,0.78669,311,2.36007,-0.15,-0.07532,0.42682,5,1D2U,2.0,True,0.559,36,True,right,-0.16738,0.3121,0.8623,0.5502,1.6704,2.1289,0.4585,A,0.125
312,0.50214,1.2,2,0.40171,0.29292,0.75322,312,2.51909,0.13,0.06695,0.5691,5,2D1U,1.0,False,0.333,32,True,left,0.25107,1.7784,2.4284,0.65,0.2365,1.0696,0.8331,A,0.08
313,0.50214,1.2,2,0.20923,0.23433,0.69463,313,2.06715,-0.15,-0.07532,0.42682,5,1D2U,1.0,True,0.333,36,True,left,0.0,1.3957,1.9034,0.5076,0.1624,0.7458,0.5834,A,0.08
314,0.50214,1.2,2,0.28455,0.33476,0.89549,314,2.60277,0.17,0.08369,0.58583,5,2D1U,2.0,True,0.21,32,False,right,-0.16738,1.5891,2.2559,0.6667,0.3218,0.739,0.4172,A,0.08
315,0.50214,0.1,2,0.27618,0.30966,0.703,315,2.37681,0.17,0.08369,0.58583,5,2D1U,2.0,True,0.226,32,False,right,0.25107,1.6091,2.3171,0.7079,0.0915,0.9671,0.8755,A,0.125
316,0.50214,0.1,2,0.37661,0.23433,0.67789,316,2.23453,-0.11,-0.05858,0.44356,5,1D2U,1.0,True,0.275,36,False,left,0.0,1.5594,2.1264,0.567,0.318,0.9432,0.6251,A,0.125
317,0.50214,0.1,1,0.33476,0.30966,0.41845,317,2.13411,0.13,0.06695,0.5691,5,2D1U,2.0,False,0.275,33,True,right,-0.16738,0.2735,0.9651,0.6916,1.4063,1.8648,0.4585,A,0.125
318,0.50214,1.2,2,0.20923,0.20086,0.74485,318,2.10064,-0.11,-0.05858,0.44356,5,1D2U,2.0,False,0.217,36,False,right,0.25107,1.5768,2.1023,0.5255,0.0445,0.8774,0.8329,A,0.08
319,0.50214,1.2,1,0.34313,0.23433,0.42682,319,1.93324,-0.15,-0.07532,0.42682,5,1D2U,1.0,False,0.332,37,True,left,0.0,0.2988,0.8071,0.5084,1.1909,1.7745,0.5835,A,0.08
320,0.50214,1.2,2,0.31802,0.26781,0.4603,320,2.1341,0.17,0.08369,0.58583,5,2D1U,2.0,True,0.352,34,True,right,-0.16738,1.1906,1.8573,0.6667,0.3573,0.7737,0.4164,A,0.08
321,0.50214,0.1,1,0.41845,0.44356,0.71974,321,2.4856,-0.19,-0.09206,0.40171,5,1D2U,1.0,False,0.283,37,False,left,0.25107,0.3553,0.8802,0.5249,1.4133,2.2885,0.8752,A,0.125
322,0.50214,0.1,1,0.26781,0.20923,0.76158,322,2.32659,0.17,0.08369,0.58583,5,2D1U,1.0,True,0.392,34,True,left,0.0,0.2075,0.9151,0.7076,1.6156,2.2401,0.6245,A,0.125
323,0.50214,0.1,2,0.30966,0.23433,0.44356,323,2.05879,0.13,0.06695,0.5691,5,2D1U,1.0,False,0.508,35,True,left,-0.16738,1.1716,1.8634,0.6918,0.33,0.7876,0.4577,A,0.125
324,0.50214,1.2,1,0.22596,0.20086,0.67789,324,1.99183,-0.23,-0.11717,0.38498,5,1D2U,2.0,True,1.992,37,False,right,0.25107,0.1807,0.6471,0.4664,1.1549,1.9889,0.834,A,0.08
325,0.50214,1.2,1,0.25107,0.37661,0.48541,325,2.00021,-0.23,-0.11717,0.38498,5,1D2U,2.0,True,0.183,37,False,right,0.0,0.204,0.6714,0.4674,1.1124,1.6959,0.5836,A,0.08
326,0.50214,1.2,2,0.41845,0.27618,0.85364,326,2.45212,-0.19,-0.09206,0.40171,5,1D2U,2.0,False,0.437,38,True,right,-0.16738,1.6805,2.1641,0.4836,0.4555,0.8715,0.416,A,0.08
327,0.50214,0.1,1,0.35987,0.30129,0.56073,327,2.30986,0.17,0.08369,0.58583,5,2D1U,2.0,False,0.113,36,True,right,0.25107,0.2974,1.0058,0.7084,1.3812,2.2562,0.875,A,0.125
328,0.50214,0.1,2,0.25107,0.36824,0.67789,328,2.40191,0.21,0.1088,0.60257,5,2D1U,2.0,True,0.266,36,False,right,0.0,1.4297,2.1552,0.7255,0.188,0.8128,0.6249,A,0.125
329,0.50214,0.1,1,0.3515,0.3515,0.76995,329,2.36007,-0.23,-0.11717,0.38498,5,1D2U,2.0,True,0.25,39,True,right,-0.16738,0.2896,0.7982,0.5085,1.59,2.0481,0.4581,A,0.125
330,0.50214,1.2,2,0.37661,0.39335,0.65279,330,2.52746,0.21,0.1088,0.60257,5,2D1U,1.0,False,0.376,36,False,left,0.25107,1.6509,2.3344,0.6835,0.2098,1.0425,0.8328,A,0.08
331,0.50214,1.2,1,0.35987,0.30966,0.46867,331,2.02532,-0.23,-0.11717,0.38498,5,1D2U,2.0,True,0.2,39,True,right,0.0,0.318,0.7852,0.4672,1.2108,1.7941,0.5833,A,0.08
332,0.50214,1.2,1,0.44356,0.30129,0.43519,332,2.30986,0.25,0.12554,0.62768,5,2D1U,2.0,False,0.307,36,False,right,-0.16738,0.4015,1.1102,0.7087,1.5848,2.001,0.4162,A,0.08
333,0.50214,0.1,2,0.25107,0.37661,0.80343,333,2.57767,0.29,0.14227,0.64442,5,2D1U,2.0,True,1.092,36,False,right,0.25107,1.6812,2.4478,0.7666,0.065,0.9398,0.8747,A,0.125
334,0.50214,0.1,2,0.36824,0.33476,0.79506,334,2.40191,-0.19,-0.09206,0.40171,5,1D2U,1.0,True,0.382,40,True,left,0.0,1.6645,2.189,0.5245,0.3058,0.9312,0.6255,A,0.125
335,0.50214,0.1,1,0.25107,0.25107,0.49377,335,2.14247,0.29,0.14227,0.64442,5,2D1U,1.0,True,0.267,36,False,left,-0.16738,0.1883,0.9552,0.7669,1.4714,1.9293,0.4579,A,0.125
336,0.50214,1.2,1,0.31802,0.23433,0.41008,336,2.09225,0.25,0.12554,0.62768,5,2D1U,2.0,False,0.111,37,True,right,0.25107,0.2718,0.9795,0.7077,1.2212,2.0545,0.8333,A,0.08
337,0.50214,1.2,1,0.41845,0.2176,0.78669,337,2.32659,-0.19,-0.09206,0.40171,5,1D2U,2.0,True,0.475,40,True,right,0.0,0.3728,0.8567,0.4838,1.5984,2.1817,0.5832,A,0.08
338,0.50214,1.2,1,0.22596,0.25944,0.5942,338,2.22616,0.29,0.14227,0.64442,5,2D1U,1.0,True,0.303,38,True,left,-0.16738,0.1804,0.9061,0.7257,1.5392,1.9558,0.4167,A,0.08
339,0.50214,0.1,2,0.39335,0.29292,0.71137,339,2.3266,-0.15,-0.07532,0.42682,5,1D2U,1.0,True,0.111,40,False,left,0.25107,1.7354,2.2853,0.55,0.2103,1.0854,0.8751,A,0.125
340,0.50214,0.1,1,0.27618,0.35987,0.49377,340,2.05878,-0.15,-0.07532,0.42682,5,1D2U,2.0,True,0.441,40,False,right,0.0,0.2157,0.7649,0.5492,1.1989,1.8239,0.625,A,0.125
341,0.50214,0.1,2,0.35987,0.30129,0.82017,341,2.42703,-0.11,-0.05858,0.44356,5,1D2U,1.0,True,1.45,40,False,left,-0.16738,1.596,2.163,0.567,0.3795,0.8374,0.4579,A,0.125
342,0.50214,1.2,1,0.23433,0.29292,0.71974,342,2.39355,0.29,0.14227,0.64442,5,2D1U,2.0,False,0.184,38,True,right,0.25107,0.1872,0.9124,0.7252,1.4626,2.2957,0.8331,A,0.08
343,0.50214,1.2,1,0.39335,0.42682,0.55236,343,2.31823,-0.11,-0.05858,0.44356,5,1D2U,1.0,False,0.35,40,False,left,0.0,0.3534,0.8778,0.5244,1.3859,1.9697,0.5838,A,0.08
344,0.50214,1.2,2,0.40171,0.36824,0.73648,344,2.43539,-0.15,-0.07532,0.42682,5,1D2U,1.0,True,3.218,41,True,left,-0.16738,1.5464,2.0557,0.5093,0.4384,0.8552,0.4168,A,0.08
345,0.50214,0.1,1,0.26781,0.43519,0.79506,345,2.42702,-0.15,-0.07532,0.42682,5,1D2U,2.0,True,0.113,41,True,right,0.25107,0.2055,0.7549,0.5494,1.3635,2.2385,0.875,A,0.125
346,0.50214,0.1,1,0.27618,0.3515,0.50214,346,2.29312,0.33,0.16738,0.66116,5,2D1U,2.0,False,1.276,38,False,right,0.0,0.2191,1.0027,0.7836,1.4443,2.0693,0.6249,A,0.125
347,0.50214,0.1,2,0.33476,0.22596,0.72811,347,2.47723,0.37,0.18412,0.68626,5,2D1U,2.0,True,0.299,38,False,right,-0.16738,1.4855,2.2938,0.8083,0.3604,0.8182,0.4578,A,0.125
348,0.50214,1.2,2,0.29292,0.33476,0.48541,348,2.05879,-0.11,-0.05858,0.44356,5,1D2U,1.0,True,0.132,42,True,left,0.25107,1.3983,1.9231,0.5248,0.1223,0.9561,0.8338,A,0.08
349,0.50214,1.2,1,0.3515,0.36824,0.58583,349,2.25127,-0.11,-0.05858,0.44356,5,1D2U,2.0,True,0.167,42,True,right,0.0,0.3073,0.8318,0.5245,1.374,1.9569,0.5829,A,0.08
350,0.50214,1.2,1,0.38498,0.41008,0.703,350,2.46887,-0.07,-0.03348,0.46867,5,1D2U,1.0,False,0.114,42,False,left,-0.16738,0.3398,0.8901,0.5503,1.6315,2.0484,0.4169,A,0.08
351,0.50214,0.1,1,0.39335,0.2427,0.46867,351,2.05042,-0.11,-0.05858,0.44356,5,1D2U,2.0,True,0.114,43,True,right,0.25107,0.3348,0.901,0.5663,1.1842,2.0595,0.8753,A,0.125
352,0.50214,0.1,2,0.41845,0.31802,0.67789,352,2.60276,0.37,0.18412,0.68626,5,2D1U,2.0,True,0.112,38,False,right,0.0,1.6008,2.4094,0.8085,0.3588,0.9843,0.6255,A,0.125
353,0.50214,0.1,1,0.33476,0.30966,0.49377,353,2.08389,-0.11,-0.05858,0.44356,5,1D2U,2.0,True,0.309,43,True,right,-0.16738,0.2735,0.8406,0.5671,1.3568,1.8152,0.4584,A,0.125
354,0.50214,1.2,2,0.33476,0.33476,0.83691,354,2.66973,0.33,0.16738,0.66116,5,2D1U,2.0,True,0.6,39,True,right,0.25107,1.7952,2.5362,0.741,0.1698,1.0035,0.8337,A,0.08
355,0.50214,1.2,1,0.40171,0.35987,0.76158,355,2.49397,-0.07,-0.03348,0.46867,5,1D2U,2.0,True,0.392,44,True,right,0.0,0.3561,0.9056,0.5495,1.6233,2.206,0.5827,A,0.08
356,0.50214,1.2,2,0.28455,0.29292,0.76158,356,2.30986,-0.07,-0.03348,0.46867,5,1D2U,2.0,False,0.584,44,True,right,-0.16738,1.4538,2.0034,0.5496,0.3204,0.7372,0.4169,A,0.08
357,0.50214,0.1,2,0.35987,0.25944,0.703,357,2.26801,-0.11,-0.05858,0.44356,5,1D2U,1.0,True,0.55,45,True,left,0.25107,1.6903,2.2567,0.5664,0.1736,1.0485,0.8749,A,0.125
358,0.50214,0.1,1,0.35987,0.37661,0.61094,358,2.51072,0.33,0.16738,0.66116,5,2D1U,1.0,True,0.184,39,True,left,0.0,0.3039,1.0869,0.7831,1.6368,2.262,0.6251,A,0.125
359,0.50214,0.1,1,0.22596,0.43519,0.45193,359,2.05878,-0.11,-0.05858,0.44356,5,1D2U,2.0,True,0.433,45,True,right,-0.16738,0.167,0.7331,0.5661,1.2089,1.6667,0.4578,A,0.125
360,0.50214,1.2,2,0.2176,0.26781,0.4603,360,2.09227,0.29,0.14227,0.64442,5,2D1U,1.0,False,0.292,39,False,left,0.25107,1.3019,2.0268,0.7249,0.052,0.8851,0.8332,A,0.08
361,0.50214,1.2,1,0.36824,0.41008,0.62768,361,2.37681,-0.07,-0.03348,0.46867,5,1D2U,2.0,True,0.159,46,True,right,0.0,0.3231,0.8729,0.5498,1.4564,2.0399,0.5835,A,0.08
362,0.50214,1.2,2,0.22596,0.28455,0.75322,362,2.42703,0.33,0.16738,0.66116,5,2D1U,2.0,True,0.288,40,True,right,-0.16738,1.39,2.1319,0.7419,0.2657,0.6818,0.4161,A,0.08
363,0.50214,0.1,2,0.33476,0.36824,0.87038,363,2.54419,-0.07,-0.03348,0.46867,5,1D2U,1.0,True,0.113,46,True,left,0.25107,1.8311,2.4227,0.5916,0.148,1.0228,0.8748,A,0.125
364,0.50214,0.1,1,0.38498,0.22596,0.64442,364,2.24291,-0.03,-0.01674,0.48541,5,1D2U,1.0,False,0.542,46,False,left,0.0,0.3277,0.9367,0.6091,1.5202,2.1451,0.6249,A,0.125
365,0.50214,0.1,1,0.42682,0.22596,0.58583,365,2.20942,-0.07,-0.03348,0.46867,5,1D2U,1.0,False,0.999,47,True,left,-0.16738,0.3673,0.9589,0.5916,1.5671,2.0254,0.4583,A,0.125
366,0.50214,1.2,2,0.40171,0.2427,0.79506,366,2.60277,0.33,0.16738,0.66116,5,2D1U,2.0,True,0.112,40,True,right,0.25107,1.8174,2.5589,0.7414,0.2346,1.0673,0.8327,A,0.08
367,0.50214,1.2,2,0.2176,0.34313,0.53562,367,2.04205,-0.11,-0.05858,0.44356,5,1D2U,1.0,True,0.234,47,False,left,0.0,1.251,1.7761,0.5251,0.1764,0.7589,0.5825,A,0.08
368,0.50214,1.2,2,0.41008,0.29292,0.51888,368,2.36844,0.29,0.14227,0.64442,5,2D1U,2.0,True,0.113,41,True,right,-0.16738,1.3439,2.0688,0.725,0.4538,0.8691,0.4154,A,0.08
369,0.50214,0.1,1,0.38498,0.44356,0.87875,369,2.65299,-0.11,-0.05858,0.44356,5,1D2U,1.0,False,0.375,47,False,left,0.25107,0.3263,0.8926,0.5663,1.5843,2.4595,0.8752,A,0.125
370,0.50214,0.1,2,0.41008,0.41008,0.74485,370,2.49397,-0.15,-0.07532,0.42682,5,1D2U,1.0,True,0.114,47,False,left,0.0,1.6539,2.204,0.55,0.3459,0.9708,0.6249,A,0.125
371,0.50214,0.1,1,0.2176,0.33476,0.49377,371,1.97509,-0.15,-0.07532,0.42682,5,1D2U,1.0,False,0.925,47,False,left,-0.16738,0.1552,0.7047,0.5495,1.2218,1.68,0.4582,A,0.125
372,0.50214,1.2,2,0.22596,0.36824,0.58583,372,2.32659,0.29,0.14227,0.64442,5,2D1U,2.0,True,0.409,41,True,right,0.25107,1.4299,2.1546,0.7247,0.055,0.8885,0.8335,A,0.08
373,0.50214,1.2,2,0.26781,0.38498,0.43519,373,2.2178,0.25,0.12554,0.62768,5,2D1U,2.0,True,0.292,41,False,right,0.0,1.2013,1.9099,0.7086,0.2268,0.8099,0.5831,A,0.08
374,0.50214,1.2,2,0.25107,0.36824,0.703,374,2.45213,0.25,0.12554,0.62768,5,2D1U,2.0,True,0.267,41,False,right,-0.16738,1.3667,2.0759,0.7092,0.2923,0.709,0.4167,A,0.08
375,0.50214,0.1,2,0.41008,0.34313,0.85364,375,2.71156,0.21,0.1088,0.60257,5,2D1U,1.0,False,49.132,41,False,left,0.25107,1.8896,2.6143,0.7248,0.2223,1.0975,0.8752,A,0.125
376,0.50214,0.1,1,0.42682,0.32639,0.77832,376,2.43538,-0.19,-0.09206,0.40171,5,1D2U,2.0,True,0.443,47,False,right,0.0,0.3623,0.8867,0.5244,1.6034,2.2293,0.6259,A,0.125
377,0.50214,0.1,2,0.2427,0.26781,0.58583,377,2.00019,-0.19,-0.09206,0.40171,5,1D2U,1.0,True,0.417,47,False,left,-0.16738,1.2466,1.7711,0.5246,0.2626,0.721,0.4584,A,0.125
378,0.50214,1.2,1,0.25944,0.20086,0.54399,378,1.93325,-0.15,-0.07532,0.42682,5,1D2U,2.0,True,0.183,48,True,right,0.25107,0.2164,0.7248,0.5084,1.1002,1.9332,0.833,A,0.08
379,0.50214,1.2,2,0.25944,0.22596,0.61094,379,2.22616,0.25,0.12554,0.62768,5,2D1U,2.0,True,0.309,42,True,right,0.0,1.3636,2.072,0.7084,0.2136,0.7962,0.5826,A,0.08
380,0.50214,1.2,2,0.34313,0.43519,0.80343,380,2.71157,0.25,0.12554,0.62768,5,2D1U,2.0,True,0.339,42,True,right,-0.16738,1.5544,2.2626,0.7082,0.3797,0.7955,0.4158,A,0.08
381,0.50214,0.1,2,0.30129,0.37661,0.57747,381,2.18433,-0.15,-0.07532,0.42682,5,1D2U,1.0,True,0.113,48,True,left,0.25107,1.5078,2.0578,0.55,0.1166,0.9915,0.8749,A,0.125
382,0.50214,0.1,2,0.33476,0.39335,0.87038,382,2.54419,-0.11,-0.05858,0.44356,5,1D2U,2.0,False,0.126,48,False,right,0.0,1.7097,2.2762,0.5665,0.2763,0.9017,0.6254,A,0.125
383,0.50214,0.1,1,0.37661,0.42682,0.71137,383,2.44376,-0.15,-0.07532,0.42682,5,1D2U,2.0,True,0.275,49,True,right,-0.16738,0.313,0.8631,0.5501,1.5966,2.0553,0.4587,A,0.125
384,0.50214,1.2,1,0.25944,0.32639,0.82854,384,2.51908,0.21,0.1088,0.60257,5,2D1U,2.0,False,0.275,43,True,right,0.25107,0.2149,0.8983,0.6834,1.5565,2.39,0.8335,A,0.08
385,0.50214,1.2,1,0.25944,0.43519,0.703,385,2.32659,-0.15,-0.07532,0.42682,5,1D2U,2.0,True,0.275,49,True,right,0.0,0.2123,0.7214,0.5091,1.3792,1.9625,0.5833,A,0.08
386,0.50214,1.2,1,0.39335,0.30966,0.62768,386,2.46051,0.25,0.12554,0.62768,5,2D1U,1.0,True,0.687,44,True,left,-0.16738,0.3464,1.0547,0.7083,1.7214,2.1382,0.4168,A,0.08
387,0.50214,0.1,1,0.38498,0.35987,0.75322,387,2.62789,0.25,0.12554,0.62768,5,2D1U,1.0,True,0.924,44,True,left,0.25107,0.3236,1.0736,0.75,1.6402,2.5153,0.8751,A,0.125
388,0.50214,0.1,1,0.3515,0.44356,0.73648,388,2.47724,-0.11,-0.05858,0.44356,5,1D2U,2.0,True,0.309,50,True,right,0.0,0.2884,0.8552,0.5667,1.5302,2.1552,0.625,A,0.125
389,0.50214,0.1,2,0.27618,0.41845,0.41008,389,2.20942,0.21,0.1088,0.60257,5,2D1U,1.0,False,0.325,45,True,left,-0.16738,1.1106,1.8363,0.7257,0.3022,0.7603,0.4582,A,0.125
390,0.50214,1.2,1,0.44356,0.25944,0.82854,390,2.47724,-0.11,-0.05858,0.44356,5,1D2U,1.0,False,9.474,50,True,left,0.25107,0.4031,0.9284,0.5253,1.5868,2.4202,0.8334,A,0.08
391,0.50214,1.2,1,0.34313,0.37661,0.41845,391,2.06715,-0.15,-0.07532,0.42682,5,1D2U,1.0,False,0.366,51,True,left,0.0,0.3034,0.8118,0.5084,1.1868,1.77,0.5832,A,0.08
392,0.50214,1.2,1,0.26781,0.32639,0.42682,392,2.15084,0.25,0.12554,0.62768,5,2D1U,1.0,True,0.334,46,True,left,-0.16738,0.2269,0.9347,0.7078,1.4022,1.8186,0.4164,A,0.08
393,0.50214,0.1,2,0.40171,0.22596,0.48541,393,2.01693,-0.19,-0.09206,0.40171,5,1D2U,1.0,True,0.383,51,False,left,0.25107,1.5145,2.039,0.5245,0.2137,1.0897,0.876,A,0.125
394,0.50214,0.1,1,0.25107,0.28455,0.86201,394,2.52745,0.25,0.12554,0.62768,5,2D1U,1.0,True,0.257,46,True,left,0.0,0.1867,0.9368,0.7502,1.7368,2.362,0.6253,A,0.125
395,0.50214,0.1,1,0.36824,0.44356,0.57747,395,2.49398,0.21,0.1088,0.60257,5,2D1U,1.0,True,0.113,47,True,left,-0.16738,0.3102,1.0352,0.725,1.6357,2.0934,0.4576,A,0.125
396,0.50214,1.2,1,0.31802,0.25944,0.67789,396,2.1592,-0.19,-0.09206,0.40171,5,1D2U,2.0,True,0.225,51,False,right,0.25107,0.2723,0.7551,0.4828,1.2638,2.0971,0.8333,A,0.08
397,0.50214,1.2,2,0.31802,0.2427,0.41008,397,1.89976,-0.15,-0.07532,0.42682,5,1D2U,1.0,True,0.416,52,True,left,0.0,1.2276,1.7362,0.5085,0.2776,0.8611,0.5834,A,0.08
398,0.50214,1.2,2,0.30966,0.40171,0.61094,398,2.42702,0.21,0.1088,0.60257,5,2D1U,2.0,True,0.11,47,True,right,-0.16738,1.3307,2.0142,0.6835,0.3472,0.7636,0.4164,A,0.08
399,0.50214,0.1,2,0.40171,0.44356,0.89549,399,2.82873,0.17,0.08369,0.58583,5,2D1U,2.0,True,0.268,47,False,right,0.25107,1.9219,2.6307,0.7088,0.214,1.0886,0.8747,A,0.125
400,0.50214,0.1,2,0.28455,0.23433,0.74485,400,2.19269,-0.15,-0.07532,0.42682,5,1D2U,1.0,True,0.308,52,True,left,0.0,1.5344,2.0844,0.5501,0.226,0.8507,0.6247,A,0.125
401,0.50214,0.1,1,0.32639,0.32639,0.55236,401,2.29311,0.17,0.08369,0.58583,5,2D1U,1.0,True,0.275,47,False,left,-0.16738,0.2649,0.9735,0.7086,1.548,2.0063,0.4583,A,0.125
402,0.50214,1.2,1,0.36824,0.28455,0.80343,402,2.40192,-0.11,-0.05858,0.44356,5,1D2U,1.0,False,0.175,52,False,left,0.25107,0.3249,0.8502,0.5253,1.4833,2.3166,0.8333,A,0.08
403,0.50214,1.2,1,0.23433,0.44356,0.4603,403,2.20943,0.13,0.06695,0.5691,5,2D1U,1.0,True,0.408,47,False,left,0.0,0.1892,0.839,0.6498,1.2558,1.839,0.5833,A,0.08
404,0.50214,1.2,1,0.31802,0.2176,0.45193,404,1.91651,-0.15,-0.07532,0.42682,5,1D2U,1.0,False,0.397,53,True,left,-0.16738,0.2725,0.7798,0.5073,1.2724,1.6889,0.4165,A,0.08
405,0.50214,0.1,2,0.25107,0.20923,0.62768,405,1.99183,-0.19,-0.09206,0.40171,5,1D2U,1.0,True,0.366,53,False,left,0.25107,1.5057,2.0305,0.5248,0.0635,0.9387,0.8752,A,0.125
406,0.50214,0.1,2,0.31802,0.3515,0.79506,406,2.53582,0.13,0.06695,0.5691,5,2D1U,2.0,True,0.716,47,False,right,0.0,1.6125,2.3045,0.692,0.2544,0.8796,0.6251,A,0.125
407,0.50214,0.1,1,0.31802,0.2176,0.5691,407,2.15085,0.09,0.04185,0.54399,5,2D1U,2.0,False,0.45,47,False,right,-0.16738,0.26,0.9267,0.6667,1.5178,1.9761,0.4583,A,0.125
408,0.50214,1.2,2,0.43519,0.34313,0.87875,408,2.72831,0.13,0.06695,0.5691,5,2D1U,1.0,False,0.114,48,True,left,0.25107,1.9294,2.5786,0.6493,0.2626,1.0956,0.8329,A,0.08
409,0.50214,1.2,1,0.25107,0.39335,0.51051,409,2.05878,-0.19,-0.09206,0.40171,5,1D2U,1.0,False,0.275,53,False,left,0.0,0.2055,0.6889,0.4834,1.1547,1.7381,0.5834,A,0.08
410,0.50214,1.2,1,0.41845,0.43519,0.84528,410,2.58604,-0.23,-0.11717,0.38498,5,1D2U,2.0,True,0.224,53,False,right,-0.16738,0.376,0.8423,0.4662,1.7257,2.1422,0.4165,A,0.08
411,0.50214,0.1,1,0.30966,0.33476,0.58583,411,2.31822,0.17,0.08369,0.58583,5,2D1U,1.0,True,0.114,48,False,left,0.25107,0.2507,0.9594,0.7086,1.3593,2.2343,0.875,A,0.125
412,0.50214,0.1,2,0.23433,0.29292,0.85364,412,2.26801,-0.23,-0.11717,0.38498,5,1D2U,1.0,True,0.258,53,False,left,0.0,1.5896,2.0978,0.5082,0.1733,0.7978,0.6245,A,0.125
413,0.50214,0.1,1,0.32639,0.40171,0.8118,413,2.62787,0.17,0.08369,0.58583,5,2D1U,2.0,False,0.35,48,False,right,-0.16738,0.2656,0.9736,0.708,1.8073,2.2657,0.4584,A,0.125
414,0.50214,1.2,2,0.20086,0.38498,0.79506,414,2.28475,-0.19,-0.09206,0.40171,5,1D2U,1.0,True,0.133,54,True,left,0.25107,1.6175,2.1007,0.4831,0.0339,0.8673,0.8334,A,0.08
415,0.50214,1.2,1,0.41845,0.43519,0.71137,415,2.66972,0.21,0.1088,0.60257,5,2D1U,1.0,True,0.175,48,False,left,0.0,0.3775,1.0604,0.6829,1.7265,2.3101,0.5836,A,0.08
416,0.50214,1.2,2,0.36824,0.32639,0.61094,416,2.41028,0.21,0.1088,0.60257,5,2D1U,2.0,True,0.646,48,False,right,-0.16738,1.3882,2.0713,0.683,0.4048,0.8207,0.4159,A,0.08
417,0.50214,0.1,1,0.29292,0.25107,0.5691,417,2.20106,0.17,0.08369,0.58583,5,2D1U,1.0,True,0.124,49,True,left,0.25107,0.2338,0.9421,0.7083,1.3254,2.2006,0.8752,A,0.125
418,0.50214,0.1,1,0.23433,0.33476,0.61094,418,2.08388,-0.19,-0.09206,0.40171,5,1D2U,2.0,True,0.541,54,True,right,0.0,0.1766,0.7018,0.5252,1.2526,1.8773,0.6247,A,0.125
419,0.50214,0.1,1,0.22596,0.32639,0.49377,419,1.97508,-0.15,-0.07532,0.42682,5,1D2U,1.0,False,0.583,54,False,left,-0.16738,0.1696,0.7194,0.5498,1.2363,1.6946,0.4584,A,0.125
420,0.50214,1.2,2,0.37661,0.23433,0.69463,420,2.39354,0.17,0.08369,0.58583,5,2D1U,1.0,False,0.392,49,True,left,0.25107,1.6898,2.3564,0.6666,0.2067,1.0399,0.8332,A,0.08
421,0.50214,1.2,1,0.23433,0.2176,0.78669,421,2.34333,0.21,0.1088,0.60257,5,2D1U,1.0,True,0.417,50,True,left,0.0,0.195,0.8781,0.6831,1.6196,2.2031,0.5834,A,0.08
422,0.50214,1.2,1,0.30966,0.33476,0.69463,422,2.2429,-0.19,-0.09206,0.40171,5,1D2U,1.0,False,0.688,55,True,left,-0.16738,0.2627,0.7458,0.4831,1.4797,1.8961,0.4164,A,0.08
423,0.50214,0.1,1,0.29292,0.27618,0.53562,423,1.99184,-0.23,-0.11717,0.38498,5,1D2U,2.0,True,0.111,55,False,right,0.25107,0.2299,0.7373,0.5074,1.0881,1.963,0.8749,A,0.125
424,0.50214,0.1,2,0.30966,0.43519,0.84528,424,2.69484,0.21,0.1088,0.60257,5,2D1U,2.0,True,0.167,50,True,right,0.0,1.6609,2.3863,0.7254,0.2527,0.8778,0.625,A,0.125
425,0.50214,0.1,1,0.20086,0.32639,0.57747,425,2.19269,0.17,0.08369,0.58583,5,2D1U,1.0,True,0.341,51,True,left,-0.16738,0.139,0.8472,0.7082,1.4474,1.9056,0.4582,A,0.125
426,0.50214,1.2,2,0.36824,0.20923,0.61094,426,2.27638,0.17,0.08369,0.58583,5,2D1U,1.0,False,0.241,51,True,left,0.25107,1.5954,2.2622,0.6668,0.195,1.0289,0.8338,A,0.08
427,0.50214,1.2,1,0.30966,0.2176,0.82854,427,2.24292,-0.23,-0.11717,0.38498,5,1D2U,2.0,True,0.459,55,False,right,0.0,0.2659,0.7324,0.4665,1.5158,2.099,0.5832,A,0.08
428,0.50214,1.2,2,0.37661,0.2427,0.75322,428,2.47724,0.21,0.1088,0.60257,5,2D1U,2.0,True,0.334,52,True,right,-0.16738,1.5416,2.2245,0.6829,0.4162,0.8335,0.4173,A,0.08
429,0.50214,0.1,1,0.35987,0.43519,0.77832,429,2.67809,0.21,0.1088,0.60257,5,2D1U,1.0,True,0.113,52,True,left,0.25107,0.2952,1.0209,0.7257,1.6118,2.4872,0.8754,A,0.125
430,0.50214,0.1,1,0.23433,0.35987,0.82854,430,2.32659,-0.19,-0.09206,0.40171,5,1D2U,1.0,False,0.159,56,True,left,0.0,0.1736,0.6989,0.5253,1.4654,2.0908,0.6255,A,0.125
431,0.50214,0.1,1,0.43519,0.34313,0.51051,431,2.17595,-0.23,-0.11717,0.38498,5,1D2U,1.0,False,0.392,57,True,left,-0.16738,0.3771,0.8849,0.5078,1.4185,1.8767,0.4582,A,0.125
432,0.50214,1.2,2,0.35987,0.2176,0.57747,432,2.02532,-0.27,-0.1339,0.36824,5,1D2U,1.0,True,0.301,57,False,left,0.25107,1.5581,2.0083,0.4502,0.1915,1.0246,0.8331,A,0.08
433,0.50214,1.2,1,0.30966,0.33476,0.68626,433,2.41865,0.17,0.08369,0.58583,5,2D1U,2.0,False,0.367,53,True,right,0.0,0.2633,0.9307,0.6674,1.5717,2.1557,0.584,A,0.08
434,0.50214,1.2,1,0.42682,0.28455,0.76158,434,2.57766,0.21,0.1088,0.60257,5,2D1U,1.0,True,0.431,54,True,left,-0.16738,0.3806,1.0644,0.6839,1.8649,2.281,0.4161,A,0.08
435,0.50214,0.1,2,0.44356,0.2427,0.64442,435,2.20106,-0.27,-0.1339,0.36824,5,1D2U,1.0,True,0.334,57,False,left,0.25107,1.7198,2.2111,0.4913,0.2611,1.1361,0.875,A,0.125
436,0.50214,0.1,2,0.44356,0.31802,0.53562,436,2.40191,0.21,0.1088,0.60257,5,2D1U,2.0,True,0.316,54,True,right,0.0,1.4808,2.2054,0.7246,0.3802,1.0053,0.6251,A,0.125
437,0.50214,0.1,1,0.28455,0.36824,0.89549,437,2.4354,-0.23,-0.11717,0.38498,5,1D2U,1.0,False,1.626,58,True,left,-0.16738,0.2287,0.7361,0.5073,1.6536,2.1126,0.459,A,0.125
438,0.50214,1.2,2,0.33476,0.38498,0.5691,438,2.37681,0.17,0.08369,0.58583,5,2D1U,2.0,True,0.526,55,True,right,0.25107,1.5259,2.1923,0.6664,0.1666,1.0005,0.8339,A,0.08
439,0.50214,1.2,1,0.36824,0.42682,0.46867,439,2.13411,-0.27,-0.1339,0.36824,5,1D2U,1.0,False,0.449,59,True,left,0.0,0.3249,0.7745,0.4495,1.1992,1.7832,0.5839,A,0.08
440,0.50214,1.2,1,0.2176,0.20923,0.51888,440,1.79098,-0.31,-0.15901,0.34313,5,1D2U,2.0,True,0.384,59,False,right,-0.16738,0.1765,0.6017,0.4252,1.16,1.5769,0.4169,A,0.08
441,0.50214,0.1,1,0.30129,0.25107,0.49377,441,2.1341,0.17,0.08369,0.58583,5,2D1U,1.0,True,0.133,55,True,left,0.25107,0.2393,0.9476,0.7083,1.2561,2.1307,0.8746,A,0.125
442,0.50214,0.1,1,0.43519,0.36824,0.79506,442,2.44376,-0.31,-0.15901,0.34313,5,1D2U,2.0,True,0.267,59,False,right,0.0,0.3756,0.8429,0.4673,1.5761,2.2013,0.6252,A,0.125
443,0.50214,0.1,1,0.26781,0.41008,0.69463,443,2.2429,-0.27,-0.1339,0.36824,5,1D2U,2.0,True,0.458,60,True,right,-0.16738,0.2061,0.6984,0.4923,1.415,1.8731,0.4581,A,0.125
444,0.50214,1.2,2,0.30966,0.25944,0.58583,444,2.22617,0.13,0.06695,0.5691,5,2D1U,1.0,False,0.366,55,False,left,0.25107,1.5162,2.166,0.6498,0.1413,0.9743,0.833,A,0.08
445,0.50214,1.2,1,0.30129,0.42682,0.4603,445,2.27638,0.17,0.08369,0.58583,5,2D1U,1.0,True,0.408,56,True,left,0.0,0.2605,0.9282,0.6677,1.3447,1.9279,0.5832,A,0.08
446,0.50214,1.2,2,0.2176,0.30966,0.66952,446,2.28475,0.17,0.08369,0.58583,5,2D1U,2.0,True,0.358,56,True,right,-0.16738,1.2979,1.9648,0.6669,0.2563,0.6731,0.4168,A,0.08
447,0.50214,0.1,2,0.32639,0.26781,0.72811,447,2.19269,-0.27,-0.1339,0.36824,5,1D2U,1.0,True,0.292,60,True,left,0.25107,1.6852,2.1769,0.4916,0.1435,1.0191,0.8756,A,0.125
448,0.50214,0.1,1,0.2176,0.32639,0.51051,448,1.94162,-0.23,-0.11717,0.38498,5,1D2U,2.0,True,0.408,60,False,right,0.0,0.1561,0.6652,0.5091,1.1144,1.7397,0.6253,A,0.125
449,0.50214,0.1,1,0.31802,0.44356,0.82854,449,2.47724,-0.23,-0.11717,0.38498,5,1D2U,2.0,True,0.409,60,False,right,-0.16738,0.257,0.7649,0.5079,1.6155,2.0737,0.4582,A,0.125
450,0.50214,1.2,2,0.33476,0.40171,0.82017,450,2.46049,-0.19,-0.09206,0.40171,5,1D2U,1.0,True,0.459,60,False,left,0.25107,1.7724,2.2556,0.4833,0.1634,0.9974,0.834,A,0.08
451,0.50214,1.2,1,0.25107,0.38498,0.60257,451,2.30986,0.13,0.06695,0.5691,5,2D1U,1.0,True,0.308,57,True,left,0.0,0.2055,0.8554,0.6498,1.4136,1.9971,0.5835,A,0.08
452,0.50214,1.2,2,0.32639,0.27618,0.80343,452,2.47724,0.13,0.06695,0.5691,5,2D1U,1.0,False,0.123,57,True,left,-0.16738,1.5396,2.1893,0.6498,0.365,0.7807,0.4157,A,0.08
453,0.50214,0.1,2,0.38498,0.2427,0.71137,453,2.42702,0.17,0.08369,0.58583,5,2D1U,1.0,False,0.733,58,True,left,0.25107,1.7274,2.4425,0.715,0.2021,1.0765,0.8744,A,0.125
454,0.50214,0.1,1,0.43519,0.29292,0.66952,454,2.30148,-0.19,-0.09206,0.40171,5,1D2U,2.0,True,0.358,60,False,right,0.0,0.373,0.8972,0.5242,1.5065,2.1311,0.6246,A,0.125
455,0.50214,0.1,2,0.43519,0.30129,0.76158,455,2.42702,-0.15,-0.07532,0.42682,5,1D2U,1.0,True,0.367,60,False,left,-0.16738,1.6188,2.1688,0.55,0.4605,0.9189,0.4584,A,0.125
456,0.50214,1.2,1,0.22596,0.31802,0.55236,456,2.20105,0.21,0.1088,0.60257,5,2D1U,1.0,True,0.112,58,False,left,0.25107,0.1815,0.8647,0.6832,1.2476,2.0808,0.8332,A,0.08
457,0.50214,1.2,2,0.26781,0.28455,0.66116,457,2.14248,-0.15,-0.07532,0.42682,5,1D2U,1.0,True,0.258,60,False,left,0.0,1.4216,1.9295,0.5079,0.2215,0.8049,0.5834,A,0.08
458,0.50214,1.2,1,0.28455,0.36824,0.88712,458,2.48561,-0.11,-0.05858,0.44356,5,1D2U,1.0,False,0.383,60,False,left,-0.16738,0.2409,0.7654,0.5245,1.6909,2.108,0.417,A,0.08
459,0.50214,0.1,1,0.44356,0.44356,0.5942,459,2.58603,0.21,0.1088,0.60257,5,2D1U,1.0,True,1.242,58,False,left,0.25107,0.3803,1.1057,0.7254,1.514,2.3891,0.8751,A,0.125
460,0.50214,0.1,2,0.45193,0.43519,0.82017,460,2.79526,0.17,0.08369,0.58583,5,2D1U,2.0,True,0.324,59,True,right,0.0,1.7769,2.4857,0.7089,0.3937,1.0187,0.625,A,0.125
461,0.50214,0.1,1,0.32639,0.41008,0.60257,461,2.42701,0.17,0.08369,0.58583,5,2D1U,1.0,True,0.376,59,True,left,-0.16738,0.2629,0.9715,0.7086,1.5972,2.0552,0.458,A,0.125
462,0.50214,1.2,1,0.41008,0.27618,0.78669,462,2.54419,0.13,0.06695,0.5691,5,2D1U,2.0,False,0.283,59,False,right,0.25107,0.3645,1.0147,0.6502,1.6309,2.4637,0.8328,A,0.08
463,0.50214,1.2,1,0.30129,0.23433,0.72811,463,2.19269,-0.15,-0.07532,0.42682,5,1D2U,2.0,True,0.351,61,True,right,0.0,0.2588,0.7671,0.5083,1.4512,2.0338,0.5826,A,0.08
464,0.50214,1.2,2,0.38498,0.27618,0.66952,464,2.41865,0.17,0.08369,0.58583,5,2D1U,2.0,True,0.302,60,True,right,-0.16738,1.4643,2.1309,0.6666,0.4226,0.8393,0.4168,A,0.08
465,0.50214,0.1,1,0.2427,0.39335,0.69463,465,2.41865,0.17,0.08369,0.58583,5,2D1U,1.0,True,0.284,60,True,left,0.25107,0.182,0.8901,0.7081,1.3984,2.2735,0.8751,A,0.125
466,0.50214,0.1,2,0.28455,0.40171,0.41008,466,2.0253,-0.15,-0.07532,0.42682,5,1D2U,1.0,True,0.974,61,True,left,0.0,1.1978,1.7479,0.5502,0.2218,0.8474,0.6256,A,0.125
467,0.50214,0.1,2,0.44356,0.31802,0.703,467,2.53582,0.13,0.06695,0.5691,5,2D1U,2.0,True,0.366,61,True,right,-0.16738,1.5656,2.2569,0.6913,0.4645,0.924,0.4595,A,0.125
468,0.50214,1.2,1,0.20923,0.41008,0.52725,468,2.2178,0.13,0.06695,0.5691,5,2D1U,2.0,False,1.2,61,True,right,0.25107,0.163,0.8131,0.6501,1.1712,2.0047,0.8334,A,0.08
469,0.50214,1.2,2,0.36824,0.36824,0.47704,469,2.15922,-0.11,-0.05858,0.44356,5,1D2U,2.0,False,0.184,62,True,right,0.0,1.3416,1.8673,0.5257,0.325,0.9086,0.5836,A,0.08
470,0.50214,1.2,1,0.25107,0.40171,0.85364,470,2.59439,0.17,0.08369,0.58583,5,2D1U,2.0,False,0.112,62,True,right,-0.16738,0.2069,0.8735,0.6666,1.7649,2.1821,0.4172,A,0.08
471,0.50214,0.1,2,0.30129,0.31802,0.68626,471,2.23453,-0.15,-0.07532,0.42682,5,1D2U,1.0,True,0.284,63,True,left,0.25107,1.6152,2.1652,0.55,0.1151,0.9903,0.8751,A,0.125
472,0.50214,0.1,1,0.20923,0.38498,0.89549,472,2.41866,-0.15,-0.07532,0.42682,5,1D2U,1.0,False,0.399,63,True,left,0.0,0.1523,0.7019,0.5496,1.5358,2.1608,0.6249,A,0.125
473,0.50214,0.1,1,0.30966,0.3515,0.43519,473,2.20106,0.21,0.1088,0.60257,5,2D1U,1.0,True,0.567,62,False,left,-0.16738,0.2474,0.9732,0.7258,1.4305,1.8892,0.4586,A,0.125
474,0.50214,1.2,1,0.40171,0.32639,0.52725,474,2.1592,-0.19,-0.09206,0.40171,5,1D2U,2.0,True,0.349,63,False,right,0.25107,0.3607,0.8446,0.4839,1.2031,2.0367,0.8336,A,0.08
475,0.50214,1.2,1,0.30966,0.25107,0.83691,475,2.30149,-0.19,-0.09206,0.40171,5,1D2U,2.0,True,0.501,63,False,right,0.0,0.2645,0.7465,0.482,1.539,2.1215,0.5826,A,0.08
476,0.50214,1.2,2,0.31802,0.33476,0.50214,476,2.25963,0.21,0.1088,0.60257,5,2D1U,2.0,True,1.17,62,False,right,-0.16738,1.2287,1.9113,0.6826,0.3538,0.7699,0.416,A,0.08
477,0.50214,0.1,2,0.31802,0.44356,0.61931,477,2.46886,0.17,0.08369,0.58583,5,2D1U,2.0,True,0.141,63,True,right,0.25107,1.5653,2.2734,0.7081,0.1311,1.0067,0.8756,A,0.125
478,0.50214,0.1,1,0.45193,0.39335,0.80343,478,2.57767,-0.15,-0.07532,0.42682,5,1D2U,2.0,True,0.375,64,True,right,0.0,0.3936,0.9438,0.5502,1.6848,2.3106,0.6258,A,0.125
479,0.50214,0.1,1,0.2176,0.42682,0.88712,479,2.4605,-0.15,-0.07532,0.42682,5,1D2U,2.0,True,0.433,64,True,right,-0.16738,0.1581,0.7077,0.5495,1.6161,2.0746,0.4585,A,0.125
480,0.50214,1.2,1,0.23433,0.26781,0.44356,480,2.03367,0.17,0.08369,0.58583,5,2D1U,1.0,True,0.399,63,True,left,0.25107,0.1923,0.8589,0.6666,1.1339,1.9671,0.8332,A,0.08
481,0.50214,1.2,2,0.32639,0.35987,0.44356,481,2.20106,0.13,0.06695,0.5691,5,2D1U,2.0,True,0.391,63,False,right,0.0,1.2679,1.9182,0.6503,0.2846,0.8681,0.5835,A,0.08
482,0.50214,1.2,1,0.31802,0.43519,0.67789,482,2.3768,-0.11,-0.05858,0.44356,5,1D2U,1.0,False,0.379,64,False,left,-0.16738,0.2724,0.7977,0.5253,1.5142,1.9309,0.4167,A,0.08
483,0.50214,0.1,1,0.2427,0.39335,0.68626,483,2.39355,0.13,0.06695,0.5691,5,2D1U,1.0,True,0.45,63,False,left,0.25107,0.1786,0.8705,0.6919,1.3702,2.2449,0.8747,A,0.125
484,0.50214,0.1,2,0.41845,0.44356,0.50214,484,2.41028,0.09,0.04185,0.54399,5,2D1U,1.0,False,0.4,63,False,left,0.0,1.422,2.0886,0.6665,0.3551,0.9806,0.6255,A,0.125
485,0.50214,0.1,2,0.41008,0.38498,0.61094,485,2.47724,0.13,0.06695,0.5691,5,2D1U,2.0,True,0.675,64,True,right,-0.16738,1.4444,2.1358,0.6913,0.4365,0.8944,0.4579,A,0.125
486,0.50214,1.2,1,0.36824,0.40171,0.5691,486,2.41029,0.13,0.06695,0.5691,5,2D1U,2.0,False,0.409,64,True,right,0.25107,0.3254,0.9755,0.6501,1.3756,2.2089,0.8333,A,0.08
487,0.50214,1.2,2,0.20086,0.43519,0.58583,487,2.15084,-0.15,-0.07532,0.42682,5,1D2U,1.0,True,0.508,65,True,left,0.0,1.281,1.7895,0.5085,0.1564,0.739,0.5825,A,0.08
488,0.50214,1.2,2,0.30966,0.40171,0.61094,488,2.41028,0.17,0.08369,0.58583,5,2D1U,2.0,True,0.334,64,False,right,-0.16738,1.3349,2.0011,0.6662,0.351,0.7679,0.4169,A,0.08
489,0.50214,0.1,1,0.43519,0.30966,0.50214,489,2.17595,-0.15,-0.07532,0.42682,5,1D2U,2.0,True,0.113,65,True,right,0.25107,0.3778,0.9281,0.5502,1.2448,2.1197,0.8748,A,0.125
490,0.50214,0.1,2,0.20086,0.33476,0.46867,490,2.09226,0.17,0.08369,0.58583,5,2D1U,2.0,True,0.241,64,False,right,0.0,1.1759,1.8842,0.7083,0.1424,0.767,0.6246,A,0.125
491,0.50214,0.1,2,0.25107,0.30966,0.83691,491,2.34334,-0.11,-0.05858,0.44356,5,1D2U,2.0,False,0.683,66,True,right,-0.16738,1.5071,2.0737,0.5665,0.2734,0.7315,0.4581,A,0.125
492,0.50214,1.2,1,0.29292,0.25944,0.87875,492,2.50235,0.13,0.06695,0.5691,5,2D1U,2.0,False,0.191,65,True,right,0.25107,0.2474,0.897,0.6496,1.605,2.4382,0.8332,A,0.08
493,0.50214,1.2,2,0.41008,0.31802,0.5691,493,2.22616,-0.15,-0.07532,0.42682,5,1D2U,1.0,True,0.283,67,True,left,0.0,1.4722,1.9806,0.5084,0.363,0.9471,0.5841,A,0.08
494,0.50214,1.2,1,0.30129,0.28455,0.77832,494,2.29312,-0.15,-0.07532,0.42682,5,1D2U,1.0,False,1.192,67,True,left,-0.16738,0.2552,0.7632,0.508,1.5803,1.9968,0.4165,A,0.08
495,0.50214,0.1,2,0.25944,0.3515,0.85364,495,2.36843,-0.19,-0.09206,0.40171,5,1D2U,1.0,True,0.25,67,False,left,0.25107,1.7393,2.2636,0.5243,0.072,0.9479,0.8759,A,0.125
496,0.50214,0.1,1,0.31802,0.28455,0.67789,496,2.36843,0.17,0.08369,0.58583,5,2D1U,1.0,True,0.342,66,True,left,0.0,0.2569,0.9655,0.7086,1.5819,2.2069,0.625,A,0.125
497,0.50214,0.1,2,0.42682,0.22596,0.78669,497,2.34332,-0.19,-0.09206,0.40171,5,1D2U,1.0,True,0.225,67,False,left,-0.16738,1.6355,2.1604,0.5248,0.4521,0.9107,0.4587,A,0.125
498,0.50214,1.2,1,0.39335,0.2427,0.84528,498,2.5693,0.17,0.08369,0.58583,5,2D1U,1.0,True,0.784,66,True,left,0.25107,0.3487,1.0154,0.6667,1.6903,2.5235,0.8332,A,0.08
499,0.50214,1.2,2,0.37661,0.43519,0.47704,499,2.2178,-0.15,-0.07532,0.42682,5,1D2U,1.0,True,0.733,68,True,left,0.0,1.3506,1.859,0.5084,0.3336,0.9167,0.5831,A,0.08
500,0.50214,1.2,1,0.41845,0.25944,0.52725,500,2.27638,0.13,0.06695,0.5691,5,2D1U,1.0,True,0.421,67,True,left,-0.16738,0.3737,1.0235,0.6498,1.5905,2.0072,0.4167,A,0.08
501,0.50214,0.1,2,0.33476,0.41008,0.65279,501,2.32659,-0.15,-0.07532,0.42682,5,1D2U,1.0,True,0.433,68,True,left,0.25107,1.6199,2.1702,0.5503,0.153,1.0283,0.8753,A,0.125
502,0.50214,0.1,1,0.39335,0.23433,0.51888,502,2.09226,-0.11,-0.05858,0.44356,5,1D2U,1.0,False,0.675,68,False,left,0.0,0.3308,0.8971,0.5663,1.356,1.9807,0.6247,A,0.125
503,0.50214,0.1,2,0.38498,0.27618,0.86201,503,2.59441,0.13,0.06695,0.5691,5,2D1U,2.0,True,0.434,67,True,right,-0.16738,1.6638,2.3557,0.6919,0.4064,0.8645,0.4581,A,0.125
504,0.50214,1.2,2,0.25107,0.25107,0.57747,504,2.00857,-0.15,-0.07532,0.42682,5,1D2U,1.0,True,0.225,69,True,left,0.25107,1.4475,1.9565,0.509,0.0811,0.9142,0.8331,A,0.08
505,0.50214,1.2,1,0.40171,0.44356,0.63605,505,2.41028,-0.15,-0.07532,0.42682,5,1D2U,1.0,False,0.133,69,True,left,0.0,0.3553,0.8635,0.5082,1.4546,2.0387,0.5841,A,0.08
506,0.50214,1.2,1,0.35987,0.26781,0.49377,506,2.16758,0.09,0.04185,0.54399,5,2D1U,1.0,True,0.568,67,False,left,-0.16738,0.3193,0.9441,0.6248,1.4777,1.8941,0.4164,A,0.08
507,0.50214,0.1,1,0.29292,0.2427,0.51051,507,2.09226,0.09,0.04185,0.54399,5,2D1U,2.0,False,0.113,67,False,right,0.25107,0.2292,0.8966,0.6674,1.2219,2.0968,0.8749,A,0.125
508,0.50214,0.1,2,0.30966,0.38498,0.66116,508,2.25965,-0.19,-0.09206,0.40171,5,1D2U,2.0,False,0.617,69,False,right,0.0,1.4784,2.0027,0.5242,0.2533,0.8783,0.625,A,0.125
509,0.50214,0.1,2,0.25944,0.28455,0.51051,509,1.94162,-0.23,-0.11717,0.38498,5,1D2U,1.0,True,0.375,69,False,left,-0.16738,1.195,1.7026,0.5076,0.2865,0.7444,0.4579,A,0.125
510,0.50214,1.2,1,0.36824,0.20923,0.52725,510,2.17596,0.13,0.06695,0.5691,5,2D1U,1.0,True,0.267,68,True,left,0.25107,0.3276,0.9773,0.6497,1.3352,2.1691,0.834,A,0.08
511,0.50214,1.2,2,0.44356,0.41845,0.80343,511,2.73668,0.13,0.06695,0.5691,5,2D1U,2.0,True,0.316,68,True,right,0.0,1.7418,2.3912,0.6494,0.3996,0.9836,0.5841,A,0.08
512,0.50214,1.2,1,0.2176,0.31802,0.41845,512,1.84119,-0.23,-0.11717,0.38498,5,1D2U,1.0,False,0.476,69,False,left,-0.16738,0.1719,0.6388,0.4669,1.097,1.5138,0.4168,A,0.08
513,0.50214,0.1,2,0.32639,0.30966,0.703,513,2.38518,0.09,0.04185,0.54399,5,2D1U,2.0,True,0.309,69,True,right,0.25107,1.6594,2.326,0.6666,0.1429,1.0171,0.8742,A,0.125
514,0.50214,0.1,1,0.44356,0.30129,0.72811,514,2.34334,-0.27,-0.1339,0.36824,5,1D2U,2.0,True,0.191,69,False,right,0.0,0.3844,0.8761,0.4917,1.5433,2.168,0.6247,A,0.125
515,0.50214,0.1,2,0.40171,0.30129,0.77832,515,2.52745,0.09,0.04185,0.54399,5,2D1U,2.0,True,0.125,69,True,right,-0.16738,1.5964,2.2632,0.6668,0.4218,0.8799,0.4581,A,0.125
516,0.50214,1.2,1,0.25107,0.22596,0.75322,516,2.25964,0.05,0.02511,0.52725,5,2D1U,2.0,False,0.112,69,False,right,0.25107,0.2058,0.8144,0.6085,1.3977,2.2308,0.8331,A,0.08
517,0.50214,1.2,2,0.35987,0.31802,0.49377,517,2.04204,-0.27,-0.1339,0.36824,5,1D2U,1.0,True,0.325,69,False,left,0.0,1.3469,1.7972,0.4503,0.3135,0.8973,0.5837,A,0.08
518,0.50214,1.2,1,0.42682,0.28455,0.82854,518,2.42703,-0.23,-0.11717,0.38498,5,1D2U,2.0,True,0.261,70,True,right,-0.16738,0.3866,0.8531,0.4665,1.7197,2.1365,0.4168,A,0.08
519,0.50214,0.1,1,0.20923,0.44356,0.76158,519,2.4605,0.09,0.04185,0.54399,5,2D1U,1.0,True,0.908,70,True,left,0.25107,0.1474,0.8149,0.6675,1.3899,2.265,0.8751,A,0.125
520,0.50214,0.1,1,0.23433,0.2176,0.62768,520,1.96673,-0.23,-0.11717,0.38498,5,1D2U,2.0,True,2.191,70,True,right,0.0,0.1727,0.6802,0.5076,1.2471,1.8726,0.6255,A,0.125
521,0.50214,0.1,2,0.44356,0.33476,0.71137,521,2.39354,-0.19,-0.09206,0.40171,5,1D2U,2.0,False,0.366,70,False,right,-0.16738,1.5735,2.0985,0.525,0.4654,0.9229,0.4575,A,0.125
522,0.50214,1.2,1,0.41845,0.35987,0.61094,522,2.27638,-0.23,-0.11717,0.38498,5,1D2U,2.0,True,0.166,71,True,right,0.25107,0.3763,0.8431,0.4668,1.2846,2.118,0.8334,A,0.08
523,0.50214,1.2,1,0.23433,0.43519,0.48541,523,2.20106,0.09,0.04185,0.54399,5,2D1U,1.0,True,0.307,70,True,left,0.0,0.1888,0.8138,0.625,1.256,1.8389,0.5829,A,0.08
524,0.50214,1.2,2,0.35987,0.30129,0.4603,524,2.00858,-0.23,-0.11717,0.38498,5,1D2U,1.0,True,5.045,71,True,left,-0.16738,1.2296,1.697,0.4673,0.397,0.8136,0.4166,A,0.08
525,0.50214,0.1,1,0.35987,0.26781,0.57747,525,2.23454,0.05,0.02511,0.52725,5,2D1U,1.0,True,0.784,71,True,left,0.25107,0.2965,0.9464,0.6498,1.338,2.2133,0.8752,A,0.125
526,0.50214,0.1,1,0.40171,0.39335,0.87038,526,2.56929,-0.19,-0.09206,0.40171,5,1D2U,1.0,False,0.432,72,True,left,0.0,0.3368,0.8622,0.5255,1.671,2.296,0.625,A,0.125
527,0.50214,0.1,2,0.44356,0.25107,0.74485,527,2.3266,-0.23,-0.11717,0.38498,5,1D2U,1.0,True,1.3,73,True,left,-0.16738,1.604,2.1123,0.5082,0.4625,0.9202,0.4578,A,0.125
528,0.50214,1.2,1,0.22596,0.41845,0.66116,528,2.19269,-0.23,-0.11717,0.38498,5,1D2U,2.0,True,0.666,73,True,right,0.25107,0.1796,0.6467,0.467,1.1378,1.9713,0.8335,A,0.08
529,0.50214,1.2,1,0.38498,0.20086,0.46867,529,2.0839,0.05,0.02511,0.52725,5,2D1U,1.0,True,0.475,71,True,left,0.0,0.3449,0.9527,0.6078,1.3777,1.9611,0.5834,A,0.08
530,0.50214,1.2,1,0.3515,0.35987,0.61931,530,2.23453,-0.19,-0.09206,0.40171,5,1D2U,2.0,True,0.494,74,True,right,-0.16738,0.309,0.7922,0.4831,1.45,1.8673,0.4173,A,0.08
531,0.50214,0.1,2,0.36824,0.20923,0.82017,531,2.30149,-0.19,-0.09206,0.40171,5,1D2U,1.0,True,1.675,74,True,left,0.25107,1.8117,2.3375,0.5258,0.1789,1.0541,0.8753,A,0.125
532,0.50214,0.1,2,0.43519,0.26781,0.55236,532,2.25964,0.01,0.00837,0.50214,5,2D1U,1.0,False,0.35,71,False,left,0.0,1.4934,2.1185,0.6251,0.3762,1.0014,0.6252,A,0.125
533,0.50214,0.1,2,0.2427,0.25107,0.61931,533,2.14247,0.05,0.02511,0.52725,5,2D1U,1.0,False,0.483,72,True,left,-0.16738,1.2849,1.9349,0.65,0.2674,0.7258,0.4584,A,0.125
534,0.50214,1.2,2,0.36824,0.35987,0.83691,534,2.49398,-0.15,-0.07532,0.42682,5,1D2U,1.0,True,0.342,74,False,left,0.25107,1.8224,2.331,0.5086,0.1973,1.0308,0.8335,A,0.08
535,0.50214,1.2,1,0.31802,0.26781,0.76995,535,2.28474,-0.15,-0.07532,0.42682,5,1D2U,1.0,False,0.317,74,False,left,0.0,0.2763,0.784,0.5077,1.5091,2.0921,0.5829,A,0.08
536,0.50214,1.2,1,0.31802,0.35987,0.43519,536,2.01693,-0.19,-0.09206,0.40171,5,1D2U,2.0,True,1.647,75,True,right,-0.16738,0.2765,0.7586,0.4821,1.2339,1.6514,0.4176,A,0.08
537,0.50214,0.1,1,0.41845,0.29292,0.5691,537,2.3266,0.09,0.04185,0.54399,5,2D1U,2.0,False,0.658,72,False,right,0.25107,0.357,1.023,0.6661,1.4064,2.2814,0.875,A,0.125
538,0.50214,0.1,1,0.32639,0.42682,0.44356,538,2.26801,0.13,0.06695,0.5691,5,2D1U,1.0,True,0.751,72,False,left,0.0,0.2642,0.9559,0.6917,1.3392,1.9639,0.6248,A,0.125
539,0.50214,0.1,2,0.32639,0.31802,0.87875,539,2.5944,0.13,0.06695,0.5691,5,2D1U,2.0,True,0.625,72,False,right,-0.16738,1.6219,2.3145,0.6925,0.3471,0.8058,0.4587,A,0.125
540,0.50214,1.2,2,0.33476,0.3515,0.44356,540,2.03367,-0.19,-0.09206,0.40171,5,1D2U,1.0,True,0.258,75,True,left,0.25107,1.3961,1.8783,0.4822,0.1623,0.9958,0.8334,A,0.08
541,0.50214,1.2,1,0.43519,0.20086,0.41008,541,1.97509,-0.15,-0.07532,0.42682,5,1D2U,1.0,False,0.292,76,True,left,0.0,0.3879,0.8963,0.5084,1.2628,1.846,0.5832,A,0.08
542,0.50214,1.2,1,0.30966,0.25944,0.88712,542,2.36007,-0.19,-0.09206,0.40171,5,1D2U,1.0,False,0.526,77,True,left,-0.16738,0.2697,0.7528,0.4831,1.6782,2.0947,0.4164,A,0.08
543,0.50214,0.1,2,0.37661,0.32639,0.44356,543,2.03368,-0.23,-0.11717,0.38498,5,1D2U,1.0,True,0.114,77,False,left,0.25107,1.4527,1.9607,0.508,0.1945,1.0696,0.8752,A,0.125
544,0.50214,0.1,2,0.22596,0.42682,0.66952,544,2.36843,0.09,0.04185,0.54399,5,2D1U,2.0,True,0.742,73,True,right,0.0,1.4023,2.0691,0.6669,0.1687,0.7936,0.6249,A,0.125
545,0.50214,0.1,1,0.20086,0.31802,0.71137,545,2.27638,0.09,0.04185,0.54399,5,2D1U,2.0,False,0.359,73,True,right,-0.16738,0.1397,0.806,0.6663,1.5394,1.9974,0.458,A,0.125
546,0.50214,1.2,1,0.42682,0.25944,0.82854,546,2.40192,-0.23,-0.11717,0.38498,5,1D2U,1.0,False,1.05,77,False,left,0.25107,0.3845,0.8522,0.4676,1.5096,2.3434,0.8338,A,0.08
547,0.50214,1.2,2,0.2427,0.39335,0.44356,547,1.94999,-0.27,-0.1339,0.36824,5,1D2U,2.0,False,2.599,77,False,right,0.0,1.1853,1.6347,0.4494,0.2015,0.7847,0.5832,A,0.08
548,0.50214,1.2,1,0.41845,0.22596,0.58583,548,2.30148,0.13,0.06695,0.5691,5,2D1U,2.0,False,3.367,74,True,right,-0.16738,0.3741,1.024,0.6499,1.6491,2.0657,0.4166,A,0.08
549,0.50214,0.1,1,0.2427,0.41008,0.46867,549,2.20942,0.17,0.08369,0.58583,5,2D1U,1.0,True,0.841,74,False,left,0.25107,0.1807,0.8892,0.7085,1.1727,2.0476,0.875,A,0.125
550,0.50214,0.1,2,0.30129,0.41845,0.67789,550,2.2429,-0.31,-0.15901,0.34313,5,1D2U,1.0,True,0.383,77,False,left,0.0,1.4864,1.9528,0.4665,0.2444,0.8702,0.6258,A,0.125
551,0.50214,0.1,1,0.42682,0.2176,0.78669,551,2.27638,-0.31,-0.15901,0.34313,5,1D2U,2.0,True,0.402,77,False,right,-0.16738,0.3657,0.8327,0.467,1.6408,2.0995,0.4587,A,0.125
552,0.50214,1.2,1,0.38498,0.44356,0.4603,552,2.15922,-0.27,-0.1339,0.36824,5,1D2U,2.0,True,0.183,78,True,right,0.25107,0.3413,0.791,0.4497,1.0827,1.916,0.8334,A,0.08
553,0.50214,1.2,2,0.40171,0.34313,0.60257,553,2.43538,0.17,0.08369,0.58583,5,2D1U,2.0,True,0.409,74,False,right,0.0,1.5008,2.1674,0.6666,0.3592,0.9422,0.583,A,0.08
554,0.50214,1.2,1,0.25107,0.26781,0.77832,554,2.36844,0.13,0.06695,0.5691,5,2D1U,1.0,True,0.572,75,True,left,-0.16738,0.2051,0.856,0.6509,1.6726,2.0887,0.4162,A,0.08
555,0.50214,0.1,2,0.22596,0.27618,0.61094,555,1.98346,-0.27,-0.1339,0.36824,5,1D2U,1.0,True,0.159,78,True,left,0.25107,1.4692,1.9608,0.4917,0.0436,0.9185,0.8749,A,0.125
556,0.50214,0.1,1,0.41008,0.41845,0.61094,556,2.32659,-0.23,-0.11717,0.38498,5,1D2U,2.0,True,0.115,78,False,right,0.0,0.3478,0.8569,0.5091,1.4069,2.0328,0.6258,A,0.125
557,0.50214,0.1,2,0.40171,0.2427,0.87038,557,2.40191,-0.23,-0.11717,0.38498,5,1D2U,1.0,True,0.25,78,False,left,-0.16738,1.6908,2.199,0.5081,0.4242,0.8823,0.458,A,0.125
558,0.50214,1.2,1,0.27618,0.44356,0.61094,558,2.40192,0.13,0.06695,0.5691,5,2D1U,2.0,False,1.517,75,True,right,0.25107,0.2311,0.881,0.65,1.3223,2.1558,0.8336,A,0.08
559,0.50214,1.2,2,0.43519,0.33476,0.45193,559,2.30985,0.17,0.08369,0.58583,5,2D1U,2.0,True,0.217,76,True,right,0.0,1.3786,2.0451,0.6666,0.3868,0.9699,0.5831,A,0.08
560,0.50214,1.2,1,0.41008,0.30966,0.72811,560,2.3517,-0.19,-0.09206,0.40171,5,1D2U,1.0,False,1.142,78,False,left,-0.16738,0.3628,0.846,0.4833,1.6125,2.0291,0.4166,A,0.08
561,0.50214,0.1,2,0.40171,0.25107,0.76158,561,2.50233,0.17,0.08369,0.58583,5,2D1U,2.0,True,1.058,76,True,right,0.25107,1.7903,2.4987,0.7084,0.215,1.0903,0.8753,A,0.125
562,0.50214,0.1,1,0.30966,0.43519,0.84528,562,2.66137,0.13,0.06695,0.5691,5,2D1U,1.0,True,0.633,77,True,left,0.0,0.2496,0.9418,0.6922,1.725,2.3502,0.6251,A,0.125
563,0.50214,0.1,2,0.20086,0.37661,0.76995,563,2.23454,-0.23,-0.11717,0.38498,5,1D2U,1.0,True,0.392,79,True,left,-0.16738,1.3891,1.8976,0.5084,0.2228,0.6808,0.458,A,0.125
564,0.50214,1.2,2,0.44356,0.41008,0.4603,564,2.38518,0.13,0.06695,0.5691,5,2D1U,1.0,False,0.251,77,True,left,0.25107,1.5263,2.1756,0.6494,0.2755,1.1095,0.834,A,0.08
565,0.50214,1.2,1,0.37661,0.2427,0.51888,565,2.02531,-0.23,-0.11717,0.38498,5,1D2U,1.0,False,0.267,79,True,left,0.0,0.3302,0.7968,0.4666,1.2725,1.856,0.5835,A,0.08
566,0.50214,1.2,1,0.30966,0.35987,0.83691,566,2.59441,0.17,0.08369,0.58583,5,2D1U,1.0,True,0.662,78,True,left,-0.16738,0.2648,0.9315,0.6666,1.8066,2.2231,0.4165,A,0.08
567,0.50214,0.1,2,0.36824,0.20923,0.48541,567,1.93326,-0.27,-0.1339,0.36824,5,1D2U,1.0,True,0.467,79,False,left,0.25107,1.4797,1.9714,0.4918,0.18,1.0554,0.8754,A,0.125
568,0.50214,0.1,1,0.25944,0.38498,0.62768,568,2.36007,0.17,0.08369,0.58583,5,2D1U,1.0,True,1.341,78,True,left,0.0,0.1959,0.9053,0.7094,1.4723,2.0969,0.6247,A,0.125
569,0.50214,0.1,2,0.30129,0.33476,0.60257,569,2.109,-0.27,-0.1339,0.36824,5,1D2U,1.0,True,0.333,79,False,left,-0.16738,1.3231,1.8141,0.4911,0.3231,0.7812,0.4581,A,0.125
570,0.50214,1.2,2,0.25107,0.25944,0.88712,570,2.46887,0.13,0.06695,0.5691,5,2D1U,1.0,False,0.4,79,True,left,0.25107,1.7588,2.4087,0.6499,0.0838,0.917,0.8332,A,0.08
571,0.50214,1.2,1,0.2176,0.25107,0.4603,571,1.81609,-0.23,-0.11717,0.38498,5,1D2U,1.0,False,0.658,80,True,left,0.0,0.1766,0.6433,0.4666,1.0603,1.6437,0.5834,A,0.08
572,0.50214,1.2,2,0.30966,0.26781,0.82017,572,2.26802,-0.27,-0.1339,0.36824,5,1D2U,1.0,True,1.283,81,True,left,-0.16738,1.5445,1.9947,0.4502,0.3533,0.7695,0.4162,A,0.08
573,0.50214,0.1,1,0.30966,0.41845,0.79506,573,2.61114,0.17,0.08369,0.58583,5,2D1U,2.0,False,1.209,80,True,right,0.25107,0.2502,0.9584,0.7081,1.561,2.4328,0.8718,A,0.125
574,0.50214,0.1,1,0.2427,0.35987,0.88712,574,2.36007,-0.27,-0.1339,0.36824,5,1D2U,2.0,True,0.375,81,True,right,0.0,0.1828,0.6739,0.4911,1.4992,2.1237,0.6246,A,0.125
575,0.50214,0.1,2,0.22596,0.30966,0.8118,575,2.45213,0.21,0.1088,0.60257,5,2D1U,2.0,True,0.316,80,False,right,-0.16738,1.4569,2.182,0.7251,0.2481,0.7066,0.4585,A,0.125
576,0.50214,1.2,1,0.2427,0.25944,0.61931,576,2.22616,0.21,0.1088,0.60257,5,2D1U,1.0,True,0.35,80,False,left,0.25107,0.1982,0.8817,0.6835,1.3316,2.1648,0.8333,A,0.08
577,0.50214,1.2,2,0.25944,0.22596,0.67789,577,2.05041,-0.23,-0.11717,0.38498,5,1D2U,2.0,False,0.508,82,True,right,0.0,1.4314,1.898,0.4666,0.2145,0.7981,0.5836,A,0.08
578,0.50214,1.2,2,0.40171,0.20923,0.4603,578,2.15921,0.17,0.08369,0.58583,5,2D1U,2.0,True,0.337,81,True,right,-0.16738,1.2719,1.9392,0.6672,0.4389,0.8554,0.4166,A,0.08
579,0.50214,0.1,2,0.35987,0.27618,0.83691,579,2.34334,-0.27,-0.1339,0.36824,5,1D2U,1.0,True,0.158,83,True,left,0.25107,1.8279,2.3189,0.491,0.1778,1.0529,0.8751,A,0.125
580,0.50214,0.1,2,0.27618,0.41008,0.71137,580,2.4856,0.17,0.08369,0.58583,5,2D1U,2.0,True,0.466,81,True,right,0.0,1.4902,2.1976,0.7074,0.215,0.8401,0.6251,A,0.125
581,0.50214,0.1,2,0.42682,0.28455,0.88712,581,2.46887,-0.27,-0.1339,0.36824,5,1D2U,1.0,True,0.316,83,True,left,-0.16738,1.7331,2.2246,0.4915,0.4496,0.9077,0.4582,A,0.125
582,0.50214,1.2,2,0.32639,0.2427,0.54399,582,2.0002,-0.23,-0.11717,0.38498,5,1D2U,1.0,True,0.184,84,True,left,0.25107,1.4875,1.9539,0.4664,0.1538,0.9873,0.8335,A,0.08
583,0.50214,1.2,1,0.27618,0.20923,0.4603,583,2.01695,0.13,0.06695,0.5691,5,2D1U,1.0,True,0.475,81,False,left,0.0,0.2317,0.8818,0.6501,1.2992,1.882,0.5828,A,0.08
584,0.50214,1.2,1,0.20923,0.44356,0.79506,584,2.51909,0.13,0.06695,0.5691,5,2D1U,1.0,True,0.287,81,False,left,-0.16738,0.1679,0.8181,0.6502,1.6517,2.0682,0.4165,A,0.08
585,0.50214,0.1,1,0.30129,0.36824,0.82854,585,2.38519,-0.23,-0.11717,0.38498,5,1D2U,2.0,True,0.55,84,True,right,0.25107,0.2383,0.7472,0.5089,1.389,2.2639,0.8748,A,0.125
586,0.50214,0.1,2,0.27618,0.25107,0.89549,586,2.32659,-0.19,-0.09206,0.40171,5,1D2U,1.0,True,0.292,84,False,left,0.0,1.678,2.2029,0.5249,0.2196,0.845,0.6253,A,0.125
587,0.50214,0.1,2,0.25944,0.30966,0.5942,587,2.06715,-0.19,-0.09206,0.40171,5,1D2U,2.0,False,0.618,84,False,right,-0.16738,1.277,1.8023,0.5252,0.2854,0.7435,0.4581,A,0.125
588,0.50214,1.2,2,0.28455,0.23433,0.51051,588,2.07552,0.09,0.04185,0.54399,5,2D1U,1.0,False,0.113,81,False,left,0.25107,1.4123,2.0375,0.6252,0.1117,0.945,0.8333,A,0.08
589,0.50214,1.2,2,0.42682,0.41008,0.47704,589,2.38518,0.13,0.06695,0.5691,5,2D1U,1.0,False,0.225,82,True,left,0.0,1.3979,2.0478,0.6498,0.381,0.9644,0.5834,A,0.08
590,0.50214,1.2,1,0.37661,0.37661,0.44356,590,2.0839,-0.23,-0.11717,0.38498,5,1D2U,1.0,False,0.355,85,True,left,-0.16738,0.3308,0.7977,0.467,1.2809,1.6976,0.4167,A,0.08
591,0.50214,0.1,1,0.42682,0.38498,0.75322,591,2.65299,0.17,0.08369,0.58583,5,2D1U,2.0,False,0.375,82,False,right,0.25107,0.3652,1.0743,0.7091,1.6409,2.5159,0.875,A,0.125
592,0.50214,0.1,2,0.34313,0.33476,0.8118,592,2.36007,-0.27,-0.1339,0.36824,5,1D2U,1.0,True,0.207,85,False,left,0.0,1.6574,2.1485,0.4912,0.2821,0.9072,0.6252,A,0.125
593,0.50214,0.1,1,0.3515,0.41845,0.83691,593,2.47724,-0.27,-0.1339,0.36824,5,1D2U,1.0,False,0.342,85,False,left,-0.16738,0.2888,0.7804,0.4916,1.6388,2.097,0.4582,A,0.125
