,Unnamed: 0,standardDur,audNoise,order,preDur,postDur,isiDur,trial_num,total_audio_dur,delta_dur_percents,deltaDurS,testDurS,intensities,current_stair,responses,is_correct,response_rts,stair_num_reversal,stair_is_reversal,response_keys
0,0,0.5,0.1,1,0.2667,0.2,0.8833,0,1.9,-0.9,-0.45,0.05,5,1D2U,2.0,True,0.365,0,False,right
1,1,0.5,0.1,2,0.2333,0.3833,0.5833,1,1.7499,-0.9,-0.45,0.05,5,1D3U,1.0,True,0.491,0,False,left
2,2,0.5,0.1,1,0.25,0.4167,0.75,2,1.9667,-0.9,-0.45,0.05,5,1D3U,2.0,True,0.275,0,False,right
3,3,0.5,0.1,2,0.4333,0.4,0.5167,3,1.9,-0.9,-0.45,0.05,5,3D1U,1.0,True,0.417,0,False,left
4,4,0.5,0.1,1,0.3,0.2333,0.5,4,2.4333,0.8,0.4,0.9,5,lapse_rate,1.0,True,0.734,0,False,left
5,5,0.5,0.1,2,0.3167,0.4333,0.6167,5,1.9167,-0.9,-0.45,0.05,5,1D2U,1.0,True,0.366,0,False,left
6,6,0.5,0.1,1,0.2167,0.2833,0.8667,6,1.9167,-0.9,-0.45,0.05,5,2D1U,2.0,True,0.209,0,False,right
7,7,0.5,0.1,2,0.2667,0.25,0.5333,7,1.6,-0.9,-0.45,0.05,5,1D3U,1.0,True,0.616,0,False,left
8,8,0.5,0.1,1,0.4167,0.3833,0.75,8,2.1833,-0.74,-0.3667,0.1333,5,1D2U,2.0,True,0.375,0,False,right
9,9,0.5,0.1,1,0.2333,0.2833,0.5833,9,1.6999,-0.8,-0.4,0.1,5,lapse_rate,2.0,True,0.441,0,False,right
10,10,0.5,0.1,2,0.3833,0.3833,0.6167,10,2.0166,-0.74,-0.3667,0.1333,5,2D1U,1.0,True,0.459,0,False,left
11,11,0.5,0.1,2,0.3333,0.45,0.85,11,2.2666,-0.74,-0.3667,0.1333,5,3D1U,1.0,True,0.432,0,False,left
12,12,0.5,0.1,2,0.2167,0.2333,0.4333,12,1.5166,-0.74,-0.3667,0.1333,5,1D2U,1.0,True,0.567,0,False,left
13,13,0.5,0.1,1,0.2667,0.4167,0.6667,13,2.0668,-0.58,-0.2833,0.2167,5,3D1U,2.0,True,0.301,0,False,right
14,14,0.5,0.1,1,0.3833,0.3833,0.5667,14,2.05,-0.58,-0.2833,0.2167,5,2D1U,2.0,True,0.392,0,False,right
15,15,0.5,0.1,1,0.45,0.3,0.8667,15,2.25,-0.74,-0.3667,0.1333,5,1D3U,1.0,False,0.517,0,False,left
16,16,0.5,0.1,2,0.45,0.4,0.7,16,2.15,-0.8,-0.4,0.1,5,lapse_rate,1.0,True,0.55,0,False,left
17,17,0.5,0.1,2,0.35,0.2667,0.5,17,1.7,-0.82,-0.4167,0.0833,5,1D3U,1.0,True,0.617,1,True,left
18,18,0.5,0.1,2,0.3167,0.3,0.5833,18,1.8,-0.8,-0.4,0.1,5,lapse_rate,1.0,True,0.383,0,False,left
19,19,0.5,0.1,1,0.3167,0.4333,0.4333,19,1.9,-0.58,-0.2833,0.2167,5,1D2U,2.0,True,0.359,0,False,right
20,20,0.5,0.1,2,0.3667,0.2333,0.5833,20,1.9666,-0.42,-0.2167,0.2833,5,3D1U,1.0,True,1.534,0,False,left
21,21,0.5,0.1,1,0.2667,0.3667,0.9,21,2.3167,-0.42,-0.2167,0.2833,5,2D1U,2.0,True,0.325,0,False,right
22,22,0.5,0.1,2,0.4,0.2,0.8,22,2.0,-0.8,-0.4,0.1,5,lapse_rate,1.0,True,0.525,0,False,left
23,23,0.5,0.1,1,0.25,0.4167,0.5333,23,2.0667,-0.26,-0.1333,0.3667,5,3D1U,2.0,True,1.099,0,False,right
24,24,0.5,0.1,2,0.3667,0.3667,0.45,24,2.0501,-0.26,-0.1333,0.3667,5,2D1U,1.0,True,0.4,0,False,left
25,25,0.5,0.1,2,0.45,0.25,0.5,25,1.9167,-0.58,-0.2833,0.2167,5,1D2U,1.0,True,0.416,0,False,left
26,26,0.5,0.1,1,0.3167,0.2167,0.8833,26,2.0,-0.82,-0.4167,0.0833,5,1D3U,2.0,True,0.325,1,True,right
27,27,0.5,0.1,2,0.25,0.4333,0.7833,27,2.2499,-0.42,-0.2167,0.2833,5,1D2U,1.0,True,0.599,0,False,left
28,28,0.5,0.1,1,0.3333,0.3833,0.5333,28,1.8332,-0.82,-0.4167,0.0833,5,1D3U,2.0,True,0.233,1,True,right
29,29,0.5,0.1,1,0.2167,0.2167,0.7667,29,2.1501,-0.1,-0.05,0.45,5,3D1U,2.0,True,0.358,0,False,right
30,30,0.5,0.1,2,0.3833,0.35,0.5167,30,2.2,-0.1,-0.05,0.45,5,2D1U,1.0,True,0.674,0,False,left
31,31,0.5,0.1,2,0.25,0.3667,0.5667,31,2.5834,0.8,0.4,0.9,5,lapse_rate,2.0,True,0.317,0,False,right
32,32,0.5,0.1,2,0.3333,0.3333,0.4667,32,2.5333,0.8,0.4,0.9,5,lapse_rate,2.0,True,0.484,0,False,right
33,33,0.5,0.1,1,0.3,0.3333,0.9,33,2.15,-0.78,-0.3833,0.1167,5,1D3U,2.0,True,0.158,2,True,right
34,34,0.5,0.1,2,0.4,0.35,0.5667,34,2.35,0.06,0.0333,0.5333,5,3D1U,1.0,False,0.434,0,False,left
35,35,0.5,0.1,2,0.4,0.25,0.4333,35,2.1166,0.06,0.0333,0.5333,5,2D1U,1.0,False,0.491,0,False,left
36,36,0.5,0.1,1,0.25,0.2833,0.85,36,2.1666,-0.42,-0.2167,0.2833,5,1D2U,2.0,True,0.308,0,False,right
37,37,0.5,0.1,1,0.4,0.35,0.55,37,1.9167,-0.78,-0.3833,0.1167,5,1D3U,2.0,True,0.351,2,True,right
38,38,0.5,0.1,2,0.3667,0.45,0.75,38,2.6834,0.22,0.1167,0.6167,5,3D1U,2.0,True,0.458,0,False,right
39,39,0.5,0.1,1,0.35,0.4,0.5,39,2.1167,-0.26,-0.1333,0.3667,5,1D2U,1.0,False,1.376,0,False,left
40,40,0.5,0.1,1,0.4,0.2667,0.8833,40,2.6667,0.22,0.1167,0.6167,5,2D1U,2.0,False,0.449,0,False,right
41,41,0.5,0.1,1,0.2333,0.3667,0.8167,41,2.0167,-0.8,-0.4,0.1,5,lapse_rate,2.0,True,0.375,0,False,right
42,42,0.5,0.1,1,0.25,0.2333,0.4833,42,2.0833,0.22,0.1167,0.6167,5,3D1U,2.0,False,0.542,0,False,right
43,43,0.5,0.1,2,0.3667,0.4,0.4,43,2.0,-0.34,-0.1667,0.3333,5,1D2U,1.0,True,0.425,1,True,left
44,44,0.5,0.1,1,0.3333,0.35,0.7,44,2.0,-0.78,-0.3833,0.1167,5,1D3U,2.0,True,0.35,2,True,right
45,45,0.5,0.1,2,0.4333,0.3667,0.85,45,2.8333,0.38,0.1833,0.6833,5,2D1U,2.0,True,0.483,0,False,right
46,46,0.5,0.1,2,0.2333,0.35,0.8667,46,2.85,0.8,0.4,0.9,5,lapse_rate,2.0,True,0.442,0,False,right
47,47,0.5,0.1,1,0.4167,0.2667,0.8,47,2.1167,-0.74,-0.3667,0.1333,5,1D3U,2.0,True,0.3,2,False,right
48,48,0.5,0.1,2,0.35,0.2833,0.6833,48,2.4999,0.38,0.1833,0.6833,5,2D1U,2.0,True,0.35,0,False,right
49,49,0.5,0.1,1,0.4167,0.2167,0.5333,49,2.0,-0.34,-0.1667,0.3333,5,1D2U,1.0,False,0.791,1,True,left
50,50,0.5,0.1,1,0.4333,0.3833,0.8167,50,2.2333,-0.8,-0.4,0.1,5,lapse_rate,2.0,True,0.35,0,False,right
51,51,0.5,0.1,2,0.3167,0.4333,0.4333,51,2.3666,0.38,0.1833,0.6833,5,3D1U,1.0,False,0.759,0,False,left
52,52,0.5,0.1,1,0.3833,0.35,0.7667,52,2.9,0.8,0.4,0.9,5,lapse_rate,1.0,True,0.424,0,False,left
53,53,0.5,0.1,2,0.35,0.2167,0.65,53,2.0,-0.42,-0.2167,0.2833,5,1D2U,1.0,True,0.558,1,False,left
54,54,0.5,0.1,1,0.3667,0.35,0.8,54,2.7834,0.54,0.2667,0.7667,5,3D1U,2.0,False,1.349,0,False,right
55,55,0.5,0.1,1,0.3667,0.4333,0.7833,55,2.2166,-0.74,-0.3667,0.1333,5,1D3U,2.0,True,0.359,2,False,right
56,56,0.5,0.1,1,0.25,0.2167,0.6333,56,2.25,0.3,0.15,0.65,5,2D1U,2.0,False,1.483,1,True,right
57,57,0.5,0.1,2,0.2333,0.3167,0.5833,57,2.4833,0.7,0.35,0.85,5,3D1U,2.0,True,0.316,0,False,right
58,58,0.5,0.1,2,0.4333,0.3,0.4167,58,1.7833,-0.74,-0.3667,0.1333,5,1D3U,1.0,True,0.508,2,False,left
59,59,0.5,0.1,1,0.4,0.3167,0.4,59,1.9,-0.42,-0.2167,0.2833,5,1D2U,1.0,False,0.541,1,False,left
60,60,0.5,0.1,2,0.3,0.2667,0.5833,60,2.55,0.8,0.4,0.9,5,lapse_rate,2.0,True,0.391,0,False,right
61,61,0.5,0.1,1,0.4333,0.2667,0.4833,61,2.35,0.34,0.1667,0.6667,5,2D1U,1.0,True,0.7,2,True,left
62,62,0.5,0.1,1,0.3333,0.35,0.8,62,2.8833,0.8,0.4,0.9,5,lapse_rate,1.0,True,0.383,0,False,left
63,63,0.5,0.1,1,0.4333,0.2,0.7,63,2.5,0.34,0.1667,0.6667,5,2D1U,1.0,True,0.384,2,True,left
64,64,0.5,0.1,2,0.25,0.2667,0.5167,64,2.3834,0.7,0.35,0.85,5,3D1U,1.0,False,0.159,0,False,left
65,65,0.5,0.1,2,0.3333,0.45,0.7167,65,2.25,-0.5,-0.25,0.25,5,1D2U,1.0,True,0.467,1,False,left
66,66,0.5,0.1,1,0.3333,0.25,0.5167,66,1.75,-0.7,-0.35,0.15,5,1D3U,2.0,True,0.225,2,False,right
67,67,0.5,0.1,2,0.2667,0.2333,0.5833,67,2.2333,0.3,0.15,0.65,5,2D1U,2.0,True,0.3,3,True,right
68,68,0.5,0.1,1,0.2667,0.4333,0.8667,68,2.3167,-0.5,-0.25,0.25,5,1D2U,2.0,True,0.333,1,False,right
69,69,0.5,0.1,2,0.2333,0.35,0.85,69,2.8666,0.86,0.4333,0.9333,5,3D1U,2.0,True,0.326,0,False,right
70,70,0.5,0.1,1,0.25,0.3333,0.4,70,1.6333,-0.7,-0.35,0.15,5,1D3U,2.0,True,0.391,2,False,right
71,71,0.5,0.1,1,0.3,0.25,0.45,71,1.6,-0.8,-0.4,0.1,5,lapse_rate,2.0,True,1.207,0,False,right
72,72,0.5,0.1,2,0.3667,0.3833,0.5833,72,2.1,-0.46,-0.2333,0.2667,5,1D2U,1.0,True,1.474,2,True,left
73,73,0.5,0.1,2,0.35,0.3667,0.75,73,2.9,0.86,0.4333,0.9333,5,3D1U,2.0,True,0.408,0,False,right
74,74,0.5,0.1,1,0.2833,0.3833,0.8,74,2.1166,-0.7,-0.35,0.15,5,1D3U,2.0,True,0.349,2,False,right
75,75,0.5,0.1,2,0.45,0.3167,0.8167,75,2.7334,0.3,0.15,0.65,5,2D1U,2.0,True,0.375,3,True,right
76,76,0.5,0.1,1,0.2833,0.25,0.7667,76,2.7333,0.86,0.4333,0.9333,5,3D1U,1.0,True,0.408,0,False,left
77,77,0.5,0.1,1,0.3167,0.2833,0.4833,77,1.75,-0.66,-0.3333,0.1667,5,1D3U,2.0,True,0.4,2,False,right
78,78,0.5,0.1,1,0.4167,0.45,0.4667,78,2.7167,0.78,0.3833,0.8833,5,3D1U,1.0,True,0.492,1,True,left
79,79,0.5,0.1,2,0.2667,0.3333,0.6167,79,1.9834,-0.46,-0.2333,0.2667,5,1D2U,1.0,True,1.059,2,True,left
80,80,0.5,0.1,2,0.3167,0.2833,0.55,80,2.2833,0.26,0.1333,0.6333,5,2D1U,1.0,False,1.367,3,False,left
81,81,0.5,0.1,1,0.3667,0.2333,0.6667,81,1.9334,-0.66,-0.3333,0.1667,5,1D3U,2.0,True,0.367,2,False,right
82,82,0.5,0.1,2,0.3833,0.25,0.7833,82,2.7999,0.78,0.3833,0.8833,5,3D1U,2.0,True,1.358,1,True,right
83,83,0.5,0.1,1,0.4,0.35,0.85,83,2.2667,-0.66,-0.3333,0.1667,5,1D3U,2.0,True,0.567,2,False,right
84,84,0.5,0.1,2,0.3167,0.2333,0.4667,84,1.7,-0.62,-0.3167,0.1833,5,1D3U,1.0,True,0.649,2,False,left
85,85,0.5,0.1,1,0.2833,0.4,0.6,85,2.4333,0.3,0.15,0.65,5,2D1U,1.0,True,1.734,4,True,left
86,86,0.5,0.1,1,0.4333,0.45,0.4667,86,2.1333,-0.42,-0.2167,0.2833,5,1D2U,1.0,False,0.708,2,False,left
87,87,0.5,0.1,2,0.2833,0.4,0.4,87,2.4666,0.78,0.3833,0.8833,5,3D1U,2.0,True,0.517,1,True,right
88,88,0.5,0.1,1,0.2667,0.2333,0.4833,88,1.6666,-0.62,-0.3167,0.1833,5,1D3U,2.0,True,0.46,2,False,right
89,89,0.5,0.1,2,0.4,0.3667,0.4167,89,1.9501,-0.46,-0.2333,0.2667,5,1D2U,1.0,True,1.5,3,True,left
90,90,0.5,0.1,2,0.2333,0.3667,0.75,90,2.5,0.3,0.15,0.65,5,2D1U,2.0,True,1.35,4,True,right
91,91,0.5,0.1,2,0.2167,0.2,0.7333,91,2.2833,0.26,0.1333,0.6333,5,2D1U,2.0,True,0.459,5,True,right
92,92,0.5,0.1,2,0.2667,0.4167,0.9,92,2.9334,0.7,0.35,0.85,5,3D1U,2.0,True,0.342,1,False,right
93,93,0.5,0.1,1,0.3833,0.4,0.5833,93,2.7166,0.7,0.35,0.85,5,3D1U,1.0,True,0.258,1,False,left
94,94,0.5,0.1,1,0.2,0.3667,0.8,94,2.5,0.26,0.1333,0.6333,5,2D1U,1.0,True,0.508,5,True,left
95,95,0.5,0.1,1,0.2333,0.25,0.4167,95,1.5833,-0.62,-0.3167,0.1833,5,1D3U,2.0,True,0.441,2,False,right
96,96,0.5,0.1,2,0.4333,0.3,0.85,96,2.35,-0.46,-0.2333,0.2667,5,1D2U,1.0,True,1.233,3,True,left
97,97,0.5,0.1,2,0.2667,0.2833,0.8667,97,2.5334,0.22,0.1167,0.6167,5,2D1U,2.0,True,0.449,5,False,right
98,98,0.5,0.1,1,0.2333,0.2667,0.75,98,2.6,0.7,0.35,0.85,5,3D1U,1.0,True,0.45,1,False,left
99,99,0.5,0.1,2,0.4167,0.2667,0.5333,99,2.0,-0.42,-0.2167,0.2833,5,1D2U,1.0,True,0.509,4,True,left
100,100,0.5,0.1,1,0.2667,0.2333,0.8667,100,2.0834,-0.58,-0.2833,0.2167,5,1D3U,2.0,True,0.408,2,False,right
101,101,0.5,0.1,1,0.3833,0.4,0.6833,101,2.1833,-0.58,-0.2833,0.2167,5,1D3U,2.0,True,0.258,2,False,right
102,102,0.5,0.1,2,0.4333,0.3667,0.5,102,2.0833,-0.42,-0.2167,0.2833,5,1D2U,2.0,False,0.375,4,True,right
103,103,0.5,0.1,2,0.4167,0.3667,0.5167,103,2.4168,0.22,0.1167,0.6167,5,2D1U,2.0,True,0.162,5,False,right
104,104,0.5,0.1,2,0.25,0.3167,0.5,104,2.3834,0.62,0.3167,0.8167,5,3D1U,2.0,True,0.208,1,False,right
105,105,0.5,0.1,2,0.3667,0.2667,0.7333,105,2.6834,0.62,0.3167,0.8167,5,3D1U,2.0,True,0.16,1,False,right
106,106,0.5,0.1,2,0.2333,0.3167,0.5,106,1.7667,-0.58,-0.2833,0.2167,5,1D3U,1.0,True,0.434,2,False,left
107,107,0.5,0.1,1,0.4167,0.35,0.7667,107,2.6167,0.18,0.0833,0.5833,5,2D1U,1.0,True,0.366,5,False,left
108,108,0.5,0.1,1,0.2833,0.25,0.5,108,1.8,-0.46,-0.2333,0.2667,5,1D2U,1.0,False,0.657,5,True,left
109,109,0.5,0.1,2,0.3833,0.3167,0.45,109,1.9,-0.5,-0.25,0.25,5,1D2U,1.0,True,0.442,5,False,left
110,110,0.5,0.1,2,0.25,0.3667,0.8667,110,2.2167,-0.54,-0.2667,0.2333,5,1D3U,1.0,True,0.458,2,False,left
111,111,0.5,0.1,2,0.2667,0.2833,0.75,111,2.6167,0.62,0.3167,0.8167,5,3D1U,2.0,True,0.366,1,False,right
112,112,0.5,0.1,1,0.3667,0.35,0.65,112,2.1167,-0.5,-0.25,0.25,5,1D2U,2.0,True,0.357,5,False,right
113,113,0.5,0.1,2,0.2833,0.3,0.65,113,2.3166,0.18,0.0833,0.5833,5,2D1U,2.0,True,0.725,5,False,right
114,114,0.5,0.1,2,0.4,0.3333,0.5167,114,2.3167,0.14,0.0667,0.5667,5,2D1U,2.0,True,0.16,5,False,right
115,115,0.5,0.1,1,0.2,0.2333,0.7167,115,2.4167,0.54,0.2667,0.7667,5,3D1U,1.0,True,0.233,1,False,left
116,116,0.5,0.1,2,0.3,0.25,0.7333,116,2.0166,-0.54,-0.2667,0.2333,5,1D3U,1.0,True,0.691,2,False,left
117,117,0.5,0.1,2,0.35,0.2833,0.45,117,1.8166,-0.54,-0.2667,0.2333,5,1D3U,2.0,False,0.4,2,False,right
118,118,0.5,0.1,2,0.4,0.3667,0.8167,118,2.3001,-0.58,-0.2833,0.2167,5,1D3U,1.0,True,1.391,3,True,left
119,119,0.5,0.1,1,0.35,0.4333,0.4167,119,2.2667,0.14,0.0667,0.5667,5,2D1U,1.0,True,0.558,5,False,left
120,120,0.5,0.1,2,0.2,0.2333,0.8,120,2.5,0.54,0.2667,0.7667,5,3D1U,2.0,True,0.866,1,False,right
121,121,0.5,0.1,1,0.3167,0.3667,0.6167,121,2.0668,-0.46,-0.2333,0.2667,5,1D2U,2.0,True,1.142,6,True,right
122,122,0.5,0.1,2,0.3167,0.3167,0.4833,122,2.1667,0.1,0.05,0.55,5,2D1U,2.0,True,0.849,5,False,right
123,123,0.5,0.1,1,0.3667,0.4333,0.85,123,2.9167,0.54,0.2667,0.7667,5,3D1U,1.0,True,0.616,1,False,left
124,124,0.5,0.1,2,0.3833,0.3,0.4167,124,2.3333,0.46,0.2333,0.7333,5,3D1U,1.0,False,0.758,1,False,left
125,125,0.5,0.1,2,0.2667,0.35,0.5667,125,1.9001,-0.58,-0.2833,0.2167,5,1D3U,1.0,True,0.584,3,True,left
126,126,0.5,0.1,2,0.3833,0.3667,0.6333,126,2.15,-0.46,-0.2333,0.2667,5,1D2U,1.0,True,0.667,6,True,left
127,127,0.5,0.1,1,0.2833,0.4167,0.4333,127,2.3833,0.5,0.25,0.75,5,3D1U,2.0,False,0.543,2,True,right
128,128,0.5,0.1,1,0.35,0.4333,0.4667,128,2.3,0.1,0.05,0.55,5,2D1U,2.0,False,1.625,5,False,right
129,129,0.5,0.1,2,0.2333,0.3167,0.5,129,1.8333,-0.42,-0.2167,0.2833,5,1D2U,1.0,True,0.359,6,False,left
130,130,0.5,0.1,2,0.3833,0.35,0.5833,130,2.0999,-0.42,-0.2167,0.2833,5,1D2U,1.0,True,0.534,6,False,left
131,131,0.5,0.1,1,0.3333,0.2667,0.5167,131,1.8334,-0.58,-0.2833,0.2167,5,1D3U,1.0,False,1.684,3,True,left
132,132,0.5,0.1,2,0.4,0.3333,0.65,132,2.65,0.54,0.2667,0.7667,5,3D1U,2.0,True,0.408,2,False,right
133,133,0.5,0.1,2,0.4167,0.3833,0.8,133,2.6667,0.14,0.0667,0.5667,5,2D1U,2.0,True,0.8,6,True,right
134,134,0.5,0.1,1,0.2333,0.2,0.8667,134,2.3667,0.14,0.0667,0.5667,5,2D1U,2.0,False,0.5,6,True,right
135,135,0.5,0.1,2,0.4333,0.4,0.6,135,2.25,-0.38,-0.1833,0.3167,5,1D2U,1.0,True,0.533,6,False,left
136,136,0.5,0.1,1,0.45,0.35,0.4667,136,1.95,-0.62,-0.3167,0.1833,5,1D3U,2.0,True,0.401,3,False,right
137,137,0.5,0.1,2,0.2,0.3667,0.7667,137,2.0167,-0.62,-0.3167,0.1833,5,1D3U,1.0,True,0.499,3,False,left
138,138,0.5,0.1,1,0.25,0.3833,0.4667,138,2.1833,0.18,0.0833,0.5833,5,2D1U,1.0,True,1.516,6,False,left
139,139,0.5,0.1,2,0.25,0.4333,0.7,139,2.2,-0.38,-0.1833,0.3167,5,1D2U,1.0,True,0.425,6,False,left
140,140,0.5,0.1,1,0.3667,0.2833,0.7833,140,2.2666,-0.34,-0.1667,0.3333,5,1D2U,2.0,True,0.483,6,False,right
141,141,0.5,0.1,1,0.4167,0.2833,0.7,141,2.6667,0.54,0.2667,0.7667,5,3D1U,1.0,True,1.157,2,False,left
142,142,0.5,0.1,1,0.2667,0.2,0.8833,142,2.1833,-0.34,-0.1667,0.3333,5,1D2U,2.0,True,1.316,6,False,right
143,143,0.5,0.1,2,0.3667,0.4167,0.7167,143,2.7668,0.54,0.2667,0.7667,5,3D1U,2.0,True,0.866,2,False,right
144,144,0.5,0.1,2,0.3,0.25,0.7167,144,2.35,0.18,0.0833,0.5833,5,2D1U,2.0,True,1.958,6,False,right
145,145,0.5,0.1,1,0.4167,0.35,0.8667,145,2.3167,-0.62,-0.3167,0.1833,5,1D3U,2.0,True,0.35,3,False,right
146,146,0.5,0.1,1,0.4,0.45,0.4667,146,2.0334,-0.58,-0.2833,0.2167,5,1D3U,2.0,True,1.566,4,True,right
147,147,0.5,0.1,2,0.3,0.4333,0.4667,147,2.45,0.5,0.25,0.75,5,3D1U,1.0,False,0.976,3,True,left
148,148,0.5,0.1,1,0.2833,0.35,0.4833,148,1.9666,-0.3,-0.15,0.35,5,1D2U,1.0,False,2.008,6,False,left
149,149,0.5,0.1,2,0.4,0.2333,0.55,149,2.25,0.14,0.0667,0.5667,5,2D1U,2.0,True,1.809,7,True,right
150,150,0.5,0.1,2,0.3,0.3,0.8167,150,2.4834,0.14,0.0667,0.5667,5,2D1U,2.0,True,0.758,7,True,right
151,151,0.5,0.1,1,0.4333,0.4,0.4667,151,2.35,0.1,0.05,0.55,5,2D1U,1.0,True,1.375,7,False,left
152,152,0.5,0.1,2,0.3667,0.3833,0.7667,152,2.7834,0.54,0.2667,0.7667,5,3D1U,2.0,True,1.383,4,True,right
153,153,0.5,0.1,1,0.4,0.4333,0.8333,153,2.4999,-0.34,-0.1667,0.3333,5,1D2U,2.0,True,0.368,7,True,right
