Unnamed: 0,standardDur,audNoise,order,preDur,postDur,isiDur,trial_num,totalDur,delta_dur_percents,deltaDurS,testDurS,intensities,current_stair,responses,is_correct,response_rts,stair_num_reversal,stair_is_reversal,response_keys,conflictDur,recordedOnsetVisualTest,recordedOffsetVisualTest,recordedDurVisualTest,recordedOnsetVisualStandard,recordedOffsetVisualStandard,recordedDurVisualStandard,modalityCue,VisualPSE
0,0.50134,1.2,2,0.27574,0.25903,0.53476,0,1.59594,-0.95,-0.47627,0.02507,5,1D2U,1.0,True,0.66,0,False,left,0.25067,1.4295,1.5211,0.0916,0.1123,0.9283,0.816,A,0.065
1,0.50134,1.2,1,0.35094,0.40943,0.85228,1,2.13906,-0.95,-0.47627,0.02507,5,2D1U,2.0,True,0.114,0,False,right,-0.25067,0.3149,0.4067,0.0917,1.3477,1.665,0.3173,A,0.065
2,0.50134,1.2,2,0.24231,0.25067,0.55983,2,1.57922,-0.95,-0.47627,0.02507,5,1D2U,1.0,True,0.929,0,False,left,-0.16711,1.2138,1.3056,0.0918,0.2894,0.6888,0.3995,A,0.065
3,0.50134,1.2,1,0.35094,0.34258,0.76872,3,2.91613,0.9,0.45121,0.95255,5,lapse_rate,1.0,True,1.292,0,False,left,0.08356,0.3147,1.3314,1.0167,2.0231,2.673,0.6499,A,0.065
4,0.50134,1.2,2,0.31752,0.31752,0.55983,4,1.80483,-0.79,-0.39272,0.10862,5,2D1U,1.0,True,1.133,0,False,left,0.0,1.3728,1.5482,0.1754,0.2815,0.8483,0.5668,A,0.065
5,0.50134,1.2,2,0.3008,0.26738,0.50134,5,1.75468,-0.63,-0.31752,0.18382,5,2D1U,1.0,True,1.025,0,False,left,-0.08356,1.257,1.5064,0.2493,0.3072,0.7906,0.4834,A,0.065
6,0.50134,1.2,2,0.40107,0.27574,0.81886,6,2.02208,-0.95,-0.47627,0.02507,5,lapse_rate,1.0,True,1.058,0,False,left,0.16711,1.8015,1.893,0.0916,0.2846,1.0181,0.7335,A,0.065
7,0.50134,1.2,2,0.35094,0.24231,0.52641,7,1.72962,-0.79,-0.39272,0.10862,5,1D2U,1.0,True,1.042,0,False,left,0.25067,1.4966,1.6717,0.1751,0.1884,1.0051,0.8167,A,0.065
8,0.50134,1.2,2,0.44285,0.35929,0.51805,8,1.93015,-0.79,-0.39272,0.10862,5,1D2U,1.0,True,0.884,0,False,left,-0.25067,1.3365,1.512,0.1755,0.537,0.8536,0.3166,A,0.065
9,0.50134,1.2,1,0.40107,0.20054,0.5849,9,1.71292,-0.95,-0.47627,0.02507,5,lapse_rate,2.0,True,0.384,0,False,right,-0.16711,0.3646,0.4564,0.0919,1.0893,1.489,0.3997,A,0.065
10,0.50134,0.1,2,0.35094,0.35094,0.79379,10,2.26439,-0.47,-0.23396,0.26738,5,2D1U,1.0,True,0.112,0,False,left,0.08356,1.6791,2.1459,0.4668,0.2043,0.9877,0.7833,A,0.2
11,0.50134,1.2,1,0.43449,0.45121,0.46792,11,2.80751,0.9,0.45121,0.95255,5,lapse_rate,2.0,False,1.542,0,False,right,0.0,0.4021,1.4195,1.0174,1.8529,2.4188,0.566,A,0.065
12,0.50134,0.1,2,0.29245,0.35929,0.64339,12,1.98029,-0.63,-0.31752,0.18382,5,1D2U,1.0,True,0.117,0,False,left,-0.08356,1.391,1.7741,0.3831,0.2325,0.8497,0.6172,A,0.2
13,0.50134,0.1,1,0.34258,0.38436,0.63503,13,2.20589,-0.31,-0.15876,0.34258,5,2D1U,2.0,True,0.433,0,False,right,0.16711,0.2412,0.7824,0.5412,1.2328,2.0996,0.8667,A,0.2
14,0.50134,0.1,2,0.33423,0.37601,0.66845,14,2.30617,-0.15,-0.0752,0.42614,5,2D1U,1.0,True,0.634,0,False,left,0.25067,1.6202,2.2452,0.625,0.1037,1.0535,0.9499,A,0.2
15,0.50134,0.1,2,0.27574,0.42614,0.72694,15,2.11398,-0.63,-0.31752,0.18382,5,1D2U,1.0,True,1.025,0,False,left,-0.25067,1.3728,1.7551,0.3823,0.2978,0.7475,0.4497,A,0.2
16,0.50134,1.2,2,0.25903,0.21725,0.60996,16,2.54013,0.9,0.45121,0.95255,5,lapse_rate,2.0,True,1.184,0,False,right,-0.16711,1.2815,2.2981,1.0165,0.3063,0.706,0.3998,A,0.065
17,0.50134,0.1,1,0.44285,0.28409,0.54312,17,2.72395,0.9,0.45121,0.95255,5,lapse_rate,1.0,True,0.683,0,False,left,0.08356,0.3383,1.488,1.1497,1.8879,2.6714,0.7835,A,0.2
18,0.50134,0.1,2,0.42614,0.34258,0.60161,18,2.37301,0.01,0.00836,0.50134,5,2D1U,1.0,False,0.114,0,False,left,0.0,1.5226,2.2224,0.6997,0.3227,1.0227,0.7,A,0.2
19,0.50134,0.1,2,0.25067,0.3008,0.70188,19,2.02207,-0.47,-0.23396,0.26738,5,1D2U,1.0,True,0.917,0,False,left,-0.08356,1.406,1.8731,0.4672,0.19,0.8066,0.6166,A,0.2
20,0.50134,1.2,1,0.32587,0.42614,0.72694,20,2.56519,0.17,0.08356,0.5849,5,2D1U,2.0,False,0.7,0,False,right,0.16711,0.2916,0.9417,0.6501,1.5499,2.283,0.7331,A,0.065
21,0.50134,1.2,1,0.27574,0.43449,0.40943,21,1.64607,-0.95,-0.47627,0.02507,5,lapse_rate,2.0,True,1.349,0,False,right,0.25067,0.2424,0.3342,0.0917,0.5846,1.4006,0.816,A,0.065
22,0.50134,1.2,2,0.2256,0.36765,0.8105,22,2.17247,-0.47,-0.23396,0.26738,5,1D2U,1.0,True,1.442,0,False,left,-0.25067,1.404,1.7382,0.3342,0.3131,0.6298,0.3167,A,0.065
23,0.50134,1.2,2,0.28409,0.36765,0.41778,23,2.23931,0.33,0.16711,0.66845,5,2D1U,2.0,True,0.671,0,False,right,-0.16711,1.1179,1.8513,0.7334,0.3351,0.7353,0.4002,A,0.065
24,0.50134,0.1,1,0.35929,0.36765,0.7353,24,2.91613,0.9,0.45121,0.95255,5,lapse_rate,1.0,True,0.112,0,False,left,0.08356,0.2606,1.4104,1.1498,2.0023,2.7852,0.7828,A,0.2
25,0.50134,1.2,2,0.31752,0.36765,0.6601,25,2.18919,-0.31,-0.15876,0.34258,5,1D2U,2.0,False,0.966,0,False,right,0.0,1.4757,1.8835,0.4078,0.2835,0.8495,0.5661,A,0.065
26,0.50134,1.2,2,0.21725,0.44285,0.83557,26,2.30617,-0.39,-0.19218,0.30916,5,1D2U,1.0,True,0.324,1,True,left,-0.08356,1.5085,1.8831,0.3746,0.2255,0.7085,0.483,A,0.065
27,0.50134,1.2,2,0.33423,0.29245,0.82721,27,2.62368,0.33,0.16711,0.66845,5,2D1U,2.0,True,0.533,0,False,right,0.16711,1.7424,2.4757,0.7333,0.2173,0.9503,0.733,A,0.065
28,0.50134,0.1,1,0.40943,0.34258,0.45956,28,1.73798,-0.95,-0.47627,0.02507,5,lapse_rate,2.0,True,0.25,0,False,right,0.25067,0.3057,0.5299,0.2242,0.7638,1.7135,0.9497,A,0.2
29,0.50134,1.2,2,0.44285,0.23396,0.69352,29,2.49835,0.25,0.12534,0.62668,5,2D1U,2.0,True,0.897,1,True,right,-0.25067,1.5059,2.1973,0.6914,0.5301,0.8469,0.3167,A,0.065
30,0.50134,0.1,1,0.20889,0.35094,0.63503,30,1.72127,-0.95,-0.47627,0.02507,5,lapse_rate,2.0,True,0.284,0,False,right,-0.16711,0.1114,0.3357,0.2243,0.953,1.4864,0.5334,A,0.2
31,0.50134,0.1,2,0.27574,0.40943,0.7353,31,2.23097,-0.39,-0.19218,0.30916,5,1D2U,1.0,True,0.376,1,True,left,0.08356,1.5529,2.0612,0.5083,0.1369,0.9194,0.7825,A,0.2
32,0.50134,0.1,2,0.24231,0.34258,0.87735,32,2.59026,0.25,0.12534,0.62668,5,2D1U,1.0,False,0.976,1,True,left,0.0,1.6142,2.4399,0.8257,0.1398,0.8395,0.6996,A,0.2
33,0.50134,0.1,2,0.31752,0.41778,0.81886,33,3.00805,0.9,0.45121,0.95255,5,lapse_rate,2.0,True,0.492,0,False,right,-0.08356,1.5954,2.7454,1.15,0.2621,0.8792,0.6171,A,0.2
34,0.50134,0.1,2,0.36765,0.26738,0.65174,34,2.11398,-0.35,-0.17547,0.32587,5,1D2U,2.0,False,0.45,2,True,right,0.16711,1.6011,2.1263,0.5251,0.1845,1.0509,0.8664,A,0.2
35,0.50134,0.1,2,0.59325,0.32587,1.32855,35,3.05817,-0.39,-0.19218,0.30916,5,1D2U,2.0,False,2.642,3,True,right,0.25067,2.5436,3.053,0.5093,0.3692,1.319,0.9499,A,0.2
36,0.50134,0.1,1,0.26738,0.40107,0.72694,36,2.54012,0.29,0.14205,0.64339,5,2D1U,2.0,False,2.783,2,True,right,-0.25067,0.1661,1.0077,0.8416,1.7577,2.2066,0.4489,A,0.2
37,0.50134,0.1,2,0.42614,0.39272,0.83557,37,2.18084,-0.95,-0.47627,0.02507,5,lapse_rate,1.0,True,0.113,0,False,left,-0.16711,1.6775,1.9027,0.2252,0.4101,0.9438,0.5337,A,0.2
38,0.50134,0.1,2,0.25903,0.31752,0.59325,38,2.62369,0.9,0.45121,0.95255,5,lapse_rate,2.0,True,0.191,0,False,right,0.08356,1.3943,2.5448,1.1505,0.12,0.9031,0.7831,A,0.2
39,0.50134,0.1,1,0.36765,0.3008,0.53476,39,1.98864,-0.43,-0.21725,0.28409,5,1D2U,1.0,False,0.633,3,False,left,0.0,0.2701,0.7536,0.4835,1.1866,1.8868,0.7002,A,0.2
40,0.50134,0.1,1,0.35094,0.39272,0.5097,40,2.42315,0.33,0.16711,0.66845,5,2D1U,2.0,False,1.134,2,False,right,-0.08356,0.2456,1.1122,0.8666,1.5621,2.1785,0.6164,A,0.2
41,0.50134,0.1,2,0.35094,0.28409,0.5849,41,2.67382,0.9,0.45121,0.95255,5,lapse_rate,2.0,True,0.917,0,False,right,0.16711,1.5125,2.6623,1.1499,0.1617,1.0294,0.8676,A,0.2
42,0.50134,1.2,2,0.41778,0.42614,0.83557,42,2.86599,0.37,0.18382,0.68516,5,2D1U,2.0,True,0.508,2,False,right,0.25067,1.8727,2.6221,0.7494,0.2563,1.0723,0.816,A,0.065
43,0.50134,1.2,2,0.37601,0.20889,0.44285,43,1.79647,-0.47,-0.23396,0.26738,5,1D2U,1.0,True,0.416,3,False,left,-0.25067,1.1918,1.5256,0.3338,0.467,0.7831,0.316,A,0.065
44,0.50134,1.2,2,0.25903,0.29245,0.76872,44,2.08892,-0.47,-0.23396,0.26738,5,1D2U,2.0,False,0.493,3,False,right,-0.16711,1.4383,1.7723,0.334,0.3056,0.7056,0.4,A,0.065
45,0.50134,1.2,1,0.25067,0.3008,0.79379,45,2.53176,0.37,0.18382,0.68516,5,2D1U,2.0,False,0.585,2,False,right,0.08356,0.2157,0.9656,0.7499,1.6822,2.3323,0.65,A,0.065
46,0.50134,1.2,1,0.34258,0.42614,0.40943,46,1.70456,-0.95,-0.47627,0.02507,5,lapse_rate,2.0,True,0.325,0,False,right,0.0,0.3059,0.3975,0.0916,0.772,1.3392,0.5672,A,0.065
47,0.50134,0.1,2,0.35929,0.43449,0.78543,47,2.10562,-0.95,-0.47627,0.02507,5,lapse_rate,1.0,True,0.7,0,False,left,-0.08356,1.5974,1.8224,0.225,0.2975,0.9143,0.6168,A,0.2
48,0.50134,1.2,2,0.40107,0.43449,0.55983,48,2.59861,0.41,0.20889,0.70188,5,2D1U,2.0,True,0.366,2,False,right,0.16711,1.5378,2.3046,0.7669,0.2798,1.0128,0.733,A,0.065
49,0.50134,1.2,2,0.29245,0.43449,0.64339,49,2.11398,-0.51,-0.25903,0.24231,5,1D2U,1.0,True,0.733,3,False,left,0.25067,1.5553,1.8645,0.3092,0.1303,0.9476,0.8173,A,0.065
50,0.50134,1.2,1,0.21725,0.33423,0.49298,50,2.24768,0.41,0.20889,0.70188,5,2D1U,1.0,True,1.244,2,False,left,-0.25067,0.1816,0.9478,0.7662,1.5316,1.8485,0.3168,A,0.065
51,0.50134,0.1,1,0.42614,0.20889,0.6601,51,2.03878,-0.51,-0.25903,0.24231,5,1D2U,2.0,True,0.308,3,False,right,-0.16711,0.3236,0.7652,0.4416,1.407,1.9401,0.5331,A,0.2
52,0.50134,0.1,1,0.38436,0.40107,0.57654,52,2.81586,0.9,0.45121,0.95255,5,lapse_rate,2.0,False,1.267,0,False,right,0.08356,0.2813,1.4315,1.1502,1.8645,2.6481,0.7836,A,0.2
53,0.50134,0.1,1,0.29245,0.29245,0.60996,53,1.96358,-0.47,-0.23396,0.26738,5,1D2U,2.0,True,0.475,4,True,right,0.0,0.1872,0.6535,0.4663,1.1619,1.8623,0.7004,A,0.2
54,0.50134,0.1,1,0.35929,0.41778,0.44285,54,2.40642,0.37,0.18382,0.68516,5,2D1U,1.0,True,0.125,3,True,left,-0.08356,0.2556,1.1393,0.8837,1.5224,2.1391,0.6167,A,0.2
55,0.50134,1.2,2,0.23396,0.31752,0.53476,55,1.61265,-0.95,-0.47627,0.02507,5,lapse_rate,1.0,True,0.333,0,False,left,0.16711,1.3511,1.4426,0.0915,0.1178,0.851,0.7332,A,0.065
56,0.50134,0.1,1,0.42614,0.35929,0.40943,56,1.72127,-0.95,-0.47627,0.02507,5,lapse_rate,2.0,True,0.113,0,False,right,0.25067,0.3225,0.5474,0.2248,0.7302,1.6807,0.9505,A,0.2
57,0.50134,0.1,2,0.32587,0.28409,0.84392,57,2.2226,-0.47,-0.23396,0.26738,5,1D2U,1.0,True,0.375,4,True,left,-0.25067,1.5382,2.0047,0.4665,0.3464,0.7964,0.4499,A,0.2
58,0.50134,0.1,2,0.32587,0.42614,0.86063,58,2.79914,0.37,0.18382,0.68516,5,2D1U,2.0,True,0.117,3,True,right,-0.16711,1.5959,2.4791,0.8832,0.3045,0.8366,0.5321,A,0.2
59,0.50134,1.2,2,0.32587,0.2256,0.57654,59,2.5819,0.9,0.45121,0.95255,5,lapse_rate,2.0,True,1.975,0,False,right,0.08356,1.4392,2.4559,1.0167,0.2475,0.8974,0.6499,A,0.065
60,0.50134,0.1,1,0.32587,0.40107,0.55147,60,2.06384,-0.43,-0.21725,0.28409,5,1D2U,2.0,True,0.416,4,False,right,0.0,0.2274,0.7104,0.483,1.1607,1.8603,0.6996,A,0.2
61,0.50134,0.1,1,0.25067,0.20889,0.48463,61,2.11398,0.33,0.16711,0.66845,5,2D1U,1.0,True,0.625,3,False,left,-0.08356,0.1468,1.0134,0.8666,1.4388,2.0544,0.6156,A,0.2
62,0.50134,1.2,1,0.40107,0.27574,0.74365,62,2.59025,0.33,0.16711,0.66845,5,2D1U,2.0,False,0.291,3,False,right,0.16711,0.369,1.102,0.733,1.7269,2.4607,0.7338,A,0.065
63,0.50134,1.2,1,0.42614,0.2256,0.41778,63,2.52341,0.9,0.45121,0.95255,5,lapse_rate,1.0,True,0.113,0,False,left,0.25067,0.3951,1.4116,1.0165,1.6699,2.4866,0.8167,A,0.065
64,0.50134,1.2,2,0.25903,0.32587,0.72694,64,2.09727,-0.43,-0.21725,0.28409,5,1D2U,2.0,False,0.243,4,False,right,-0.25067,1.3553,1.7063,0.3509,0.3473,0.6642,0.3168,A,0.065
65,0.50134,1.2,2,0.31752,0.44285,0.82721,65,2.11399,-0.95,-0.47627,0.02507,5,lapse_rate,1.0,True,0.224,0,False,left,-0.16711,1.5617,1.6534,0.0917,0.3693,0.7702,0.4009,A,0.065
66,0.50134,1.2,2,0.32587,0.25067,0.8857,66,2.64874,0.37,0.18382,0.68516,5,2D1U,2.0,True,0.142,4,True,right,0.08356,1.753,2.5032,0.7502,0.2536,0.903,0.6494,A,0.065
67,0.50134,1.2,1,0.28409,0.29245,0.70188,67,2.04714,-0.47,-0.23396,0.26738,5,1D2U,2.0,True,0.112,5,True,right,0.0,0.2495,0.5828,0.3333,1.2495,1.8151,0.5656,A,0.065
68,0.50134,1.2,2,0.24231,0.2256,0.60996,68,1.60428,-0.95,-0.47627,0.02507,5,lapse_rate,1.0,True,0.342,0,False,left,-0.08356,1.3057,1.3973,0.0916,0.2473,0.7308,0.4834,A,0.065
69,0.50134,1.2,1,0.3008,0.20889,0.79379,69,2.0722,-0.47,-0.23396,0.26738,5,1D2U,2.0,True,0.114,5,True,right,0.16711,0.2693,0.6021,0.3328,1.2778,2.011,0.7332,A,0.065
70,0.50134,1.2,1,0.29245,0.43449,0.76037,70,2.67381,0.37,0.18382,0.68516,5,2D1U,1.0,True,0.792,4,True,left,0.25067,0.2566,1.0075,0.7509,1.6074,2.4234,0.8161,A,0.065
71,0.50134,1.2,1,0.23396,0.42614,0.69352,71,2.52341,0.33,0.16711,0.66845,5,2D1U,1.0,True,1.37,5,True,left,-0.25067,0.1985,0.9325,0.734,1.7152,2.0318,0.3166,A,0.065
72,0.50134,1.2,1,0.25067,0.28409,0.79379,72,1.85496,-0.95,-0.47627,0.02507,5,lapse_rate,2.0,True,1.304,0,False,right,-0.16711,0.2162,0.308,0.0918,1.1499,1.5496,0.3997,A,0.065
73,0.50134,0.1,2,0.27574,0.40107,0.44285,73,1.90509,-0.43,-0.21725,0.28409,5,1D2U,1.0,True,0.376,6,True,left,0.08356,1.2562,1.7395,0.4834,0.131,0.9142,0.7832,A,0.2
74,0.50134,0.1,2,0.23396,0.38436,0.5097,74,2.58191,0.9,0.45121,0.95255,5,lapse_rate,2.0,True,0.133,0,False,right,0.0,1.239,2.3889,1.1499,0.1307,0.8307,0.7,A,0.2
75,0.50134,0.1,1,0.37601,0.41778,0.43449,75,2.39807,0.33,0.16711,0.66845,5,2D1U,1.0,True,1.466,5,True,left,-0.08356,0.2736,1.14,0.8664,1.5148,2.1316,0.6167,A,0.2
76,0.50134,0.1,1,0.25067,0.27574,0.71859,76,2.03043,-0.43,-0.21725,0.28409,5,1D2U,2.0,True,0.266,6,True,right,0.16711,0.1506,0.6344,0.4838,1.1676,2.0342,0.8666,A,0.2
77,0.50134,0.1,2,0.40107,0.40943,0.5849,77,1.92181,-0.95,-0.47627,0.02507,5,lapse_rate,1.0,True,0.113,0,False,left,0.25067,1.6049,1.8296,0.2246,0.1714,1.1213,0.9499,A,0.2
78,0.50134,0.1,1,0.38436,0.24231,0.5097,78,2.2811,0.29,0.14205,0.64339,5,2D1U,2.0,False,0.124,5,False,right,-0.25067,0.2818,1.1236,0.8417,1.6573,2.1071,0.4498,A,0.2
79,0.50134,0.1,1,0.28409,0.37601,0.62668,79,2.09728,-0.39,-0.19218,0.30916,5,1D2U,2.0,True,0.291,6,False,right,-0.16711,0.1805,0.6888,0.5083,1.297,1.8297,0.5327,A,0.2
80,0.50134,1.2,2,0.24231,0.27574,0.40107,80,2.37301,0.9,0.45121,0.95255,5,lapse_rate,2.0,True,0.11,0,False,right,0.08356,1.1823,2.1991,1.0169,0.1654,0.8162,0.6509,A,0.065
81,0.50134,0.1,1,0.38436,0.23396,0.55983,81,2.34794,0.33,0.16711,0.66845,5,2D1U,1.0,True,1.292,6,True,left,0.0,0.2789,1.1455,0.8666,1.6041,2.304,0.6999,A,0.2
82,0.50134,0.1,1,0.41778,0.3008,0.44285,82,1.97193,-0.39,-0.19218,0.30916,5,1D2U,2.0,True,1.167,6,False,right,-0.08356,0.3191,0.8276,0.5085,1.2105,1.8271,0.6166,A,0.2
83,0.50134,1.2,1,0.27574,0.35929,0.80214,83,2.26438,-0.35,-0.17547,0.32587,5,1D2U,2.0,True,0.841,6,False,right,0.16711,0.2384,0.63,0.3917,1.3134,2.0467,0.7333,A,0.065
84,0.50134,1.2,1,0.2256,0.37601,0.61832,84,2.38972,0.33,0.16711,0.66845,5,2D1U,2.0,False,0.6,6,True,right,0.25067,0.1875,0.9207,0.7332,1.3795,2.1963,0.8168,A,0.065
85,0.50134,1.2,2,0.32587,0.26738,0.42614,85,2.47328,0.9,0.45121,0.95255,5,lapse_rate,2.0,True,0.966,0,False,right,-0.25067,1.1264,2.1426,1.0162,0.418,0.7346,0.3166,A,0.065
86,0.50134,1.2,1,0.34258,0.39272,0.6601,86,2.22261,-0.35,-0.17547,0.32587,5,1D2U,2.0,True,0.549,6,False,right,-0.16711,0.3109,0.7031,0.3922,1.4103,1.811,0.4007,A,0.065
87,0.50134,1.2,1,0.42614,0.42614,0.56819,87,2.87436,0.9,0.45121,0.95255,5,lapse_rate,2.0,False,0.583,0,False,right,0.08356,0.3945,1.411,1.0165,1.9028,2.5528,0.65,A,0.065
88,0.50134,1.2,2,0.37601,0.40107,0.85228,88,2.81586,0.37,0.18382,0.68516,5,2D1U,2.0,True,0.716,6,False,right,0.0,1.7224,2.4713,0.749,0.3385,0.9051,0.5666,A,0.065
89,0.50134,1.2,1,0.30916,0.23396,0.70188,89,2.69889,0.9,0.45121,0.95255,5,lapse_rate,1.0,True,1.633,0,False,left,-0.08356,0.2713,1.2872,1.0159,1.9965,2.4795,0.483,A,0.065
90,0.50134,1.2,2,0.44285,0.40107,0.52641,90,2.55683,0.37,0.18382,0.68516,5,2D1U,2.0,True,0.859,6,False,right,0.16711,1.5464,2.2962,0.7498,0.3211,1.0544,0.7333,A,0.065
91,0.50134,1.2,1,0.34258,0.2256,0.54312,91,1.95522,-0.31,-0.15876,0.34258,5,1D2U,2.0,True,0.526,6,False,right,0.25067,0.3048,0.7132,0.4084,1.0965,1.9135,0.817,A,0.065
92,0.50134,0.1,2,0.35929,0.37601,0.55983,92,1.82154,-0.95,-0.47627,0.02507,5,lapse_rate,1.0,True,0.25,0,False,left,-0.25067,1.289,1.514,0.2249,0.3809,0.8307,0.4498,A,0.2
93,0.50134,1.2,1,0.31752,0.29245,0.71023,93,2.48999,0.33,0.16711,0.66845,5,2D1U,1.0,True,0.717,7,True,left,-0.16711,0.2822,1.0151,0.7329,1.7739,2.174,0.4002,A,0.065
94,0.50134,0.1,2,0.43449,0.29245,0.54312,94,2.11398,-0.31,-0.15876,0.34258,5,1D2U,1.0,True,0.684,6,False,left,0.08356,1.5154,2.0567,0.5413,0.2901,1.0737,0.7836,A,0.2
95,0.50134,0.1,1,0.33423,0.25067,0.42614,95,2.46493,0.9,0.45121,0.95255,5,lapse_rate,1.0,True,0.191,0,False,left,0.0,0.2351,1.3846,1.1495,1.7093,2.4095,0.7002,A,0.2
96,0.50134,0.1,2,0.24231,0.27574,0.42614,96,1.81318,-0.27,-0.13369,0.36765,5,1D2U,1.0,True,1.274,6,False,left,-0.08356,1.1219,1.6885,0.5666,0.1803,0.7974,0.6172,A,0.2
97,0.50134,0.1,1,0.27574,0.40943,0.8105,97,2.66546,0.33,0.16711,0.66845,5,2D1U,1.0,True,0.167,7,True,left,0.16711,0.1725,1.0391,0.8666,1.6634,2.5298,0.8664,A,0.2
98,0.50134,0.1,2,0.34258,0.33423,0.72694,98,2.27274,-0.27,-0.13369,0.36765,5,1D2U,2.0,False,0.217,6,False,right,0.25067,1.6887,2.2555,0.5668,0.1135,1.063,0.9495,A,0.2
99,0.50134,1.2,1,0.32587,0.33423,0.49298,99,2.60697,0.9,0.45121,0.95255,5,lapse_rate,2.0,False,1.914,0,False,right,-0.25067,0.2928,1.3096,1.0168,1.8933,2.2089,0.3157,A,0.065
100,0.50134,0.1,2,0.40107,0.35929,0.70188,100,2.60697,0.29,0.14205,0.64339,5,2D1U,2.0,True,2.017,7,False,right,-0.16711,1.5193,2.3611,0.8417,0.3856,0.9193,0.5337,A,0.2
101,0.50134,1.2,2,0.21725,0.45121,0.74365,101,1.93852,-0.95,-0.47627,0.02507,5,lapse_rate,1.0,True,0.741,0,False,left,0.08356,1.5014,1.593,0.0917,0.1432,0.7932,0.65,A,0.065
102,0.50134,0.1,1,0.32587,0.32587,0.5849,102,2.38137,0.29,0.14205,0.64339,5,2D1U,1.0,True,0.924,7,False,left,0.0,0.2266,1.0684,0.8418,1.5516,2.2519,0.7003,A,0.2
103,0.50134,0.1,1,0.2256,0.24231,0.71023,103,2.02206,-0.31,-0.15876,0.34258,5,1D2U,1.0,False,1.017,7,True,left,-0.08356,0.1225,0.6642,0.5416,1.3137,1.9305,0.6168,A,0.2
104,0.50134,1.2,2,0.41778,0.42614,0.56819,104,2.23932,-0.35,-0.17547,0.32587,5,1D2U,2.0,False,0.917,7,False,right,0.16711,1.5688,1.9604,0.3916,0.3021,1.0354,0.7332,A,0.065
105,0.50134,0.1,2,0.36765,0.31752,0.74365,105,1.95523,-0.95,-0.47627,0.02507,5,lapse_rate,1.0,True,1.267,0,False,left,0.25067,1.7366,1.962,0.2254,0.145,1.0948,0.9498,A,0.2
106,0.50134,1.2,2,0.26738,0.32587,0.71859,106,2.43986,0.25,0.12534,0.62668,5,2D1U,2.0,True,0.467,7,False,right,-0.25067,1.3577,2.0494,0.6917,0.3577,0.6747,0.3169,A,0.065
107,0.50134,0.1,1,0.20889,0.28409,0.83557,107,2.78244,0.9,0.45121,0.95255,5,lapse_rate,1.0,True,1.183,0,False,left,-0.16711,0.1121,1.2616,1.1495,2.078,2.6113,0.5333,A,0.2
108,0.50134,1.2,2,0.40943,0.38436,0.57654,108,2.49835,0.25,0.12534,0.62668,5,2D1U,2.0,True,0.442,7,False,right,0.08356,1.5243,2.2158,0.6915,0.3325,0.9825,0.65,A,0.065
109,0.50134,1.2,2,0.20889,0.43449,0.84392,109,2.2978,-0.39,-0.19218,0.30916,5,1D2U,1.0,True,0.625,7,False,left,0.0,1.5515,1.9262,0.3747,0.176,0.7431,0.567,A,0.065
110,0.50134,0.1,2,0.38436,0.26738,0.54312,110,2.64875,0.9,0.45121,0.95255,5,lapse_rate,2.0,True,1.792,0,False,right,-0.08356,1.3856,2.5356,1.15,0.3274,0.9438,0.6164,A,0.2
111,0.50134,1.2,2,0.36765,0.29245,0.65174,111,2.41479,0.21,0.10862,0.60161,5,2D1U,1.0,False,0.301,7,False,left,0.16711,1.5998,2.2669,0.6671,0.2504,0.9835,0.7331,A,0.065
112,0.50134,1.2,1,0.34258,0.20054,0.71859,112,2.07221,-0.39,-0.19218,0.30916,5,1D2U,1.0,False,0.624,7,False,left,0.25067,0.306,0.6802,0.3742,1.2393,2.0553,0.8161,A,0.065
113,0.50134,1.2,2,0.35929,0.38436,0.70188,113,2.89942,0.9,0.45121,0.95255,5,lapse_rate,2.0,True,0.113,0,False,right,-0.25067,1.43,2.4468,1.0168,0.4465,0.7637,0.3171,A,0.065
114,0.50134,1.2,1,0.37601,0.38436,0.86063,114,2.40643,-0.43,-0.21725,0.28409,5,1D2U,2.0,True,0.252,7,False,right,-0.16711,0.3399,0.6886,0.3487,1.5982,1.9977,0.3995,A,0.065
115,0.50134,0.1,1,0.28409,0.41778,0.85228,115,2.68217,0.25,0.12534,0.62668,5,2D1U,2.0,False,0.15,8,True,right,0.08356,0.1859,1.0115,0.8256,1.7193,2.5028,0.7835,A,0.2
116,0.50134,0.1,2,0.25903,0.44285,0.51805,116,1.74634,-0.95,-0.47627,0.02507,5,lapse_rate,1.0,True,0.3,0,False,left,0.0,1.2762,1.5011,0.2249,0.1595,0.8592,0.6996,A,0.2
117,0.50134,0.1,1,0.31752,0.40943,0.78543,117,2.65711,0.29,0.14205,0.64339,5,2D1U,2.0,False,1.251,8,False,right,-0.08356,0.2199,1.0619,0.8421,1.787,2.4036,0.6166,A,0.2
118,0.50134,0.1,1,0.2256,0.35094,0.60996,118,1.97193,-0.43,-0.21725,0.28409,5,1D2U,2.0,True,0.111,7,False,right,0.16711,0.1276,0.611,0.4834,1.0361,1.903,0.8669,A,0.2
119,0.50134,0.1,2,0.41778,0.40943,0.69352,119,2.69052,0.33,0.16711,0.66845,5,2D1U,2.0,True,0.458,8,False,right,0.25067,1.7353,2.6017,0.8665,0.1935,1.1433,0.9497,A,0.2
120,0.50134,1.2,2,0.29245,0.27574,0.55147,120,1.64607,-0.95,-0.47627,0.02507,5,lapse_rate,2.0,False,0.695,0,False,right,-0.25067,1.2143,1.3059,0.0916,0.3809,0.6977,0.3168,A,0.065
121,0.50134,0.1,2,0.43449,0.23396,0.62668,121,2.10563,-0.39,-0.19218,0.30916,5,1D2U,1.0,True,0.207,8,True,left,-0.16711,1.4768,1.9848,0.508,0.4181,0.9515,0.5334,A,0.2
122,0.50134,0.1,1,0.33423,0.40107,0.76037,122,2.66546,0.33,0.16711,0.66845,5,2D1U,2.0,False,0.208,8,False,right,0.08356,0.237,1.1036,0.8666,1.7202,2.5042,0.784,A,0.2
123,0.50134,0.1,2,0.23396,0.35094,0.52641,123,1.92181,-0.39,-0.19218,0.30916,5,1D2U,1.0,True,0.984,8,True,left,0.0,1.2558,1.764,0.5082,0.1305,0.8303,0.6998,A,0.2
124,0.50134,1.2,2,0.26738,0.43449,0.66845,124,1.89673,-0.95,-0.47627,0.02507,5,lapse_rate,1.0,True,0.275,0,False,left,-0.08356,1.3951,1.4866,0.0915,0.2785,0.7614,0.483,A,0.065
125,0.50134,1.2,1,0.30916,0.2256,0.86899,125,2.85764,0.9,0.45121,0.95255,5,lapse_rate,2.0,False,0.783,0,False,right,0.16711,0.2707,1.2873,1.0166,2.0371,2.7703,0.7332,A,0.065
126,0.50134,1.2,1,0.36765,0.20054,0.68516,126,2.43985,0.37,0.18382,0.68516,5,2D1U,1.0,True,0.325,8,False,left,0.25067,0.3349,1.0853,0.7504,1.6103,2.426,0.8157,A,0.065
127,0.50134,1.2,2,0.3008,0.23396,0.67681,127,2.03878,-0.35,-0.17547,0.32587,5,1D2U,2.0,False,0.275,8,False,right,-0.25067,1.3517,1.7433,0.3916,0.3933,0.7105,0.3171,A,0.065
128,0.50134,1.2,2,0.3008,0.3008,0.40943,128,1.82153,-0.39,-0.19218,0.30916,5,1D2U,1.0,True,0.274,9,True,left,-0.16711,1.1231,1.4983,0.3752,0.3483,0.7482,0.3999,A,0.065
129,0.50134,1.2,2,0.33423,0.34258,0.5849,129,2.44821,0.37,0.18382,0.68516,5,2D1U,2.0,True,0.257,8,False,right,0.08356,1.4614,2.2119,0.7505,0.2618,0.9119,0.6501,A,0.065
130,0.50134,0.1,2,0.2256,0.25903,0.55147,130,2.48999,0.9,0.45121,0.95255,5,lapse_rate,2.0,True,0.691,0,False,right,0.0,1.2781,2.4279,1.1498,0.1273,0.8281,0.7008,A,0.2
131,0.50134,1.2,1,0.25903,0.32587,0.64339,131,2.39808,0.33,0.16711,0.66845,5,2D1U,2.0,False,0.492,9,True,right,-0.08356,0.2261,0.9594,0.7333,1.61,2.0927,0.4828,A,0.065
132,0.50134,1.2,2,0.25067,0.30916,0.41778,132,1.50402,-0.95,-0.47627,0.02507,5,lapse_rate,1.0,True,0.374,0,False,left,0.16711,1.2497,1.3419,0.0922,0.1328,0.8668,0.734,A,0.065
133,0.50134,1.2,2,0.40943,0.25067,0.8857,133,2.3563,-0.39,-0.19218,0.30916,5,1D2U,2.0,False,0.5,9,True,right,0.25067,1.916,2.2907,0.3747,0.2489,1.0662,0.8173,A,0.065
134,0.50134,1.2,1,0.35929,0.30916,0.78543,134,2.64038,0.37,0.18382,0.68516,5,2D1U,2.0,False,1.54,10,True,right,-0.25067,0.3209,1.0714,0.7506,1.9466,2.2633,0.3167,A,0.065
135,0.50134,0.1,2,0.31752,0.34258,0.76037,135,1.94688,-0.95,-0.47627,0.02507,5,lapse_rate,1.0,True,0.366,0,False,left,-0.16711,1.4893,1.7149,0.2256,0.2979,0.8313,0.5334,A,0.2
136,0.50134,0.1,1,0.26738,0.2256,0.63503,136,1.91344,-0.43,-0.21725,0.28409,5,1D2U,2.0,True,0.114,9,False,right,0.08356,0.1703,0.6534,0.4831,1.1457,1.9333,0.7876,A,0.2
137,0.50134,0.1,1,0.41778,0.26738,0.48463,137,1.95522,-0.43,-0.21725,0.28409,5,1D2U,2.0,True,0.183,9,False,right,0.0,0.3141,0.797,0.4829,1.1806,1.8806,0.7,A,0.2
138,0.50134,0.1,2,0.38436,0.25067,0.65174,138,2.74066,0.9,0.45121,0.95255,5,lapse_rate,2.0,True,0.675,0,False,right,-0.08356,1.4915,2.6415,1.15,0.3248,0.9409,0.6161,A,0.2
139,0.50134,0.1,1,0.39272,0.35929,0.64339,139,2.59862,0.41,0.20889,0.70188,5,2D1U,2.0,False,0.7,10,False,right,0.16711,0.2878,1.1879,0.9001,1.6464,2.5127,0.8663,A,0.2
140,0.50134,0.1,2,0.29245,0.25067,0.76037,140,2.11399,-0.39,-0.19218,0.30916,5,1D2U,2.0,False,0.4,10,True,right,0.25067,1.6723,2.1889,0.5166,0.0646,1.0144,0.9497,A,0.2
141,0.50134,1.2,2,0.21725,0.41778,0.53476,141,1.6962,-0.95,-0.47627,0.02507,5,lapse_rate,1.0,True,0.649,0,False,left,-0.25067,1.1238,1.2154,0.0916,0.307,0.6241,0.3171,A,0.065
142,0.50134,0.1,2,0.40107,0.29245,0.68516,142,2.60696,0.45,0.2256,0.72694,5,2D1U,2.0,True,0.616,10,False,right,-0.16711,1.498,2.4226,0.9247,0.381,0.9144,0.5334,A,0.2
143,0.50134,1.2,1,0.25903,0.34258,0.45121,143,1.57923,-0.95,-0.47627,0.02507,5,lapse_rate,2.0,True,0.666,0,False,right,0.08356,0.2212,0.3133,0.0921,0.6876,1.3383,0.6507,A,0.065
144,0.50134,0.1,2,0.2256,0.29245,0.86063,144,2.60696,0.45,0.2256,0.72694,5,2D1U,2.0,True,0.125,10,False,right,0.0,1.5863,2.5107,0.9245,0.1276,0.8275,0.6999,A,0.2
145,0.50134,0.1,2,0.27574,0.3008,0.61832,145,1.98029,-0.43,-0.21725,0.28409,5,1D2U,2.0,False,1.024,11,True,right,-0.08356,1.3479,1.832,0.4841,0.2157,0.8314,0.6157,A,0.2
146,0.50134,0.1,1,0.45121,0.43449,0.76872,146,2.18083,-0.95,-0.47627,0.02507,5,lapse_rate,2.0,True,0.114,0,False,right,0.16711,0.3527,0.5778,0.2251,1.1612,2.0277,0.8665,A,0.2
147,0.50134,1.2,2,0.20889,0.21725,0.87735,147,2.50671,0.41,0.20889,0.70188,5,2D1U,2.0,True,0.842,11,True,right,0.25067,1.7108,2.4776,0.7669,0.0527,0.8687,0.816,A,0.065
148,0.50134,1.2,2,0.27574,0.25067,0.5849,148,1.88003,-0.47,-0.23396,0.26738,5,1D2U,1.0,True,0.384,11,False,left,-0.25067,1.2363,1.5694,0.333,0.3701,0.6864,0.3163,A,0.065
149,0.50134,1.2,2,0.21725,0.3008,0.53476,149,2.25603,0.41,0.20889,0.70188,5,2D1U,2.0,True,0.242,11,True,right,-0.16711,1.1652,1.9323,0.7671,0.2655,0.6655,0.3999,A,0.065
150,0.50134,0.1,2,0.23396,0.40107,0.71859,150,1.88003,-0.95,-0.47627,0.02507,5,lapse_rate,1.0,True,0.113,0,False,left,0.08356,1.4877,1.7121,0.2245,0.0881,0.8709,0.7827,A,0.2
151,0.50134,1.2,2,0.25067,0.24231,0.51805,151,1.77975,-0.47,-0.23396,0.26738,5,1D2U,2.0,False,1.125,11,False,right,0.0,1.2625,1.5955,0.3331,0.212,0.779,0.5669,A,0.065
152,0.50134,1.2,1,0.35094,0.28409,0.89406,152,2.27274,-0.51,-0.25903,0.24231,5,1D2U,2.0,True,0.259,11,False,right,-0.08356,0.3157,0.6244,0.3087,1.524,2.0073,0.4833,A,0.065
153,0.50134,1.2,2,0.25903,0.28409,0.55147,153,2.28109,0.37,0.18382,0.68516,5,2D1U,2.0,True,0.374,11,False,right,0.16711,1.3882,2.1388,0.7506,0.1387,0.8716,0.733,A,0.065
154,0.50134,1.2,2,0.29245,0.34258,0.8857,154,2.04714,-0.95,-0.47627,0.02507,5,lapse_rate,1.0,True,0.859,0,False,left,0.25067,1.7994,1.8918,0.0924,0.1329,0.95,0.8171,A,0.065
155,0.50134,1.2,2,0.34258,0.39272,0.67681,155,2.866,0.9,0.45121,0.95255,5,lapse_rate,2.0,True,0.112,0,False,right,-0.25067,1.3887,2.4053,1.0166,0.4307,0.7478,0.3171,A,0.065
156,0.50134,1.2,1,0.31752,0.20889,0.8105,156,2.52341,0.37,0.18382,0.68516,5,2D1U,2.0,False,0.308,11,False,right,-0.16711,0.2797,1.0293,0.7497,1.8877,2.2877,0.3999,A,0.065
157,0.50134,0.1,2,0.25067,0.23396,0.5097,157,1.73798,-0.51,-0.25903,0.24231,5,1D2U,1.0,True,0.45,11,False,left,0.08356,1.3026,1.7442,0.4416,0.1111,0.8943,0.7832,A,0.2
158,0.50134,0.1,2,0.44285,0.3008,0.89406,158,2.40643,-0.47,-0.23396,0.26738,5,1D2U,1.0,True,0.9,12,True,left,0.0,1.8365,2.3038,0.4673,0.3448,1.0447,0.6999,A,0.2
159,0.50134,0.1,1,0.31752,0.45121,0.8857,159,2.85765,0.41,0.20889,0.70188,5,2D1U,2.0,False,0.899,12,True,right,-0.08356,0.2133,1.1136,0.9003,1.9383,2.555,0.6167,A,0.2
160,0.50134,1.2,1,0.39272,0.23396,0.40943,160,2.49,0.9,0.45121,0.95255,5,lapse_rate,1.0,True,0.476,0,False,left,0.16711,0.3567,1.3733,1.0166,1.6651,2.3974,0.7322,A,0.065
161,0.50134,0.1,2,0.3008,0.40107,0.53476,161,2.46491,0.45,0.2256,0.72694,5,2D1U,1.0,False,1.234,12,False,left,0.25067,1.4564,2.3815,0.925,0.0737,1.0232,0.9495,A,0.2
162,0.50134,0.1,1,0.45121,0.25067,0.79379,162,2.26439,-0.47,-0.23396,0.26738,5,1D2U,1.0,False,0.75,12,True,left,-0.25067,0.3499,0.8165,0.4666,1.6332,2.0831,0.4499,A,0.2
163,0.50134,1.2,2,0.40943,0.24231,0.72694,163,1.90509,-0.95,-0.47627,0.02507,5,lapse_rate,1.0,True,0.67,0,False,left,-0.16711,1.5523,1.644,0.0917,0.4605,0.8601,0.3996,A,0.065
164,0.50134,0.1,2,0.38436,0.40943,0.76037,164,2.79915,0.49,0.24231,0.74365,5,2D1U,2.0,True,0.113,12,False,right,0.08356,1.6812,2.6228,0.9416,0.2393,1.0228,0.7835,A,0.2
165,0.50134,0.1,2,0.33423,0.3008,0.78543,165,2.87435,0.9,0.45121,0.95255,5,lapse_rate,2.0,True,0.308,0,False,right,0.0,1.614,2.7641,1.15,0.2305,0.9307,0.7002,A,0.2
166,0.50134,0.1,2,0.37601,0.24231,0.77708,166,2.13905,-0.51,-0.25903,0.24231,5,1D2U,1.0,True,0.158,13,True,left,-0.08356,1.6069,2.0482,0.4413,0.315,0.9318,0.6168,A,0.2
167,0.50134,1.2,2,0.35929,0.41778,0.8105,167,2.33122,-0.51,-0.25903,0.24231,5,1D2U,1.0,True,0.316,13,True,left,0.16711,1.7527,2.0609,0.3083,0.2444,0.9778,0.7334,A,0.065
168,0.50134,1.2,1,0.29245,0.25903,0.70188,168,2.49835,0.49,0.24231,0.74365,5,2D1U,2.0,False,0.116,12,False,right,0.25067,0.2574,1.065,0.8076,1.6072,2.4239,0.8166,A,0.065
169,0.50134,1.2,1,0.29245,0.30916,0.86063,169,1.98865,-0.95,-0.47627,0.02507,5,lapse_rate,1.0,False,0.3,0,False,left,-0.25067,0.2615,0.3535,0.092,1.3034,1.62,0.3167,A,0.065
170,0.50134,1.2,2,0.42614,0.31752,0.60996,170,2.62368,0.53,0.26738,0.76872,5,2D1U,2.0,True,0.59,12,False,right,-0.16711,1.4482,2.2812,0.8329,0.4722,0.8725,0.4003,A,0.065
171,0.50134,1.2,2,0.30916,0.25903,0.43449,171,1.7714,-0.47,-0.23396,0.26738,5,1D2U,2.0,False,1.217,14,True,right,0.08356,1.2854,1.6191,0.3336,0.2355,0.8858,0.6503,A,0.065
172,0.50134,0.1,1,0.29245,0.39272,0.40943,172,1.62101,-0.95,-0.47627,0.02507,5,lapse_rate,2.0,True,0.542,0,False,right,0.0,0.1909,0.4164,0.2255,0.725,1.4248,0.6998,A,0.2
173,0.50134,0.1,1,0.25903,0.40107,0.70188,173,2.81587,0.9,0.45121,0.95255,5,lapse_rate,2.0,False,2.084,0,False,right,-0.08356,0.1611,1.3109,1.1498,1.9527,2.5697,0.6171,A,0.2
174,0.50134,1.2,2,0.41778,0.34258,0.49298,174,2.5234,0.53,0.26738,0.76872,5,2D1U,2.0,True,0.483,12,False,right,0.16711,1.4939,2.3264,0.8325,0.3012,1.0352,0.734,A,0.065
175,0.50134,1.2,1,0.40943,0.29245,0.53476,175,1.98029,-0.51,-0.25903,0.24231,5,1D2U,2.0,True,0.775,15,True,right,0.25067,0.3773,0.6858,0.3085,1.0606,1.8773,0.8167,A,0.065
176,0.50134,0.1,1,0.20054,0.35929,0.74365,176,2.75737,0.9,0.45121,0.95255,5,lapse_rate,2.0,False,0.841,0,False,right,-0.25067,0.0995,1.25,1.1505,2.0166,2.4665,0.45,A,0.2
177,0.50134,1.2,1,0.44285,0.21725,0.79379,177,2.19754,-0.51,-0.25903,0.24231,5,1D2U,2.0,True,0.719,15,True,right,-0.16711,0.404,0.7123,0.3083,1.5541,1.954,0.3999,A,0.065
178,0.50134,0.1,1,0.32587,0.24231,0.54312,178,2.35629,0.49,0.24231,0.74365,5,2D1U,2.0,False,0.576,13,True,right,0.08356,0.2278,1.1692,0.9413,1.5697,2.3528,0.7831,A,0.2
179,0.50134,0.1,2,0.36765,0.39272,0.42614,179,1.95523,-0.47,-0.23396,0.26738,5,1D2U,2.0,False,0.468,16,True,right,0.0,1.2898,1.7566,0.4668,0.2642,0.9648,0.7006,A,0.2
180,0.50134,1.2,1,0.45121,0.25067,0.75201,180,2.90778,0.9,0.45121,0.95255,5,lapse_rate,1.0,True,0.501,0,False,left,-0.08356,0.4181,1.4341,1.0159,2.1924,2.6763,0.4839,A,0.065
181,0.50134,0.1,1,0.25903,0.35094,0.85228,181,2.73231,0.53,0.26738,0.76872,5,2D1U,1.0,True,1.183,14,True,left,0.16711,0.1572,1.1238,0.9666,1.7896,2.6571,0.8675,A,0.2
182,0.50134,0.1,1,0.33423,0.33423,0.6601,182,2.59862,0.53,0.26738,0.76872,5,2D1U,2.0,False,0.95,14,True,right,0.25067,0.2314,1.1978,0.9664,1.6311,2.581,0.9499,A,0.2
183,0.50134,1.2,2,0.33423,0.20054,0.76872,183,1.8299,-0.95,-0.47627,0.02507,5,lapse_rate,1.0,True,0.288,0,False,left,-0.25067,1.4778,1.5698,0.092,0.428,0.7448,0.3168,A,0.065
184,0.50134,0.1,2,0.25903,0.35094,0.55147,184,1.90509,-0.51,-0.25903,0.24231,5,1D2U,1.0,True,0.675,17,True,left,-0.16711,1.2286,1.6696,0.441,0.2451,0.7784,0.5333,A,0.2
185,0.50134,0.1,1,0.40107,0.35929,0.66845,185,2.17246,-0.51,-0.25903,0.24231,5,1D2U,2.0,True,0.659,17,True,right,0.08356,0.3023,0.7443,0.4421,1.2689,2.0518,0.7829,A,0.2
186,0.50134,0.1,1,0.45121,0.32587,0.61832,186,2.68217,0.57,0.28409,0.78543,5,2D1U,1.0,True,0.684,14,False,left,0.0,0.347,1.3303,0.9833,1.847,2.5468,0.6998,A,0.2
187,0.50134,0.1,2,0.34258,0.3008,0.82721,187,2.92448,0.9,0.45121,0.95255,5,lapse_rate,2.0,True,0.242,0,False,right,-0.08356,1.6248,2.7746,1.1498,0.2835,0.8993,0.6158,A,0.2
188,0.50134,1.2,2,0.25903,0.42614,0.75201,188,2.72395,0.57,0.28409,0.78543,5,2D1U,2.0,True,1.159,14,False,right,0.16711,1.5948,2.4447,0.8499,0.1444,0.8779,0.7335,A,0.065
189,0.50134,1.2,2,0.32587,0.20889,0.8857,189,2.18918,-0.47,-0.23396,0.26738,5,1D2U,1.0,True,0.375,18,True,left,0.25067,1.8304,2.1648,0.3345,0.1635,0.9803,0.8168,A,0.065
190,0.50134,1.2,1,0.35929,0.40943,0.57654,190,1.87167,-0.95,-0.47627,0.02507,5,lapse_rate,2.0,True,0.112,0,False,right,-0.25067,0.3267,0.4183,0.0916,1.0851,1.4016,0.3164,A,0.065
191,0.50134,0.1,2,0.20889,0.26738,0.72694,191,2.6571,0.9,0.45121,0.95255,5,lapse_rate,2.0,True,0.6,0,False,right,-0.16711,1.3523,2.5018,1.1496,0.1936,0.7276,0.534,A,0.2
192,0.50134,1.2,2,0.44285,0.23396,0.68516,192,2.13069,-0.47,-0.23396,0.26738,5,1D2U,1.0,True,0.274,18,True,left,0.08356,1.6655,1.999,0.3335,0.366,1.0153,0.6493,A,0.065
193,0.50134,1.2,1,0.21725,0.35094,0.80214,193,2.64039,0.53,0.26738,0.76872,5,2D1U,2.0,False,0.25,15,True,right,0.0,0.1823,1.0162,0.8339,1.7826,2.3487,0.5661,A,0.065
194,0.50134,0.1,2,0.25067,0.38436,0.79379,194,2.88271,0.9,0.45121,0.95255,5,lapse_rate,2.0,True,0.875,0,False,right,-0.08356,1.5012,2.6515,1.1504,0.1929,0.8094,0.6165,A,0.2
195,0.50134,1.2,2,0.40943,0.44285,0.5849,195,2.22261,-0.43,-0.21725,0.28409,5,1D2U,1.0,True,1.232,18,False,left,0.16711,1.5716,1.9217,0.3501,0.2883,1.0217,0.7334,A,0.065
196,0.50134,1.2,2,0.21725,0.41778,0.61832,196,2.54012,0.57,0.28409,0.78543,5,2D1U,2.0,True,0.113,16,True,right,0.25067,1.4542,2.304,0.8498,0.0551,0.8712,0.8161,A,0.065
197,0.50134,1.2,2,0.40943,0.20889,0.77708,197,2.84929,0.9,0.45121,0.95255,5,lapse_rate,2.0,True,0.399,0,False,right,-0.25067,1.5537,2.571,1.0173,0.496,0.8126,0.3166,A,0.065
198,0.50134,1.2,1,0.45121,0.24231,0.46792,198,1.94687,-0.43,-0.21725,0.28409,5,1D2U,2.0,True,0.424,18,False,right,-0.16711,0.4191,0.7691,0.35,1.2853,1.6857,0.4004,A,0.065
199,0.50134,0.1,2,0.27574,0.35929,0.71023,199,2.63203,0.57,0.28409,0.78543,5,2D1U,2.0,True,0.216,16,True,right,0.08356,1.5282,2.5108,0.9826,0.1367,0.9198,0.7831,A,0.2
200,0.50134,0.1,2,0.3008,0.3008,0.45121,200,2.32287,0.53,0.26738,0.76872,5,2D1U,2.0,True,0.708,17,True,right,0.0,1.2521,2.2191,0.967,0.202,0.9023,0.7003,A,0.2
201,0.50134,1.2,2,0.30916,0.24231,0.61832,201,1.6962,-0.95,-0.47627,0.02507,5,lapse_rate,1.0,True,0.882,0,False,left,-0.08356,1.3805,1.4719,0.0914,0.3129,0.7974,0.4845,A,0.065
202,0.50134,0.1,1,0.28409,0.23396,0.49298,202,1.82153,-0.39,-0.19218,0.30916,5,1D2U,2.0,True,0.966,18,False,right,0.16711,0.1787,0.6872,0.5086,0.9955,1.8621,0.8666,A,0.2
203,0.50134,0.1,2,0.35929,0.35094,0.61832,203,2.59861,0.53,0.26738,0.76872,5,2D1U,2.0,True,1.292,17,True,right,0.25067,1.6022,2.5684,0.9662,0.1356,1.085,0.9494,A,0.2
204,0.50134,0.1,2,0.23396,0.34258,0.84392,204,1.94687,-0.95,-0.47627,0.02507,5,lapse_rate,1.0,True,0.267,0,False,left,-0.25067,1.4527,1.6787,0.226,0.2617,0.7122,0.4505,A,0.2
205,0.50134,0.1,1,0.25903,0.2256,0.48463,205,1.77976,-0.39,-0.19218,0.30916,5,1D2U,2.0,True,1.274,18,False,right,-0.16711,0.1553,0.6638,0.5084,1.13,1.6639,0.5339,A,0.2
206,0.50134,0.1,2,0.40107,0.20054,0.82721,206,2.25603,-0.35,-0.17547,0.32587,5,1D2U,2.0,False,2.141,18,False,right,0.08356,1.7643,2.2973,0.5331,0.256,1.0391,0.7831,A,0.2
207,0.50134,1.2,2,0.25903,0.26738,0.47627,207,2.45657,0.9,0.45121,0.95255,5,lapse_rate,2.0,True,0.683,0,False,right,0.0,1.2344,2.2516,1.0172,0.2259,0.7929,0.567,A,0.065
208,0.50134,0.1,1,0.45121,0.21725,0.41778,208,2.33123,0.49,0.24231,0.74365,5,2D1U,1.0,True,1.208,17,False,left,-0.08356,0.3534,1.295,0.9417,1.6533,2.2699,0.6166,A,0.2
209,0.50134,0.1,2,0.35094,0.24231,0.69352,209,1.81318,-0.95,-0.47627,0.02507,5,lapse_rate,1.0,True,0.634,0,False,left,0.16711,1.627,1.8522,0.2252,0.1693,1.0355,0.8662,A,0.2
210,0.50134,1.2,1,0.41778,0.34258,0.53476,210,2.10562,-0.39,-0.19218,0.30916,5,1D2U,2.0,True,0.113,19,True,right,0.25067,0.3814,0.7563,0.375,1.1313,1.9481,0.8168,A,0.065
211,0.50134,1.2,1,0.37601,0.2256,0.55983,211,2.40643,0.49,0.24231,0.74365,5,2D1U,1.0,True,0.275,17,False,left,-0.25067,0.3397,1.1481,0.8083,1.798,2.1147,0.3168,A,0.065
212,0.50134,1.2,1,0.35929,0.43449,0.83557,212,2.85763,0.45,0.2256,0.72694,5,2D1U,2.0,False,0.306,17,False,right,-0.16711,0.3208,1.1128,0.792,1.9957,2.3959,0.4001,A,0.065
213,0.50134,1.2,2,0.41778,0.31752,0.69352,213,2.88271,0.9,0.45121,0.95255,5,lapse_rate,2.0,True,0.112,0,False,right,0.08356,1.6499,2.6667,1.0168,0.3412,0.9919,0.6507,A,0.065
214,0.50134,1.2,2,0.44285,0.43449,0.61832,214,2.30616,-0.39,-0.19218,0.30916,5,1D2U,2.0,False,0.534,19,True,right,0.0,1.5594,1.9341,0.3746,0.4098,0.9759,0.5661,A,0.065
215,0.50134,1.2,2,0.27574,0.42614,0.49298,215,2.64875,0.9,0.45121,0.95255,5,lapse_rate,2.0,True,0.525,0,False,right,-0.08356,1.2281,2.2449,1.0168,0.2866,0.7699,0.4833,A,0.065
216,0.50134,1.2,2,0.40107,0.41778,0.78543,216,2.84927,0.49,0.24231,0.74365,5,2D1U,2.0,True,0.114,18,True,right,0.16711,1.765,2.5733,0.8083,0.2821,1.0151,0.733,A,0.065
217,0.50134,1.2,2,0.42614,0.38436,0.74365,217,2.33958,-0.43,-0.21725,0.28409,5,1D2U,2.0,False,1.291,19,False,right,0.25067,1.7949,2.1453,0.3504,0.2699,1.0865,0.8167,A,0.065
218,0.50134,1.2,1,0.27574,0.24231,0.5849,218,1.87167,-0.47,-0.23396,0.26738,5,1D2U,2.0,True,0.409,19,False,right,-0.25067,0.2375,0.5709,0.3334,1.245,1.5634,0.3184,A,0.065
219,0.50134,0.1,2,0.39272,0.39272,0.63503,219,2.87436,0.9,0.45121,0.95255,5,lapse_rate,2.0,True,1.033,0,False,right,-0.16711,1.4382,2.5885,1.1503,0.372,0.9051,0.5331,A,0.2
220,0.50134,0.1,1,0.36765,0.21725,0.54312,220,2.37301,0.49,0.24231,0.74365,5,2D1U,1.0,True,0.141,18,True,left,0.08356,0.2664,1.2088,0.9424,1.6089,2.3925,0.7837,A,0.2
221,0.50134,0.1,1,0.20054,0.23396,0.8857,221,2.08892,-0.47,-0.23396,0.26738,5,1D2U,2.0,True,0.517,19,False,right,0.0,0.0962,0.5629,0.4667,1.3464,2.0465,0.7001,A,0.2
222,0.50134,0.1,2,0.43449,0.20054,0.77708,222,2.866,0.9,0.45121,0.95255,5,lapse_rate,2.0,True,0.216,0,False,right,-0.08356,1.6643,2.8135,1.1492,0.3726,0.9888,0.6162,A,0.2
223,0.50134,0.1,2,0.20889,0.27574,0.6601,223,2.37301,0.45,0.2256,0.72694,5,2D1U,2.0,True,0.45,19,True,right,0.16711,1.4481,2.3732,0.9252,0.023,0.8899,0.867,A,0.2
224,0.50134,0.1,1,0.31752,0.44285,0.49298,224,2.03878,-0.43,-0.21725,0.28409,5,1D2U,2.0,True,0.691,20,True,right,0.25067,0.2119,0.6959,0.484,0.9621,1.9123,0.9502,A,0.2
225,0.50134,0.1,1,0.34258,0.35929,0.42614,225,2.35629,0.45,0.2256,0.72694,5,2D1U,1.0,True,0.4,19,True,left,-0.25067,0.2454,1.1704,0.925,1.6205,2.07,0.4494,A,0.2
226,0.50134,1.2,1,0.38436,0.35929,0.68516,226,1.95522,-0.95,-0.47627,0.02507,5,lapse_rate,2.0,True,0.534,0,False,right,-0.16711,0.3449,0.4365,0.0916,1.1705,1.571,0.4005,A,0.065
227,0.50134,0.1,2,0.29245,0.3008,0.68516,227,2.48163,0.41,0.20889,0.70188,5,2D1U,1.0,False,1.175,19,False,left,0.08356,1.5197,2.4197,0.9,0.1536,0.9367,0.7831,A,0.2
228,0.50134,0.1,1,0.27574,0.20054,0.70188,228,1.96359,-0.43,-0.21725,0.28409,5,1D2U,2.0,True,0.824,20,True,right,0.0,0.1763,0.66,0.4837,1.2591,1.9596,0.7005,A,0.2
229,0.50134,0.1,2,0.41778,0.20889,0.52641,229,1.67949,-0.95,-0.47627,0.02507,5,lapse_rate,1.0,True,1.025,0,False,left,-0.08356,1.4031,1.6285,0.2254,0.3616,0.9778,0.6163,A,0.2
230,0.50134,1.2,2,0.32587,0.27574,0.55983,230,2.38972,0.45,0.2256,0.72694,5,2D1U,2.0,True,0.957,20,True,right,0.16711,1.4636,2.2557,0.7921,0.2061,0.9386,0.7325,A,0.065
231,0.50134,1.2,2,0.32587,0.40943,0.66845,231,2.21425,-0.39,-0.19218,0.30916,5,1D2U,1.0,True,2.1,20,False,left,0.25067,1.6179,1.9929,0.375,0.1679,0.9846,0.8167,A,0.065
232,0.50134,0.1,2,0.20889,0.32587,0.64339,232,1.70456,-0.95,-0.47627,0.02507,5,lapse_rate,1.0,True,1.142,0,False,left,-0.25067,1.2283,1.4533,0.225,0.2363,0.6865,0.4502,A,0.2
233,0.50134,1.2,2,0.40943,0.40107,0.43449,233,2.05549,-0.39,-0.19218,0.30916,5,1D2U,1.0,True,1.375,20,False,left,-0.16711,1.2557,1.6308,0.375,0.4563,0.8557,0.3994,A,0.065
234,0.50134,1.2,1,0.28409,0.35094,0.54312,234,2.40643,0.45,0.2256,0.72694,5,2D1U,1.0,True,0.316,20,True,left,0.08356,0.2479,1.0397,0.7918,1.5062,2.1561,0.6499,A,0.065
235,0.50134,0.1,1,0.40943,0.29245,0.49298,235,1.72127,-0.95,-0.47627,0.02507,5,lapse_rate,2.0,True,0.117,0,False,right,0.0,0.3092,0.5341,0.2249,0.9256,1.6257,0.7001,A,0.2
236,0.50134,1.2,1,0.35929,0.35094,0.8857,236,2.79915,0.41,0.20889,0.70188,5,2D1U,1.0,True,0.893,21,True,left,-0.08356,0.3277,1.0945,0.7667,1.9861,2.4696,0.4835,A,0.065
237,0.50134,1.2,1,0.39272,0.40943,0.5849,237,1.91346,-0.95,-0.47627,0.02507,5,lapse_rate,2.0,True,0.113,0,False,right,0.16711,0.3616,0.4532,0.0916,0.9197,1.653,0.7334,A,0.065
238,0.50134,1.2,1,0.45121,0.3008,0.59325,238,2.17247,-0.35,-0.17547,0.32587,5,1D2U,2.0,True,0.817,20,False,right,0.25067,0.4164,0.8083,0.3919,1.242,2.0583,0.8163,A,0.065
239,0.50134,1.2,2,0.29245,0.38436,0.46792,239,2.34795,0.41,0.20889,0.70188,5,2D1U,2.0,True,0.185,21,True,right,-0.25067,1.1365,1.9026,0.7661,0.3863,0.7028,0.3165,A,0.065
240,0.50134,0.1,2,0.39272,0.37601,0.83557,240,3.05819,0.9,0.45121,0.95255,5,lapse_rate,2.0,True,0.409,0,False,right,-0.16711,1.642,2.792,1.15,0.3757,0.9088,0.5331,A,0.2
241,0.50134,0.1,1,0.20054,0.31752,0.81886,241,2.16413,-0.35,-0.17547,0.32587,5,1D2U,2.0,True,1.208,20,False,right,0.08356,0.1027,0.6283,0.5256,1.3032,2.0858,0.7827,A,0.2
242,0.50134,1.2,2,0.20889,0.25067,0.45956,242,2.37301,0.9,0.45121,0.95255,5,lapse_rate,2.0,True,1.125,0,False,right,0.0,1.169,2.1859,1.0169,0.1772,0.744,0.5668,A,0.065
243,0.50134,0.1,2,0.24231,0.26738,0.62668,243,2.32287,0.37,0.18382,0.68516,5,2D1U,2.0,True,0.475,21,False,right,-0.08356,1.3277,2.2109,0.8832,0.1862,0.803,0.6168,A,0.2
244,0.50134,0.1,1,0.2256,0.40107,0.60161,244,2.0722,-0.31,-0.15876,0.34258,5,1D2U,1.0,False,0.11,20,False,left,0.16711,0.1217,0.6631,0.5415,1.0796,1.9464,0.8668,A,0.2
245,0.50134,0.1,2,0.29245,0.29245,0.52641,245,1.63772,-0.95,-0.47627,0.02507,5,lapse_rate,1.0,True,0.599,0,False,left,0.25067,1.4432,1.6759,0.2326,0.0677,1.0174,0.9497,A,0.2
246,0.50134,0.1,1,0.35929,0.36765,0.69352,246,2.60696,0.37,0.18382,0.68516,5,2D1U,1.0,True,1.324,21,False,left,-0.25067,0.2538,1.1366,0.8827,1.8539,2.3033,0.4494,A,0.2
247,0.50134,0.1,1,0.35094,0.41778,0.69352,247,2.28945,-0.35,-0.17547,0.32587,5,1D2U,2.0,True,0.141,21,True,right,-0.16711,0.2529,0.7781,0.5251,1.4527,1.986,0.5334,A,0.2
248,0.50134,0.1,1,0.29245,0.2256,0.50134,248,1.5458,-0.95,-0.47627,0.02507,5,lapse_rate,2.0,True,0.734,0,False,right,0.08356,0.1917,0.4171,0.2254,0.7755,1.5606,0.7851,A,0.2
249,0.50134,0.1,2,0.44285,0.43449,0.76872,249,2.81585,0.33,0.16711,0.66845,5,2D1U,2.0,True,0.592,21,False,right,0.0,1.7117,2.5784,0.8667,0.3447,1.0452,0.7005,A,0.2
250,0.50134,0.1,2,0.41778,0.44285,0.8105,250,2.49834,-0.35,-0.17547,0.32587,5,1D2U,1.0,True,1.15,21,True,left,-0.08356,1.6816,2.2066,0.525,0.3565,0.9732,0.6167,A,0.2
251,0.50134,1.2,1,0.42614,0.44285,0.52641,251,2.23932,-0.31,-0.15876,0.34258,5,1D2U,1.0,False,2.308,22,True,left,0.16711,0.3889,0.7964,0.4074,1.2055,1.9387,0.7332,A,0.065
252,0.50134,1.2,2,0.30916,0.28409,0.48463,252,2.24767,0.33,0.16711,0.66845,5,2D1U,2.0,True,0.283,21,False,right,0.25067,1.4141,2.1481,0.734,0.1486,0.9643,0.8157,A,0.065
253,0.50134,0.1,2,0.35929,0.41778,0.65174,253,1.95522,-0.95,-0.47627,0.02507,5,lapse_rate,1.0,True,1.825,0,False,left,-0.25067,1.3856,1.6106,0.225,0.3857,0.8356,0.45,A,0.2
254,0.50134,0.1,2,0.3008,0.25903,0.54312,254,2.55684,0.9,0.45121,0.95255,5,lapse_rate,2.0,True,0.125,0,False,right,-0.16711,1.2556,2.4054,1.1498,0.2803,0.8139,0.5336,A,0.2
255,0.50134,1.2,1,0.39272,0.24231,0.76872,255,2.54848,0.29,0.14205,0.64339,5,2D1U,2.0,False,0.267,21,False,right,0.08356,0.3616,1.0692,0.7076,1.7616,2.4112,0.6496,A,0.065
256,0.50134,1.2,1,0.40107,0.44285,0.49298,256,2.16411,-0.35,-0.17547,0.32587,5,1D2U,2.0,True,2.325,23,True,right,0.0,0.3636,0.7549,0.3913,1.2137,1.7798,0.5661,A,0.065
257,0.50134,1.2,1,0.23396,0.20889,0.46792,257,1.73798,-0.35,-0.17547,0.32587,5,1D2U,2.0,True,0.976,23,True,right,-0.08356,0.1982,0.5899,0.3917,1.065,1.5484,0.4834,A,0.065
258,0.50134,0.1,1,0.43449,0.24231,0.49298,258,1.69619,-0.95,-0.47627,0.02507,5,lapse_rate,2.0,True,0.792,0,False,right,0.16711,0.3352,0.5604,0.2253,0.8683,1.7359,0.8676,A,0.2
259,0.50134,1.2,1,0.20889,0.31752,0.8857,259,2.5819,0.33,0.16711,0.66845,5,2D1U,1.0,True,0.242,22,True,left,0.25067,0.1764,0.9088,0.7324,1.6347,2.451,0.8163,A,0.065
260,0.50134,1.2,2,0.41778,0.28409,0.54312,260,2.08891,-0.31,-0.15876,0.34258,5,1D2U,2.0,False,0.354,24,True,right,-0.25067,1.3293,1.7376,0.4082,0.5042,0.8202,0.316,A,0.065
261,0.50134,0.1,1,0.35094,0.3008,0.82721,261,2.00536,-0.95,-0.47627,0.02507,5,lapse_rate,2.0,True,0.217,0,False,right,-0.16711,0.251,0.4763,0.2253,1.2841,1.8177,0.5336,A,0.2
262,0.50134,0.1,1,0.41778,0.23396,0.54312,262,2.36465,0.33,0.16711,0.66845,5,2D1U,1.0,True,0.2,22,True,left,0.08356,0.3171,1.1837,0.8666,1.5836,2.3664,0.7828,A,0.2
263,0.50134,0.1,1,0.33423,0.43449,0.81886,263,2.41479,-0.35,-0.17547,0.32587,5,1D2U,2.0,True,0.114,25,True,right,0.0,0.2291,0.7538,0.5247,1.4707,2.17,0.6993,A,0.2
264,0.50134,1.2,2,0.24231,0.41778,0.5849,264,2.69888,0.9,0.45121,0.95255,5,lapse_rate,2.0,True,0.112,0,False,right,-0.08356,1.2844,2.3012,1.0168,0.2512,0.7346,0.4834,A,0.065
265,0.50134,0.1,2,0.35929,0.23396,0.84392,265,2.5819,0.29,0.14205,0.64339,5,2D1U,1.0,False,1.166,23,True,left,0.16711,1.7859,2.6276,0.8416,0.1772,1.0436,0.8664,A,0.2
266,0.50134,0.1,1,0.25067,0.42614,0.86899,266,2.71559,0.33,0.16711,0.66845,5,2D1U,2.0,False,1.833,24,True,right,0.25067,0.1456,1.0121,0.8664,1.6539,2.6039,0.95,A,0.2
267,0.50134,1.2,2,0.21725,0.39272,0.89406,267,2.95792,0.9,0.45121,0.95255,5,lapse_rate,2.0,True,0.445,0,False,right,-0.25067,1.4807,2.4976,1.0169,0.3063,0.6225,0.3161,A,0.065
268,0.50134,0.1,1,0.24231,0.25067,0.72694,268,2.04713,-0.35,-0.17547,0.32587,5,1D2U,2.0,True,1.842,25,True,right,-0.16711,0.1403,0.6659,0.5256,1.3742,1.9075,0.5333,A,0.2
269,0.50134,0.1,2,0.35929,0.37601,0.85228,269,2.77408,0.37,0.18382,0.68516,5,2D1U,1.0,False,0.225,24,False,left,0.08356,1.7507,2.6341,0.8834,0.2172,1.0007,0.7835,A,0.2
270,0.50134,0.1,2,0.37601,0.35929,0.47627,270,2.05549,-0.31,-0.15876,0.34258,5,1D2U,1.0,True,0.111,26,True,left,0.0,1.3455,1.8873,0.5418,0.2707,0.9699,0.6992,A,0.2
271,0.50134,0.1,1,0.25903,0.25903,0.8857,271,2.85765,0.9,0.45121,0.95255,5,lapse_rate,1.0,True,1.208,0,False,left,-0.08356,0.1535,1.3037,1.1501,2.1287,2.7456,0.6168,A,0.2
272,0.50134,1.2,2,0.21725,0.45121,0.86063,272,2.73231,0.41,0.20889,0.70188,5,2D1U,1.0,False,0.841,24,False,left,0.16711,1.6603,2.427,0.7668,0.1022,0.8356,0.7334,A,0.065
273,0.50134,1.2,2,0.39272,0.44285,0.83557,273,2.19755,-0.95,-0.47627,0.02507,5,lapse_rate,1.0,True,0.55,0,False,left,0.25067,1.8471,1.9386,0.0915,0.2295,1.0466,0.8171,A,0.065
274,0.50134,1.2,1,0.35094,0.36765,0.5097,274,2.07221,-0.31,-0.15876,0.34258,5,1D2U,2.0,True,0.295,26,True,right,-0.25067,0.3189,0.727,0.4081,1.3271,1.6432,0.316,A,0.065
275,0.50134,1.2,1,0.29245,0.21725,0.79379,275,2.53177,0.45,0.2256,0.72694,5,2D1U,1.0,True,0.417,24,False,left,-0.16711,0.2557,1.0487,0.793,1.8901,2.2903,0.4002,A,0.065
276,0.50134,1.2,1,0.25903,0.35094,0.68516,276,1.82154,-0.95,-0.47627,0.02507,5,lapse_rate,2.0,True,0.283,0,False,right,0.08356,0.2226,0.3142,0.0916,0.9224,1.5724,0.65,A,0.065
277,0.50134,1.2,1,0.37601,0.2256,0.76872,277,2.23932,-0.27,-0.13369,0.36765,5,1D2U,2.0,True,1.067,26,False,right,0.0,0.3376,0.771,0.4334,1.5044,2.071,0.5666,A,0.065
278,0.50134,1.2,2,0.23396,0.33423,0.72694,278,2.74902,0.9,0.45121,0.95255,5,lapse_rate,2.0,True,0.111,0,False,right,-0.08356,1.4156,2.432,1.0164,0.2407,0.7236,0.4829,A,0.065
279,0.50134,1.2,1,0.3008,0.42614,0.5097,279,2.46492,0.45,0.2256,0.72694,5,2D1U,2.0,False,2.3,24,False,right,0.16711,0.266,1.0577,0.7917,1.4493,2.183,0.7337,A,0.065
280,0.50134,1.2,2,0.29245,0.28409,0.42614,280,1.87167,-0.27,-0.13369,0.36765,5,1D2U,2.0,False,1.159,26,False,right,0.25067,1.3449,1.7781,0.4332,0.136,0.9531,0.8171,A,0.065
281,0.50134,1.2,1,0.29245,0.2256,0.68516,281,2.4482,0.49,0.24231,0.74365,5,2D1U,1.0,True,1.338,24,False,left,-0.25067,0.2567,1.0646,0.8079,1.8401,2.1566,0.3165,A,0.065
282,0.50134,0.1,1,0.20889,0.36765,0.69352,282,2.72395,0.9,0.45121,0.95255,5,lapse_rate,1.0,True,1.209,0,False,left,-0.16711,0.1054,1.2556,1.1502,1.9302,2.4635,0.5333,A,0.2
283,0.50134,0.1,1,0.25903,0.34258,0.5097,283,1.95523,-0.31,-0.15876,0.34258,5,1D2U,1.0,False,0.651,27,True,left,0.08356,0.1591,0.7009,0.5418,1.0677,1.851,0.7832,A,0.2
284,0.50134,0.1,2,0.36765,0.3008,0.65174,284,2.1474,-0.35,-0.17547,0.32587,5,1D2U,1.0,True,1.017,27,False,left,0.0,1.515,2.0402,0.5253,0.2652,0.9654,0.7002,A,0.2
285,0.50134,0.1,2,0.35929,0.23396,0.86899,285,2.70723,0.49,0.24231,0.74365,5,2D1U,2.0,True,1.049,24,False,right,-0.08356,1.6805,2.6213,0.9409,0.2972,0.9136,0.6164,A,0.2
286,0.50134,1.2,1,0.25903,0.24231,0.60161,286,1.62936,-0.95,-0.47627,0.02507,5,lapse_rate,2.0,True,0.217,0,False,right,0.16711,0.2213,0.3127,0.0915,0.7962,1.5293,0.7331,A,0.065
287,0.50134,0.1,2,0.25067,0.28409,0.82721,287,1.88838,-0.95,-0.47627,0.02507,5,lapse_rate,1.0,True,0.4,0,False,left,0.25067,1.7017,1.935,0.2333,0.0265,0.9768,0.9503,A,0.2
288,0.50134,0.1,1,0.23396,0.40107,0.74365,288,2.20589,-0.35,-0.17547,0.32587,5,1D2U,2.0,True,0.525,27,False,right,-0.25067,0.135,0.6601,0.5251,1.4266,1.8765,0.45,A,0.2
289,0.50134,0.1,2,0.43449,0.38436,0.86063,289,2.90776,0.45,0.2256,0.72694,5,2D1U,2.0,True,0.942,25,True,right,-0.16711,1.7077,2.6322,0.9245,0.4161,0.9493,0.5332,A,0.2
290,0.50134,0.1,1,0.35929,0.41778,0.89406,290,2.19754,-0.95,-0.47627,0.02507,5,lapse_rate,2.0,True,0.114,0,False,right,0.08356,0.255,0.4797,0.2247,1.2305,2.0139,0.7834,A,0.2
291,0.50134,0.1,2,0.40107,0.30916,0.79379,291,2.34794,-0.31,-0.15876,0.34258,5,1D2U,1.0,True,0.533,28,True,left,0.0,1.693,2.2347,0.5416,0.3015,1.0014,0.6999,A,0.2
292,0.50134,0.1,1,0.35094,0.33423,0.5849,292,2.49835,0.45,0.2256,0.72694,5,2D1U,2.0,False,0.45,25,True,right,-0.08356,0.2484,1.1729,0.9245,1.6979,2.3144,0.6165,A,0.2
293,0.50134,1.2,2,0.36765,0.28409,0.90241,293,2.39807,-0.31,-0.15876,0.34258,5,1D2U,1.0,True,1.025,28,True,left,0.16711,1.8461,2.2549,0.4088,0.2463,0.9795,0.7333,A,0.065
294,0.50134,1.2,2,0.24231,0.40943,0.72694,294,2.62367,0.49,0.24231,0.74365,5,2D1U,2.0,True,0.925,26,True,right,0.25067,1.5894,2.3974,0.808,0.0811,0.8974,0.8163,A,0.065
295,0.50134,0.1,1,0.35094,0.24231,0.87735,295,2.92449,0.9,0.45121,0.95255,5,lapse_rate,2.0,False,0.833,0,False,right,-0.25067,0.2512,1.4004,1.1492,2.3012,2.7513,0.4501,A,0.2
296,0.50134,1.2,2,0.2256,0.24231,0.76037,296,2.47327,0.49,0.24231,0.74365,5,2D1U,2.0,True,0.439,26,True,right,-0.16711,1.3954,2.2039,0.8086,0.271,0.6709,0.3999,A,0.065
297,0.50134,1.2,1,0.29245,0.2256,0.5849,297,2.55684,0.9,0.45121,0.95255,5,lapse_rate,2.0,False,0.776,0,False,right,0.08356,0.2534,1.27,1.0167,1.779,2.4291,0.6501,A,0.065
298,0.50134,1.2,1,0.20889,0.34258,0.86063,298,2.28109,-0.27,-0.13369,0.36765,5,1D2U,2.0,True,0.683,28,False,right,0.0,0.1771,0.6107,0.4336,1.4356,2.0024,0.5668,A,0.065
299,0.50134,0.1,2,0.33423,0.31752,0.8857,299,2.06386,-0.95,-0.47627,0.02507,5,lapse_rate,1.0,True,0.184,0,False,left,-0.08356,1.6717,1.8961,0.2243,0.2722,0.8881,0.6158,A,0.2
300,0.50134,1.2,2,0.36765,0.40107,0.49298,300,2.13069,-0.27,-0.13369,0.36765,5,1D2U,1.0,True,0.113,28,False,left,0.16711,1.4414,1.8747,0.4333,0.2499,0.983,0.7331,A,0.065
301,0.50134,1.2,1,0.27574,0.39272,0.74365,301,2.64039,0.45,0.2256,0.72694,5,2D1U,2.0,False,0.113,27,True,right,0.25067,0.2378,1.0292,0.7914,1.6124,2.4292,0.8168,A,0.065
302,0.50134,1.2,2,0.29245,0.3008,0.57654,302,1.6962,-0.95,-0.47627,0.02507,5,lapse_rate,1.0,True,0.43,0,False,left,-0.25067,1.2388,1.3307,0.0918,0.3799,0.697,0.3171,A,0.065
303,0.50134,1.2,1,0.35094,0.40943,0.7353,303,2.74066,0.49,0.24231,0.74365,5,2D1U,1.0,True,1.217,28,True,left,-0.16711,0.3128,1.1209,0.8081,1.9048,2.3042,0.3994,A,0.065
304,0.50134,0.1,1,0.24231,0.32587,0.80214,304,2.25602,-0.23,-0.11698,0.38436,5,1D2U,2.0,True,0.113,28,False,right,0.08356,0.1387,0.722,0.5833,1.3806,2.1636,0.7831,A,0.2
305,0.50134,0.1,2,0.36765,0.25903,0.60161,305,1.7547,-0.95,-0.47627,0.02507,5,lapse_rate,1.0,True,0.842,0,False,left,0.0,1.4622,1.6873,0.2251,0.2623,0.9621,0.6998,A,0.2
306,0.50134,0.1,2,0.41778,0.42614,0.72694,306,2.45656,-0.23,-0.11698,0.38436,5,1D2U,2.0,False,1.808,28,False,right,-0.08356,1.5957,2.1786,0.5829,0.3541,0.9708,0.6167,A,0.2
307,0.50134,0.1,1,0.25067,0.31752,0.80214,307,2.61532,0.49,0.24231,0.74365,5,2D1U,2.0,False,0.549,28,True,right,0.16711,0.1485,1.0899,0.9414,1.7068,2.5726,0.8659,A,0.2
308,0.50134,0.1,2,0.31752,0.40943,1.01104,308,3.00805,0.53,0.26738,0.76872,5,2D1U,2.0,True,0.426,28,False,right,0.25067,1.9478,2.9149,0.9671,0.0894,1.0403,0.9509,A,0.2
309,0.50134,0.1,2,0.35929,0.40107,0.63503,309,2.84928,0.9,0.45121,0.95255,5,lapse_rate,2.0,True,0.491,0,False,right,-0.25067,1.3627,2.5123,1.1497,0.3791,0.8291,0.45,A,0.2
310,0.50134,0.1,2,0.20889,0.27574,0.69352,310,2.04714,-0.27,-0.13369,0.36765,5,1D2U,1.0,True,0.516,29,True,left,-0.16711,1.3148,1.8811,0.5663,0.1898,0.7233,0.5335,A,0.2
311,0.50134,1.2,2,0.24231,0.20054,0.53476,311,1.50402,-0.95,-0.47627,0.02507,5,lapse_rate,1.0,True,0.366,0,False,left,0.08356,1.312,1.4038,0.0918,0.162,0.8114,0.6495,A,0.065
312,0.50134,0.1,2,0.40107,0.31752,0.42614,312,2.01372,-0.27,-0.13369,0.36765,5,1D2U,2.0,False,2.409,29,True,right,0.0,1.328,1.8948,0.5668,0.3033,1.0032,0.6999,A,0.2
313,0.50134,0.1,2,0.45121,0.35929,0.85228,313,2.93284,0.53,0.26738,0.76872,5,2D1U,2.0,True,1.167,28,False,right,-0.08356,1.7593,2.7255,0.9662,0.3923,1.0091,0.6168,A,0.2
314,0.50134,1.2,1,0.33423,0.40943,0.43449,314,2.02207,-0.31,-0.15876,0.34258,5,1D2U,2.0,True,1.093,29,False,right,0.16711,0.2984,0.7068,0.4083,1.0235,1.757,0.7334,A,0.065
315,0.50134,1.2,1,0.23396,0.44285,0.60996,315,2.74066,0.9,0.45121,0.95255,5,lapse_rate,2.0,False,1.358,0,False,right,0.25067,0.1952,1.2122,1.017,1.6621,2.4787,0.8167,A,0.065
316,0.50134,1.2,2,0.40107,0.23396,0.81886,316,2.69888,0.49,0.24231,0.74365,5,2D1U,2.0,True,0.238,29,True,right,-0.25067,1.5945,2.4033,0.8088,0.4945,0.8105,0.316,A,0.065
317,0.50134,1.2,1,0.27574,0.27574,0.55147,317,1.94687,-0.31,-0.15876,0.34258,5,1D2U,2.0,True,0.28,29,False,right,-0.16711,0.2398,0.6483,0.4085,1.2477,1.6479,0.4002,A,0.065
318,0.50134,1.2,1,0.45121,0.28409,0.44285,318,2.42314,0.49,0.24231,0.74365,5,2D1U,2.0,False,1.0,29,True,right,0.08356,0.419,1.2275,0.8085,1.5942,2.2441,0.6499,A,0.065
319,0.50134,1.2,1,0.25903,0.34258,0.71023,319,2.76573,0.9,0.45121,0.95255,5,lapse_rate,1.0,True,0.458,0,False,left,0.0,0.2272,1.2437,1.0164,1.9188,2.4853,0.5665,A,0.065
320,0.50134,1.2,1,0.35929,0.3008,0.47627,320,2.59025,0.9,0.45121,0.95255,5,lapse_rate,1.0,True,1.176,0,False,left,-0.08356,0.3224,1.3389,1.0165,1.8224,2.3057,0.4832,A,0.065
321,0.50134,1.2,2,0.41778,0.20054,0.45121,321,2.33959,0.53,0.26738,0.76872,5,2D1U,2.0,True,0.441,30,True,right,0.16711,1.4469,2.28,0.8331,0.2967,1.0302,0.7335,A,0.065
322,0.50134,1.2,1,0.25903,0.30916,0.60161,322,2.03879,-0.27,-0.13369,0.36765,5,1D2U,2.0,True,0.224,30,True,right,0.25067,0.2219,0.6556,0.4337,1.097,1.9137,0.8167,A,0.065
323,0.50134,1.2,1,0.41778,0.24231,0.41778,323,2.34793,0.53,0.26738,0.76872,5,2D1U,2.0,False,0.786,30,True,right,-0.25067,0.3834,1.2163,0.8328,1.7252,2.0419,0.3167,A,0.065
324,0.50134,0.1,1,0.23396,0.25903,0.71023,324,2.07221,-0.27,-0.13369,0.36765,5,1D2U,2.0,True,0.292,30,True,right,-0.16711,0.1344,0.7015,0.5671,1.3937,1.9261,0.5325,A,0.2
325,0.50134,1.2,2,0.31752,0.44285,0.50134,325,2.7156,0.9,0.45121,0.95255,5,lapse_rate,2.0,True,0.113,0,False,right,0.08356,1.3609,2.378,1.0171,0.2438,0.8941,0.6504,A,0.065
326,0.50134,0.1,1,0.30916,0.28409,0.76037,326,2.23932,-0.23,-0.11698,0.38436,5,1D2U,2.0,True,0.133,30,False,right,0.0,0.2114,0.7947,0.5832,1.4539,2.1536,0.6998,A,0.2
327,0.50134,0.1,1,0.43449,0.33423,0.52641,327,2.5819,0.57,0.28409,0.78543,5,2D1U,1.0,True,1.283,30,False,left,-0.08356,0.331,1.315,0.984,1.7816,2.3979,0.6162,A,0.2
328,0.50134,0.1,1,0.20054,0.33423,0.85228,328,1.91346,-0.95,-0.47627,0.02507,5,lapse_rate,2.0,True,0.116,0,False,right,0.16711,0.0994,0.3243,0.225,0.9912,1.8578,0.8666,A,0.2
329,0.50134,0.1,1,0.40107,0.40107,0.64339,329,2.7323,0.57,0.28409,0.78543,5,2D1U,1.0,True,1.492,30,False,left,0.25067,0.2992,1.2828,0.9836,1.6996,2.6493,0.9497,A,0.2
330,0.50134,0.1,2,0.27574,0.36765,0.8105,330,2.33959,-0.23,-0.11698,0.38436,5,1D2U,1.0,True,0.441,30,False,left,-0.25067,1.4539,2.0373,0.5835,0.2958,0.7456,0.4498,A,0.2
331,0.50134,0.1,2,0.44285,0.25067,0.76872,331,1.98865,-0.95,-0.47627,0.02507,5,lapse_rate,1.0,True,0.891,0,False,left,-0.16711,1.6206,1.8455,0.2249,0.4206,0.9539,0.5333,A,0.2
332,0.50134,1.2,1,0.23396,0.29245,0.62668,332,2.60698,0.9,0.45121,0.95255,5,lapse_rate,1.0,True,0.8,0,False,left,0.08356,0.2023,1.2191,1.0168,1.7688,2.4188,0.65,A,0.065
333,0.50134,0.1,1,0.20054,0.37601,0.54312,333,2.02208,-0.19,-0.09191,0.40107,5,1D2U,1.0,False,1.358,30,False,left,0.0,0.1012,0.7018,0.6006,1.143,1.8428,0.6998,A,0.2
334,0.50134,0.1,2,0.29245,0.45121,0.5097,334,2.52342,0.53,0.26738,0.76872,5,2D1U,2.0,True,0.258,31,True,right,-0.08356,1.255,2.2214,0.9663,0.2296,0.8464,0.6167,A,0.2
335,0.50134,1.2,1,0.35929,0.25903,0.8105,335,2.31452,-0.23,-0.11698,0.38436,5,1D2U,2.0,True,0.583,31,True,right,0.16711,0.3215,0.7708,0.4493,1.463,2.1964,0.7334,A,0.065
336,0.50134,1.2,1,0.38436,0.24231,0.74365,336,2.64038,0.53,0.26738,0.76872,5,2D1U,1.0,True,0.633,31,True,left,0.25067,0.3455,1.179,0.8334,1.7629,2.5788,0.8159,A,0.065
337,0.50134,1.2,1,0.26738,0.3008,0.47627,337,1.57086,-0.95,-0.47627,0.02507,5,lapse_rate,2.0,True,0.688,0,False,right,-0.25067,0.2324,0.324,0.0917,0.8904,1.2073,0.317,A,0.065
338,0.50134,1.2,2,0.42614,0.27574,0.76037,338,2.70724,0.49,0.24231,0.74365,5,2D1U,2.0,True,1.919,31,False,right,-0.16711,1.6013,2.409,0.8076,0.4758,0.8759,0.4,A,0.065
339,0.50134,1.2,2,0.34258,0.38436,0.87735,339,2.1307,-0.95,-0.47627,0.02507,5,lapse_rate,1.0,True,0.783,0,False,left,0.08356,1.7563,1.8489,0.0926,0.2648,0.9155,0.6506,A,0.065
340,0.50134,1.2,2,0.37601,0.35094,0.6601,340,2.27275,-0.23,-0.11698,0.38436,5,1D2U,2.0,False,0.35,31,True,right,0.0,1.5344,1.9844,0.45,0.3424,0.9096,0.5672,A,0.065
341,0.50134,0.1,1,0.44285,0.26738,0.49298,341,1.72962,-0.95,-0.47627,0.02507,5,lapse_rate,2.0,True,1.242,0,False,right,-0.08356,0.3446,0.5697,0.2251,1.0026,1.6189,0.6163,A,0.2
342,0.50134,1.2,1,0.20889,0.42614,0.76872,342,2.27274,-0.27,-0.13369,0.36765,5,1D2U,2.0,True,1.2,31,False,right,0.16711,0.1775,0.6109,0.4334,1.2609,1.9946,0.7337,A,0.065
343,0.50134,1.2,1,0.20889,0.42614,0.44285,343,2.32287,0.49,0.24231,0.74365,5,2D1U,2.0,False,1.2,31,False,right,0.25067,0.1785,0.9868,0.8083,1.27,2.0867,0.8167,A,0.065
344,0.50134,1.2,2,0.36765,0.24231,0.89406,344,2.37301,-0.27,-0.13369,0.36765,5,1D2U,1.0,True,2.241,31,False,left,-0.25067,1.6287,2.0622,0.4335,0.4538,0.7704,0.3166,A,0.065
345,0.50134,0.1,2,0.44285,0.33423,0.65174,345,2.69888,0.53,0.26738,0.76872,5,2D1U,2.0,True,0.491,32,True,right,-0.16711,1.5059,2.4723,0.9665,0.4223,0.9559,0.5336,A,0.2
346,0.50134,1.2,1,0.25903,0.32587,0.76037,346,2.79916,0.9,0.45121,0.95255,5,lapse_rate,1.0,True,0.4,0,False,left,0.08356,0.2232,1.2402,1.017,1.9236,2.5736,0.65,A,0.065
347,0.50134,0.1,1,0.36765,0.39272,0.71859,347,2.36466,-0.23,-0.11698,0.38436,5,1D2U,2.0,True,0.317,32,True,right,0.0,0.2641,0.8479,0.5839,1.4646,2.1645,0.6999,A,0.2
348,0.50134,0.1,2,0.2256,0.29245,0.72694,348,2.51505,0.53,0.26738,0.76872,5,2D1U,2.0,True,0.6,32,True,right,-0.08356,1.4053,2.3713,0.966,0.1632,0.7791,0.6159,A,0.2
349,0.50134,1.2,1,0.25067,0.27574,0.41778,349,1.4706,-0.95,-0.47627,0.02507,5,lapse_rate,2.0,True,0.359,0,False,right,0.16711,0.2149,0.3063,0.0913,0.6063,1.3396,0.7333,A,0.065
350,0.50134,1.2,2,0.20889,0.33423,0.80214,350,1.87167,-0.95,-0.47627,0.02507,5,lapse_rate,1.0,True,0.233,0,False,left,0.25067,1.6303,1.7221,0.0917,0.0473,0.8635,0.8163,A,0.065
351,0.50134,0.1,2,0.21725,0.2256,0.71023,351,2.39807,0.49,0.24231,0.74365,5,2D1U,2.0,True,0.257,33,True,right,-0.25067,1.2953,2.2371,0.9418,0.2368,0.6871,0.4502,A,0.2
352,0.50134,0.1,1,0.43449,0.32587,0.66845,352,2.31451,-0.23,-0.11698,0.38436,5,1D2U,2.0,True,0.125,32,True,right,-0.16711,0.3306,0.9139,0.5833,1.564,2.0966,0.5326,A,0.2
353,0.50134,0.1,2,0.20889,0.26738,0.62668,353,2.55684,0.9,0.45121,0.95255,5,lapse_rate,2.0,True,0.125,0,False,right,0.08356,1.3728,2.5231,1.1502,0.064,0.8472,0.7832,A,0.2
354,0.50134,0.1,2,0.29245,0.20054,0.76037,354,2.49835,0.49,0.24231,0.74365,5,2D1U,2.0,True,0.113,33,True,right,0.0,1.5521,2.4938,0.9417,0.1936,0.8932,0.6996,A,0.2
355,0.50134,0.1,2,0.39272,0.34258,0.55983,355,2.19754,-0.19,-0.09191,0.40107,5,1D2U,1.0,True,0.112,32,False,left,-0.08356,1.4059,2.0065,0.6005,0.3308,0.9476,0.6167,A,0.2
356,0.50134,1.2,2,0.35094,0.35929,0.71023,356,2.64874,0.45,0.2256,0.72694,5,2D1U,2.0,True,0.259,33,False,right,0.16711,1.6435,2.4348,0.7913,0.235,0.9681,0.7331,A,0.065
357,0.50134,1.2,2,0.39272,0.25067,0.74365,357,2.28945,-0.19,-0.09191,0.40107,5,1D2U,1.0,True,0.692,32,False,left,0.25067,1.7595,2.2267,0.4672,0.234,1.0507,0.8166,A,0.065
358,0.50134,1.2,2,0.45121,0.29245,0.8857,358,3.08325,0.9,0.45121,0.95255,5,lapse_rate,2.0,True,0.462,0,False,right,-0.25067,1.71,2.727,1.017,0.5431,0.8598,0.3167,A,0.065
359,0.50134,1.2,2,0.34258,0.20054,0.61832,359,2.38972,0.45,0.2256,0.72694,5,2D1U,2.0,True,0.39,33,False,right,-0.16711,1.3764,2.1681,0.7916,0.3928,0.7927,0.3999,A,0.065
360,0.50134,1.2,1,0.25903,0.43449,0.76037,360,2.38137,-0.15,-0.0752,0.42614,5,1D2U,2.0,True,0.558,32,False,right,0.08356,0.2278,0.7195,0.4917,1.4031,2.0527,0.6495,A,0.065
361,0.50134,1.2,1,0.31752,0.3008,0.86063,361,2.00536,-0.95,-0.47627,0.02507,5,lapse_rate,2.0,True,0.112,0,False,right,0.0,0.2849,0.3765,0.0916,1.2015,1.7681,0.5667,A,0.065
362,0.50134,1.2,2,0.34258,0.3008,0.8857,362,2.7323,0.41,0.20889,0.70188,5,2D1U,2.0,True,1.558,33,False,right,-0.08356,1.6832,2.4498,0.7666,0.3496,0.833,0.4834,A,0.065
363,0.50134,1.2,2,0.29245,0.27574,0.42614,363,1.92181,-0.15,-0.0752,0.42614,5,1D2U,1.0,True,0.112,32,False,left,0.16711,1.3024,1.7941,0.4917,0.1773,0.9107,0.7335,A,0.065
364,0.50134,1.2,1,0.44285,0.42614,0.89406,364,3.21694,0.9,0.45121,0.95255,5,lapse_rate,1.0,True,0.95,0,False,left,0.25067,0.4057,1.4224,1.0167,2.1557,2.9717,0.816,A,0.065
365,0.50134,1.2,2,0.26738,0.33423,0.76872,365,2.57355,0.41,0.20889,0.70188,5,2D1U,1.0,False,1.958,33,False,left,-0.25067,1.4114,2.178,0.7666,0.3614,0.6786,0.3172,A,0.065
366,0.50134,1.2,2,0.31752,0.31752,0.59325,366,1.7547,-0.95,-0.47627,0.02507,5,lapse_rate,1.0,True,0.424,0,False,left,-0.16711,1.3268,1.4186,0.0918,0.3688,0.768,0.3992,A,0.065
367,0.50134,0.1,1,0.30916,0.40107,0.8105,367,2.46492,-0.11,-0.05849,0.44285,5,1D2U,2.0,True,0.366,32,False,right,0.08356,0.2049,0.8471,0.6422,1.5134,2.297,0.7836,A,0.2
368,0.50134,0.1,1,0.25067,0.44285,0.68516,368,2.32287,-0.11,-0.05849,0.44285,5,1D2U,2.0,True,0.45,32,False,right,0.0,0.1465,0.7888,0.6423,1.372,2.0724,0.7004,A,0.2
369,0.50134,0.1,1,0.40107,0.26738,0.70188,369,1.89674,-0.95,-0.47627,0.02507,5,lapse_rate,2.0,True,0.217,0,False,right,-0.08356,0.2986,0.5234,0.2248,1.1651,1.7817,0.6166,A,0.2
370,0.50134,0.1,1,0.41778,0.24231,0.44285,370,2.33122,0.45,0.2256,0.72694,5,2D1U,1.0,True,0.649,34,True,left,0.16711,0.3156,1.2415,0.9259,1.5,2.3668,0.8668,A,0.2
371,0.50134,0.1,2,0.39272,0.38436,0.7353,371,2.74066,0.45,0.2256,0.72694,5,2D1U,2.0,True,0.484,34,True,right,0.25067,1.7484,2.6732,0.9248,0.1649,1.1147,0.9498,A,0.2
372,0.50134,0.1,1,0.35929,0.40943,0.63503,372,1.93016,-0.95,-0.47627,0.02507,5,lapse_rate,2.0,True,0.616,0,False,right,-0.25067,0.2556,0.4812,0.2257,1.1394,1.5893,0.45,A,0.2
373,0.50134,0.1,1,0.20889,0.21725,0.74365,373,2.13905,-0.07,-0.03342,0.46792,5,1D2U,1.0,False,0.716,32,False,left,-0.16711,0.1059,0.772,0.6662,1.4974,2.0308,0.5334,A,0.2
374,0.50134,0.1,1,0.25903,0.41778,0.62668,374,2.50671,0.41,0.20889,0.70188,5,2D1U,1.0,True,0.617,35,True,left,0.08356,0.1545,1.0545,0.9001,1.5377,2.3212,0.7835,A,0.2
375,0.50134,0.1,1,0.21725,0.23396,0.89406,375,1.87168,-0.95,-0.47627,0.02507,5,lapse_rate,2.0,True,0.425,0,False,right,0.0,0.1201,0.3452,0.2252,1.1368,1.8368,0.7,A,0.2
376,0.50134,0.1,2,0.25067,0.29245,0.7353,376,2.22261,-0.11,-0.05849,0.44285,5,1D2U,2.0,False,0.734,33,True,right,-0.08356,1.4388,2.0802,0.6414,0.1887,0.8053,0.6166,A,0.2
377,0.50134,1.2,2,0.27574,0.26738,0.83557,377,1.9051,-0.95,-0.47627,0.02507,5,lapse_rate,1.0,True,0.451,0,False,left,0.16711,1.6885,1.7805,0.092,0.1551,0.8885,0.7335,A,0.065
378,0.50134,1.2,1,0.30916,0.27574,0.53476,378,2.32288,0.41,0.20889,0.70188,5,2D1U,1.0,True,0.817,35,True,left,0.25067,0.2761,1.0437,0.7677,1.4188,2.2356,0.8168,A,0.065
379,0.50134,1.2,1,0.34258,0.39272,0.5849,379,2.24768,-0.15,-0.0752,0.42614,5,1D2U,2.0,True,1.921,33,False,right,-0.25067,0.3096,0.8011,0.4915,1.4764,1.7931,0.3167,A,0.065
380,0.50134,1.2,1,0.39272,0.42614,0.71023,380,2.45657,-0.15,-0.0752,0.42614,5,1D2U,2.0,True,0.218,33,False,right,-0.16711,0.361,0.8518,0.4908,1.6107,2.0106,0.3999,A,0.065
381,0.50134,1.2,1,0.45121,0.40107,0.71859,381,3.02476,0.9,0.45121,0.95255,5,lapse_rate,1.0,True,0.409,0,False,left,0.08356,0.4195,1.436,1.0165,2.0777,2.7276,0.6499,A,0.065
382,0.50134,1.2,2,0.43449,0.2256,0.56819,382,2.41478,0.37,0.18382,0.68516,5,2D1U,2.0,True,24.383,35,False,right,0.0,1.5014,2.2509,0.7495,0.401,0.9676,0.5665,A,0.065
383,0.50134,0.1,1,0.25903,0.31752,0.43449,383,2.46493,0.9,0.45121,0.95255,5,lapse_rate,1.0,True,0.233,0,False,left,-0.08356,0.1598,1.31,1.1501,1.6847,2.3014,0.6167,A,0.2
384,0.50134,1.2,1,0.29245,0.37601,0.71859,384,2.57355,0.37,0.18382,0.68516,5,2D1U,1.0,True,0.113,35,False,left,0.16711,0.2597,1.01,0.7503,1.61,2.343,0.733,A,0.065
385,0.50134,1.2,2,0.40943,0.42614,0.75201,385,2.53177,-0.11,-0.05849,0.44285,5,1D2U,2.0,False,0.233,34,True,right,0.25067,1.787,2.2952,0.5082,0.2534,1.0702,0.8168,A,0.065
386,0.50134,1.2,1,0.40943,0.43449,0.43449,386,2.20589,-0.15,-0.0752,0.42614,5,1D2U,1.0,False,0.112,35,True,left,-0.25067,0.3723,0.864,0.4917,1.3891,1.7057,0.3165,A,0.065
387,0.50134,1.2,2,0.35094,0.43449,0.89406,387,2.2059,-0.95,-0.47627,0.02507,5,lapse_rate,1.0,True,0.126,0,False,left,-0.16711,1.6567,1.7482,0.0915,0.3992,0.7983,0.3991,A,0.065
388,0.50134,0.1,2,0.3008,0.31752,0.83557,388,2.62368,0.33,0.16711,0.66845,5,2D1U,2.0,True,0.225,35,False,right,0.08356,1.6763,2.5429,0.8666,0.1597,0.9425,0.7827,A,0.2
389,0.50134,0.1,2,0.35929,0.3008,0.8105,389,2.373,-0.19,-0.09191,0.40107,5,1D2U,2.0,False,0.113,35,False,right,0.0,1.6646,2.2647,0.6001,0.2562,0.9562,0.7,A,0.2
390,0.50134,0.1,2,0.39272,0.38436,0.82721,390,2.77408,0.33,0.16711,0.66845,5,2D1U,2.0,True,0.142,35,False,right,-0.08356,1.6724,2.5389,0.8666,0.3308,0.9472,0.6164,A,0.2
391,0.50134,1.2,1,0.42614,0.29245,0.64339,391,1.88839,-0.95,-0.47627,0.02507,5,lapse_rate,2.0,True,1.576,0,False,right,0.16711,0.3877,0.4796,0.0919,1.0044,1.7376,0.7332,A,0.065
392,0.50134,0.1,2,0.29245,0.39272,0.65174,392,2.7908,0.9,0.45121,0.95255,5,lapse_rate,2.0,True,2.674,0,False,right,0.25067,1.5651,2.7154,1.1503,0.0643,1.0155,0.9511,A,0.2
393,0.50134,0.1,1,0.25067,0.42614,0.5849,393,2.14741,-0.23,-0.11698,0.38436,5,1D2U,1.0,False,1.992,35,False,left,-0.25067,0.1489,0.7315,0.5827,1.3404,1.7905,0.4501,A,0.2
394,0.50134,0.1,1,0.42614,0.42614,0.71023,394,2.70724,0.29,0.14205,0.64339,5,2D1U,1.0,True,0.485,35,False,left,-0.16711,0.325,1.1664,0.8415,1.8583,2.3919,0.5336,A,0.2
395,0.50134,0.1,1,0.25067,0.3008,0.76872,395,2.46492,0.29,0.14205,0.64339,5,2D1U,1.0,True,0.641,35,False,left,0.08356,0.1487,0.9904,0.8417,1.6154,2.3987,0.7834,A,0.2
396,0.50134,0.1,2,0.44285,0.37601,0.80214,396,2.48999,-0.27,-0.13369,0.36765,5,1D2U,1.0,True,0.734,35,False,left,0.0,1.7429,2.31,0.5671,0.343,1.0431,0.7001,A,0.2
397,0.50134,0.1,1,0.30916,0.27574,0.55983,397,1.67114,-0.95,-0.47627,0.02507,5,lapse_rate,2.0,True,0.114,0,False,right,-0.08356,0.2055,0.4303,0.2248,0.9298,1.547,0.6172,A,0.2
398,0.50134,1.2,2,0.45121,0.38436,0.54312,398,2.50671,0.25,0.12534,0.62668,5,2D1U,2.0,True,0.492,35,False,right,0.16711,1.5779,2.2696,0.6917,0.3359,1.0698,0.7338,A,0.065
399,0.50134,0.1,2,0.31752,0.31752,0.92748,399,2.08893,-0.95,-0.47627,0.02507,5,lapse_rate,1.0,True,0.5,0,False,left,0.25067,1.8679,2.0926,0.2247,0.0932,1.043,0.9498,A,0.2
400,0.50134,1.2,2,0.32587,0.24231,0.63503,400,2.0722,-0.27,-0.13369,0.36765,5,1D2U,1.0,True,0.355,35,False,left,-0.25067,1.3353,1.7687,0.4335,0.4187,0.7348,0.3161,A,0.065
401,0.50134,1.2,2,0.29245,0.31752,0.67681,401,1.81319,-0.95,-0.47627,0.02507,5,lapse_rate,1.0,True,0.3,0,False,left,-0.16711,1.3843,1.4762,0.0919,0.3426,0.7426,0.4,A,0.065
402,0.50134,1.2,1,0.25903,0.26738,0.59325,402,2.24768,0.25,0.12534,0.62668,5,2D1U,2.0,False,0.113,35,False,right,0.08356,0.2229,0.9155,0.6926,1.4313,2.0813,0.65,A,0.065
403,0.50134,1.2,1,0.27574,0.35094,0.86063,403,2.37301,-0.23,-0.11698,0.38436,5,1D2U,2.0,True,0.125,36,True,right,0.0,0.2451,0.695,0.45,1.5206,2.0863,0.5657,A,0.065
404,0.50134,1.2,1,0.33423,0.21725,0.70188,404,2.13906,-0.23,-0.11698,0.38436,5,1D2U,2.0,True,1.342,36,True,right,-0.08356,0.3035,0.7529,0.4494,1.4619,1.9452,0.4833,A,0.065
405,0.50134,1.2,2,0.36765,0.40943,0.65174,405,2.57355,0.29,0.14205,0.64339,5,2D1U,2.0,True,0.141,36,True,right,0.16711,1.5971,2.3057,0.7086,0.2472,0.9804,0.7332,A,0.065
406,0.50134,1.2,1,0.42614,0.28409,0.8857,406,3.04982,0.9,0.45121,0.95255,5,lapse_rate,1.0,True,0.425,0,False,left,0.25067,0.3911,1.4077,1.0166,2.1324,2.9494,0.817,A,0.065
407,0.50134,1.2,1,0.2256,0.24231,0.82721,407,2.43985,0.29,0.14205,0.64339,5,2D1U,2.0,False,0.349,36,True,right,-0.25067,0.1889,0.8974,0.7085,1.8143,2.1305,0.3162,A,0.065
408,0.50134,1.2,1,0.35929,0.40943,0.40943,408,2.63204,0.9,0.45121,0.95255,5,lapse_rate,1.0,True,0.865,0,False,left,-0.16711,0.3231,1.34,1.017,1.7984,2.1977,0.3992,A,0.065
409,0.50134,0.1,1,0.2256,0.33423,0.55147,409,2.01371,-0.19,-0.09191,0.40107,5,1D2U,2.0,True,0.125,36,False,right,0.08356,0.1234,0.7236,0.6002,1.1318,1.9151,0.7833,A,0.2
410,0.50134,1.2,1,0.30916,0.41778,0.72694,410,1.98029,-0.95,-0.47627,0.02507,5,lapse_rate,2.0,True,0.114,0,False,right,0.0,0.2742,0.3659,0.0917,1.0576,1.6247,0.5671,A,0.065
411,0.50134,0.1,2,0.28409,0.32587,0.45121,411,2.23096,0.33,0.16711,0.66845,5,2D1U,2.0,True,0.741,36,False,right,-0.08356,1.1893,2.0566,0.8673,0.2229,0.8398,0.6169,A,0.2
412,0.50134,0.1,1,0.40107,0.31752,0.69352,412,2.31452,-0.19,-0.09191,0.40107,5,1D2U,2.0,True,0.533,36,False,right,0.16711,0.303,0.9029,0.5999,1.4113,2.2773,0.866,A,0.2
413,0.50134,0.1,2,0.35929,0.33423,0.78543,413,2.00536,-0.95,-0.47627,0.02507,5,lapse_rate,1.0,True,4.167,0,False,left,0.25067,1.7643,1.9891,0.2248,0.1303,1.0804,0.9501,A,0.2
414,0.50134,0.1,1,0.42614,0.35929,0.8105,414,2.76572,0.33,0.16711,0.66845,5,2D1U,1.0,True,0.617,36,False,left,-0.25067,0.3224,1.1894,0.867,2.0227,2.4729,0.4501,A,0.2
415,0.50134,0.1,2,0.3008,0.41778,0.43449,415,2.08055,-0.15,-0.0752,0.42614,5,1D2U,2.0,False,0.475,36,False,right,-0.16711,1.1514,1.7763,0.6249,0.2846,0.8179,0.5333,A,0.2
416,0.50134,0.1,1,0.34258,0.40943,0.61832,416,2.27274,-0.19,-0.09191,0.40107,5,1D2U,2.0,True,0.115,37,True,right,0.08356,0.2448,0.845,0.6002,1.3197,2.1028,0.7831,A,0.2
417,0.50134,0.1,2,0.20889,0.25903,0.71023,417,2.32288,0.29,0.14205,0.64339,5,2D1U,2.0,True,0.408,37,True,right,0.0,1.4137,2.2548,0.8411,0.106,0.8052,0.6992,A,0.2
418,0.50134,1.2,1,0.30916,0.33423,0.7353,418,2.83258,0.9,0.45121,0.95255,5,lapse_rate,1.0,True,1.275,0,False,left,-0.08356,0.2762,1.2932,1.017,2.0343,2.5177,0.4834,A,0.065
419,0.50134,1.2,2,0.26738,0.45121,0.59325,419,2.45657,0.29,0.14205,0.64339,5,2D1U,2.0,True,0.326,37,True,right,0.16711,1.4422,2.1507,0.7085,0.1501,0.884,0.7338,A,0.065
420,0.50134,0.1,2,0.5097,0.33423,1.07788,420,3.3757,0.9,0.45121,0.95255,5,lapse_rate,2.0,True,0.891,0,False,right,0.25067,2.2111,3.3602,1.1491,0.2853,1.2349,0.9496,A,0.2
421,0.50134,1.2,2,0.27574,0.20054,0.60161,421,1.9803,-0.19,-0.09191,0.40107,5,1D2U,2.0,False,0.272,37,True,right,-0.25067,1.2487,1.7154,0.4667,0.3658,0.6825,0.3167,A,0.065
422,0.50134,1.2,2,0.35094,0.25903,0.69352,422,1.8299,-0.95,-0.47627,0.02507,5,lapse_rate,1.0,True,0.309,0,False,left,-0.16711,1.4556,1.5473,0.0917,0.3975,0.7973,0.3999,A,0.065
423,0.50134,1.2,2,0.39272,0.30916,0.85228,423,2.43986,-0.23,-0.11698,0.38436,5,1D2U,2.0,False,1.583,37,False,right,0.08356,1.781,2.2312,0.4502,0.3141,0.964,0.6499,A,0.065
424,0.50134,1.2,1,0.36765,0.43449,0.41778,424,2.34794,0.25,0.12534,0.62668,5,2D1U,1.0,True,0.234,37,False,left,0.0,0.3302,1.0219,0.6918,1.405,1.972,0.567,A,0.065
425,0.50134,0.1,1,0.30916,0.43449,0.62668,425,1.89674,-0.95,-0.47627,0.02507,5,lapse_rate,2.0,True,0.2,0,False,right,-0.08356,0.2072,0.4318,0.2246,0.9991,1.6148,0.6157,A,0.2
426,0.50134,1.2,2,0.40107,0.25903,0.5097,426,2.29782,0.25,0.12534,0.62668,5,2D1U,1.0,False,0.301,37,False,left,0.16711,1.4931,2.1848,0.6917,0.2847,1.0184,0.7337,A,0.065
427,0.50134,1.2,1,0.3008,0.25067,0.46792,427,1.88838,-0.27,-0.13369,0.36765,5,1D2U,2.0,True,0.325,37,False,right,0.25067,0.2632,0.6971,0.4339,1.005,1.8216,0.8166,A,0.065
428,0.50134,1.2,1,0.39272,0.25903,0.64339,428,2.74903,0.9,0.45121,0.95255,5,lapse_rate,1.0,True,0.383,0,False,left,-0.25067,0.3599,1.377,1.0172,2.1103,2.427,0.3166,A,0.065
429,0.50134,1.2,2,0.21725,0.27574,0.50134,429,1.86332,-0.27,-0.13369,0.36765,5,1D2U,1.0,True,0.459,37,False,left,-0.16711,1.1298,1.5632,0.4334,0.2632,0.6632,0.4,A,0.065
430,0.50134,0.1,2,0.2256,0.31752,0.64339,430,2.33124,0.29,0.14205,0.64339,5,2D1U,2.0,True,0.113,38,True,right,0.08356,1.4098,2.2513,0.8416,0.0852,0.8677,0.7826,A,0.2
431,0.50134,0.1,1,0.39272,0.45121,0.6601,431,2.64876,0.29,0.14205,0.64339,5,2D1U,1.0,True,0.9,38,True,left,0.0,0.2895,1.131,0.8415,1.6895,2.3892,0.6997,A,0.2
432,0.50134,1.2,2,0.3008,0.33423,0.50134,432,1.66278,-0.95,-0.47627,0.02507,5,lapse_rate,1.0,True,0.526,0,False,left,-0.08356,1.2594,1.3514,0.092,0.3102,0.7931,0.4829,A,0.065
433,0.50134,0.1,2,0.24231,0.42614,0.78543,433,2.33958,-0.23,-0.11698,0.38436,5,1D2U,1.0,True,2.95,38,True,left,0.16711,1.6067,2.1896,0.5829,0.0564,0.9233,0.8669,A,0.2
434,0.50134,0.1,1,0.64339,0.31752,0.86063,434,3.27543,0.9,0.45121,0.95255,5,lapse_rate,1.0,True,1.017,0,False,left,0.25067,0.5392,1.6893,1.1501,2.3224,3.2727,0.9503,A,0.2
435,0.50134,0.1,1,0.29245,0.35929,0.63503,435,2.41479,0.25,0.12534,0.62668,5,2D1U,1.0,True,0.758,39,True,left,-0.25067,0.1879,1.0134,0.8255,1.6716,2.1215,0.4499,A,0.2
436,0.50134,0.1,1,0.42614,0.31752,0.55147,436,2.18083,-0.23,-0.11698,0.38436,5,1D2U,2.0,True,0.741,38,True,right,-0.16711,0.3232,0.907,0.5838,1.44,1.9736,0.5336,A,0.2
437,0.50134,0.1,1,0.36765,0.38436,0.79379,437,2.67382,0.25,0.12534,0.62668,5,2D1U,2.0,False,0.682,39,True,right,0.08356,0.2696,1.0947,0.8251,1.7449,2.5281,0.7832,A,0.2
438,0.50134,0.1,1,0.30916,0.43449,0.45121,438,1.72127,-0.95,-0.47627,0.02507,5,lapse_rate,2.0,True,0.113,0,False,right,0.0,0.21,0.4362,0.2262,0.7861,1.4861,0.7001,A,0.2
439,0.50134,0.1,1,0.42614,0.31752,0.8857,439,2.53177,-0.19,-0.09191,0.40107,5,1D2U,2.0,True,1.083,38,False,right,-0.08356,0.3222,0.9216,0.5994,1.747,2.3632,0.6162,A,0.2
440,0.50134,1.2,1,0.27574,0.26738,0.62668,440,1.69621,-0.95,-0.47627,0.02507,5,lapse_rate,2.0,True,0.358,0,False,right,0.16711,0.2374,0.3287,0.0913,0.8366,1.5707,0.7341,A,0.065
441,0.50134,1.2,1,0.27574,0.37601,0.50134,441,2.29782,0.29,0.14205,0.64339,5,2D1U,2.0,False,0.592,40,True,right,0.25067,0.2394,0.948,0.7086,1.2901,2.1063,0.8162,A,0.065
442,0.50134,1.2,2,0.35929,0.32587,0.8857,442,2.47327,-0.19,-0.09191,0.40107,5,1D2U,2.0,False,0.261,38,False,right,-0.25067,1.6166,2.0834,0.4668,0.45,0.7667,0.3168,A,0.065
443,0.50134,1.2,2,0.44285,0.25067,0.5849,443,1.80483,-0.95,-0.47627,0.02507,5,lapse_rate,2.0,False,0.412,0,False,right,-0.16711,1.4438,1.5354,0.0916,0.494,0.8938,0.3998,A,0.065
444,0.50134,1.2,2,0.40943,0.35929,0.57654,444,2.23096,-0.23,-0.11698,0.38436,5,1D2U,1.0,True,1.442,39,True,left,0.08356,1.5233,1.973,0.4497,0.3314,0.9815,0.6501,A,0.065
445,0.50134,1.2,1,0.2256,0.24231,0.70188,445,2.33958,0.33,0.16711,0.66845,5,2D1U,2.0,False,1.275,40,False,right,0.0,0.1933,0.9268,0.7335,1.5933,2.1601,0.5667,A,0.065
446,0.50134,0.1,2,0.44285,0.24231,0.61832,446,2.75737,0.9,0.45121,0.95255,5,lapse_rate,2.0,True,0.15,0,False,right,-0.08356,1.515,2.6645,1.1495,0.381,0.9975,0.6165,A,0.2
447,0.50134,1.2,2,0.33423,0.40943,0.54312,447,2.47328,0.37,0.18382,0.68516,5,2D1U,2.0,True,0.175,40,False,right,0.16711,1.4548,2.2049,0.7501,0.2132,0.9464,0.7332,A,0.065
448,0.50134,1.2,1,0.37601,0.41778,0.43449,448,2.11398,-0.23,-0.11698,0.38436,5,1D2U,2.0,True,0.409,39,True,right,0.25067,0.344,0.7941,0.4502,1.0685,1.8856,0.8171,A,0.065
449,0.50134,1.2,2,0.42614,0.36765,0.89406,449,2.87435,0.37,0.18382,0.68516,5,2D1U,2.0,True,0.273,40,False,right,-0.25067,1.6889,2.4388,0.7499,0.514,0.8306,0.3167,A,0.065
450,0.50134,0.1,2,0.24231,0.33423,0.85228,450,2.33123,-0.19,-0.09191,0.40107,5,1D2U,1.0,True,0.825,40,True,left,-0.16711,1.5093,2.1092,0.5999,0.226,0.7593,0.5333,A,0.2
451,0.50134,1.2,2,0.28409,0.39272,0.66845,451,2.79915,0.9,0.45121,0.95255,5,lapse_rate,2.0,True,0.15,0,False,right,0.08356,1.4901,2.5069,1.0168,0.2068,0.8568,0.6501,A,0.065
452,0.50134,0.1,2,0.41778,0.31752,0.63503,452,2.27274,-0.19,-0.09191,0.40107,5,1D2U,1.0,True,0.391,40,True,left,0.0,1.5481,2.1481,0.5999,0.3149,1.0149,0.7,A,0.2
453,0.50134,1.2,2,0.41778,0.30916,0.85228,453,2.10563,-0.95,-0.47627,0.02507,5,lapse_rate,1.0,True,0.5,0,False,left,-0.08356,1.7214,1.8129,0.0915,0.4211,0.9041,0.483,A,0.065
454,0.50134,0.1,2,0.32587,0.35094,0.55147,454,2.39807,0.33,0.16711,0.66845,5,2D1U,2.0,True,0.458,41,True,right,0.16711,1.4557,2.3226,0.8669,0.1394,1.0063,0.8669,A,0.2
455,0.50134,0.1,1,0.33423,0.41778,0.74365,455,2.94955,0.9,0.45121,0.95255,5,lapse_rate,1.0,True,0.115,0,False,left,0.25067,0.2297,1.3804,1.1507,1.8976,2.8469,0.9494,A,0.2
456,0.50134,0.1,2,0.3008,0.25067,0.56819,456,2.04714,-0.15,-0.0752,0.42614,5,1D2U,2.0,False,0.266,40,False,right,-0.25067,1.2442,1.8693,0.6251,0.328,0.7779,0.4499,A,0.2
457,0.50134,0.1,1,0.30916,0.26738,0.42614,457,2.17247,0.33,0.16711,0.66845,5,2D1U,1.0,True,0.408,41,True,left,-0.16711,0.212,1.0784,0.8665,1.487,2.0204,0.5334,A,0.2
458,0.50134,0.1,1,0.39272,0.33423,0.50134,458,2.1307,-0.19,-0.09191,0.40107,5,1D2U,2.0,True,0.483,41,True,right,0.08356,0.2933,0.8934,0.6001,1.2516,2.035,0.7833,A,0.2
459,0.50134,0.1,2,0.40943,0.35094,0.52641,459,2.74067,0.9,0.45121,0.95255,5,lapse_rate,2.0,True,0.113,0,False,right,0.0,1.4317,2.5817,1.1501,0.3067,1.0064,0.6997,A,0.2
460,0.50134,0.1,1,0.41778,0.31752,0.55147,460,2.4315,0.29,0.14205,0.64339,5,2D1U,1.0,True,0.112,41,False,left,-0.08356,0.3184,1.16,0.8416,1.6519,2.2683,0.6164,A,0.2
461,0.50134,1.2,2,0.32587,0.2256,0.85228,461,2.30616,-0.19,-0.09191,0.40107,5,1D2U,2.0,False,0.392,41,True,right,0.16711,1.7584,2.2249,0.4665,0.2081,0.9415,0.7334,A,0.065
462,0.50134,1.2,1,0.39272,0.35094,0.6601,462,2.54849,0.29,0.14205,0.64339,5,2D1U,1.0,True,0.691,41,False,left,0.25067,0.3569,1.0651,0.7082,1.5653,2.3819,0.8166,A,0.065
463,0.50134,0.1,2,0.25903,0.35094,0.78543,463,2.84929,0.9,0.45121,0.95255,5,lapse_rate,1.0,False,0.55,0,False,left,-0.25067,1.419,2.5685,1.1495,0.2852,0.7345,0.4493,A,0.2
464,0.50134,1.2,1,0.38436,0.35929,0.53476,464,2.7323,0.9,0.45121,0.95255,5,lapse_rate,1.0,True,2.715,0,False,left,-0.16711,0.3529,1.3696,1.0167,1.953,2.3529,0.4,A,0.065
465,0.50134,1.2,1,0.39272,0.3008,0.55147,465,2.37301,0.25,0.12534,0.62668,5,2D1U,1.0,True,1.409,41,False,left,0.08356,0.3538,1.0456,0.6918,1.52,2.1708,0.6508,A,0.065
466,0.50134,1.2,2,0.29245,0.26738,0.51805,466,1.96358,-0.23,-0.11698,0.38436,5,1D2U,1.0,True,0.792,41,False,left,0.0,1.3053,1.755,0.4497,0.2555,0.8218,0.5663,A,0.065
467,0.50134,1.2,1,0.35929,0.42614,0.70188,467,2.37301,-0.23,-0.11698,0.38436,5,1D2U,2.0,True,0.2,41,False,right,-0.08356,0.3235,0.773,0.4495,1.4817,1.9643,0.4826,A,0.065
468,0.50134,1.2,2,0.2256,0.35094,0.45121,468,2.48164,0.9,0.45121,0.95255,5,lapse_rate,2.0,True,0.358,0,False,right,0.16711,1.2562,2.2732,1.0169,0.1064,0.8396,0.7332,A,0.065
469,0.50134,1.2,1,0.33423,0.42614,0.54312,469,2.43151,0.25,0.12534,0.62668,5,2D1U,1.0,True,0.259,41,False,left,0.25067,0.298,0.9901,0.692,1.3736,2.1908,0.8172,A,0.065
470,0.50134,1.2,2,0.21725,0.36765,0.74365,470,2.23096,-0.19,-0.09191,0.40107,5,1D2U,1.0,True,0.551,42,True,left,-0.25067,1.3308,1.7973,0.4665,0.3049,0.6225,0.3176,A,0.065
471,0.50134,0.1,2,0.37601,0.28409,0.85228,471,2.61533,0.21,0.10862,0.60161,5,2D1U,2.0,True,0.342,41,False,right,-0.16711,1.6378,2.4378,0.8,0.3541,0.8879,0.5338,A,0.2
472,0.50134,0.1,1,0.44285,0.20889,0.83557,472,2.9412,0.9,0.45121,0.95255,5,lapse_rate,2.0,False,2.267,0,False,right,0.08356,0.3399,1.4897,1.1498,2.1815,2.9647,0.7832,A,0.2
473,0.50134,0.1,2,0.3008,0.35094,0.76037,473,2.51506,0.21,0.10862,0.60161,5,2D1U,2.0,True,0.112,41,False,right,0.0,1.5554,2.3551,0.7996,0.1971,0.8967,0.6996,A,0.2
474,0.50134,0.1,2,0.27574,0.36765,0.76037,474,1.93017,-0.95,-0.47627,0.02507,5,lapse_rate,1.0,True,0.475,0,False,left,-0.08356,1.4931,1.7177,0.2246,0.2179,0.8344,0.6165,A,0.2
475,0.50134,0.1,1,0.27574,0.40107,0.66845,475,2.24767,-0.19,-0.09191,0.40107,5,1D2U,2.0,True,0.543,42,True,right,0.16711,0.1716,0.7715,0.5999,1.2549,2.1217,0.8668,A,0.2
476,0.50134,0.1,1,0.51805,0.3008,0.79379,476,2.13905,-0.95,-0.47627,0.02507,5,lapse_rate,2.0,True,0.241,0,False,right,0.25067,0.4174,0.6421,0.2247,1.2088,2.1674,0.9585,A,0.2
477,0.50134,0.1,1,0.38436,0.42614,0.44285,477,2.18083,-0.15,-0.0752,0.42614,5,1D2U,2.0,True,0.224,42,False,right,-0.25067,0.2804,0.9052,0.6248,1.3723,1.8223,0.45,A,0.2
478,0.50134,0.1,1,0.33423,0.40943,0.76037,478,2.59027,0.17,0.08356,0.5849,5,2D1U,1.0,True,0.183,41,False,left,-0.16711,0.2312,1.0144,0.7832,1.7563,2.2894,0.5332,A,0.2
479,0.50134,0.1,2,0.41778,0.36765,0.44285,479,2.15576,-0.15,-0.0752,0.42614,5,1D2U,1.0,True,0.608,42,False,left,0.08356,1.4028,2.0279,0.625,0.2777,1.0612,0.7835,A,0.2
480,0.50134,0.1,1,0.44285,0.20054,0.86899,480,2.59862,0.17,0.08356,0.5849,5,2D1U,1.0,True,0.583,41,False,left,0.0,0.3393,1.1224,0.7832,1.889,2.5888,0.6998,A,0.2
481,0.50134,0.1,2,0.42614,0.34258,0.76872,481,2.06385,-0.95,-0.47627,0.02507,5,lapse_rate,1.0,True,0.175,0,False,left,-0.08356,1.6453,1.8701,0.2248,0.3621,0.978,0.616,A,0.2
482,0.50134,0.1,2,0.29245,0.42614,0.59325,482,2.76573,0.9,0.45121,0.95255,5,lapse_rate,2.0,True,0.2,0,False,right,0.16711,1.463,2.6135,1.1504,0.1047,0.9712,0.8665,A,0.2
483,0.50134,1.2,2,0.21725,0.2256,0.74365,483,2.13069,-0.11,-0.05849,0.44285,5,1D2U,1.0,True,0.325,42,False,left,0.25067,1.5814,2.0895,0.5081,0.0562,0.8727,0.8165,A,0.065
484,0.50134,1.2,1,0.43449,0.28409,0.62668,484,2.41479,0.13,0.06685,0.56819,5,2D1U,2.0,False,1.502,41,False,right,-0.25067,0.396,1.0294,0.6335,1.7454,2.0628,0.3173,A,0.065
485,0.50134,1.2,1,0.25067,0.41778,0.6601,485,2.78244,0.9,0.45121,0.95255,5,lapse_rate,1.0,True,1.747,0,False,left,-0.16711,0.2185,1.2352,1.0167,1.9435,2.3438,0.4003,A,0.065
486,0.50134,1.2,1,0.20054,0.39272,0.55983,486,2.09728,-0.11,-0.05849,0.44285,5,1D2U,2.0,True,0.992,42,False,right,0.08356,0.1633,0.6713,0.508,1.1553,1.8053,0.6499,A,0.065
487,0.50134,1.2,1,0.30916,0.28409,0.86899,487,2.54848,0.17,0.08356,0.5849,5,2D1U,1.0,True,0.708,42,True,left,0.0,0.2717,0.9225,0.6509,1.7557,2.3224,0.5667,A,0.065
488,0.50134,0.1,1,0.40943,0.21725,0.53476,488,2.61533,0.9,0.45121,0.95255,5,lapse_rate,1.0,True,0.725,0,False,left,-0.08356,0.3081,1.4581,1.15,1.9333,2.55,0.6167,A,0.2
489,0.50134,1.2,2,0.28409,0.35094,0.69352,489,2.29781,-0.07,-0.03342,0.46792,5,1D2U,2.0,False,0.175,42,False,right,0.16711,1.5557,2.0892,0.5335,0.164,0.8972,0.7332,A,0.065
490,0.50134,1.2,2,0.34258,0.25067,0.87735,490,2.55684,0.17,0.08356,0.5849,5,2D1U,2.0,True,0.466,42,True,right,0.25067,1.8384,2.4882,0.6497,0.1797,0.9961,0.8164,A,0.065
491,0.50134,1.2,2,0.32587,0.43449,0.81886,491,2.52341,-0.11,-0.05849,0.44285,5,1D2U,2.0,False,1.08,43,True,right,-0.25067,1.5193,2.0276,0.5083,0.4191,0.7355,0.3164,A,0.065
492,0.50134,0.1,1,0.3008,0.27574,0.78543,492,2.81586,0.9,0.45121,0.95255,5,lapse_rate,1.0,True,0.842,0,False,left,-0.16711,0.2006,1.3501,1.1495,2.1167,2.6505,0.5338,A,0.2
493,0.50134,0.1,1,0.33423,0.3008,0.45121,493,2.15577,0.13,0.06685,0.56819,5,2D1U,2.0,False,1.05,43,True,right,0.08356,0.2321,0.9987,0.7665,1.3072,2.0908,0.7836,A,0.2
494,0.50134,1.2,1,0.45121,0.23396,0.7353,494,2.87436,0.9,0.45121,0.95255,5,lapse_rate,1.0,True,1.3,0,False,left,0.0,0.4194,1.4359,1.0165,2.1361,2.7027,0.5666,A,0.065
495,0.50134,0.1,1,0.3008,0.31752,0.50134,495,2.2059,0.17,0.08356,0.5849,5,2D1U,2.0,False,0.483,44,True,right,-0.08356,0.1952,0.9793,0.7841,1.4209,2.0376,0.6168,A,0.2
496,0.50134,0.1,2,0.27574,0.44285,0.43449,496,2.08056,-0.15,-0.0752,0.42614,5,1D2U,2.0,False,0.767,43,False,right,0.16711,1.295,1.9199,0.6249,0.0945,0.9617,0.8672,A,0.2
497,0.50134,0.1,2,0.54312,0.30916,0.82721,497,2.78244,0.21,0.10862,0.60161,5,2D1U,2.0,True,0.409,44,False,right,0.25067,1.9952,2.7953,0.8001,0.3207,1.2703,0.9496,A,0.2
498,0.50134,0.1,2,0.41778,0.40943,0.62668,498,2.3563,-0.19,-0.09191,0.40107,5,1D2U,2.0,False,1.118,43,False,right,-0.25067,1.4169,2.0169,0.6,0.4419,0.8925,0.4506,A,0.2
499,0.50134,0.1,2,0.29245,0.27574,0.46792,499,2.49,0.9,0.45121,0.95255,5,lapse_rate,2.0,True,0.667,0,False,right,-0.16711,1.1764,2.3265,1.15,0.2765,0.8099,0.5333,A,0.2
500,0.50134,0.1,2,0.23396,0.33423,0.80214,500,2.25603,-0.23,-0.11698,0.38436,5,1D2U,1.0,True,0.274,43,False,left,0.08356,1.5735,2.157,0.5834,0.0904,0.8733,0.7829,A,0.2
501,0.50134,0.1,2,0.27574,0.2256,0.89406,501,2.49835,0.21,0.10862,0.60161,5,2D1U,2.0,True,0.266,44,False,right,0.0,1.6637,2.4636,0.7998,0.1721,0.8726,0.7005,A,0.2
502,0.50134,1.2,1,0.38436,0.20889,0.65174,502,1.7714,-0.95,-0.47627,0.02507,5,lapse_rate,2.0,True,0.267,0,False,right,-0.08356,0.3475,0.439,0.0915,1.0972,1.5804,0.4832,A,0.065
503,0.50134,1.2,2,0.34258,0.38436,0.76037,503,2.9412,0.9,0.45121,0.95255,5,lapse_rate,2.0,True,0.542,0,False,right,0.16711,1.6855,2.7017,1.0163,0.2262,0.9596,0.7333,A,0.065
504,0.50134,1.2,2,0.42614,0.25903,0.55147,504,2.12234,-0.23,-0.11698,0.38436,5,1D2U,2.0,False,3.558,43,False,right,0.25067,1.596,2.046,0.45,0.2629,1.0796,0.8166,A,0.065
505,0.50134,1.2,1,0.33423,0.41778,0.87735,505,2.7156,0.17,0.08356,0.5849,5,2D1U,1.0,True,0.112,45,True,left,-0.25067,0.2976,0.9481,0.6504,1.9146,2.2307,0.3161,A,0.065
506,0.50134,1.2,1,0.40943,0.3008,0.81886,506,2.61533,0.17,0.08356,0.5849,5,2D1U,2.0,False,0.169,45,True,right,-0.16711,0.3746,1.025,0.6504,1.8916,2.2918,0.4003,A,0.065
507,0.50134,0.1,1,0.29245,0.40107,0.5097,507,1.72963,-0.95,-0.47627,0.02507,5,lapse_rate,2.0,True,0.114,0,False,right,0.08356,0.1896,0.4145,0.2249,0.7812,1.5649,0.7837,A,0.2
508,0.50134,1.2,1,0.25067,0.35929,0.80214,508,2.28109,-0.27,-0.13369,0.36765,5,1D2U,2.0,True,0.21,43,False,right,0.0,0.2126,0.6468,0.4342,1.4137,1.9799,0.5662,A,0.065
509,0.50134,1.2,1,0.45121,0.3008,0.76037,509,2.61533,0.21,0.10862,0.60161,5,2D1U,1.0,True,1.101,46,True,left,-0.08356,0.4189,1.0847,0.6658,1.8518,2.335,0.4832,A,0.065
510,0.50134,1.2,2,0.45121,0.28409,0.71859,510,2.32288,-0.27,-0.13369,0.36765,5,1D2U,2.0,False,1.023,43,False,right,0.16711,1.7529,2.1862,0.4333,0.336,1.0696,0.7336,A,0.065
511,0.50134,1.2,1,0.34258,0.25903,0.62668,511,1.7547,-0.95,-0.47627,0.02507,5,lapse_rate,2.0,True,0.158,0,False,right,0.25067,0.3115,0.4032,0.0917,0.8703,1.6869,0.8165,A,0.065
512,0.50134,0.1,1,0.2256,0.40943,0.56819,512,2.65711,0.9,0.45121,0.95255,5,lapse_rate,1.0,True,5.417,0,False,left,-0.25067,0.1266,1.2759,1.1493,1.868,2.3178,0.4497,A,0.2
513,0.50134,1.2,1,0.40943,0.28409,0.79379,513,2.59026,0.21,0.10862,0.60161,5,2D1U,2.0,False,0.226,46,True,right,-0.16711,0.373,1.0396,0.6666,1.8811,2.2814,0.4003,A,0.065
514,0.50134,0.1,1,0.43449,0.39272,0.45121,514,2.12234,-0.31,-0.15876,0.34258,5,1D2U,2.0,True,0.113,43,False,right,0.08356,0.3324,0.8734,0.5411,1.1821,1.9651,0.783,A,0.2
515,0.50134,0.1,2,0.45121,0.32587,0.54312,515,2.77409,0.9,0.45121,0.95255,5,lapse_rate,2.0,True,0.634,0,False,right,0.0,1.4908,2.6411,1.1502,0.3484,1.049,0.7006,A,0.2
516,0.50134,0.1,1,0.40943,0.26738,0.70188,516,2.22261,-0.31,-0.15876,0.34258,5,1D2U,1.0,False,1.499,43,False,left,-0.08356,0.3061,0.8483,0.5422,1.4904,2.1067,0.6163,A,0.2
517,0.50134,0.1,2,0.44285,0.45121,0.62668,517,2.64876,0.25,0.12534,0.62668,5,2D1U,2.0,True,0.492,46,False,right,0.16711,1.6509,2.4761,0.8252,0.2593,1.126,0.8667,A,0.2
518,0.50134,0.1,1,0.40107,0.25903,0.51805,518,2.30617,0.25,0.12534,0.62668,5,2D1U,1.0,True,0.114,46,False,left,0.25067,0.2992,1.1246,0.8254,1.4161,2.3652,0.9491,A,0.2
519,0.50134,0.1,1,0.35929,0.40943,0.71859,519,2.31452,-0.35,-0.17547,0.32587,5,1D2U,2.0,True,0.45,43,False,right,-0.25067,0.2613,0.7869,0.5256,1.5287,1.9787,0.45,A,0.2
520,0.50134,0.1,2,0.2256,0.20889,0.40107,520,1.36197,-0.95,-0.47627,0.02507,5,lapse_rate,1.0,True,0.275,0,False,left,-0.16711,1.0441,1.2693,0.2252,0.2105,0.7439,0.5334,A,0.2
521,0.50134,1.2,1,0.37601,0.31752,0.49298,521,2.6404,0.9,0.45121,0.95255,5,lapse_rate,1.0,True,1.416,0,False,left,0.08356,0.3411,1.3578,1.0166,1.7741,2.4243,0.6502,A,0.065
522,0.50134,0.1,1,0.23396,0.23396,0.55147,522,2.12234,0.21,0.10862,0.60161,5,2D1U,1.0,True,1.075,47,True,left,0.0,0.1347,0.9341,0.7994,1.3842,2.0844,0.7002,A,0.2
523,0.50134,0.1,1,0.35094,0.26738,0.85228,523,2.29781,-0.35,-0.17547,0.32587,5,1D2U,2.0,True,1.975,43,False,right,-0.08356,0.2515,0.7763,0.5248,1.5678,2.1848,0.617,A,0.2
524,0.50134,0.1,1,0.38436,0.28409,0.56819,524,2.69053,0.9,0.45121,0.95255,5,lapse_rate,1.0,True,1.358,0,False,left,0.16711,0.2818,1.4317,1.1499,1.8153,2.6814,0.8662,A,0.2
525,0.50134,1.2,2,0.3008,0.30916,0.78543,525,2.23931,-0.31,-0.15876,0.34258,5,1D2U,2.0,False,0.926,44,True,right,0.25067,1.7072,2.1152,0.408,0.1399,0.9567,0.8167,A,0.065
526,0.50134,1.2,2,0.41778,0.35094,0.57654,526,2.44821,0.21,0.10862,0.60161,5,2D1U,2.0,True,0.413,47,True,right,-0.25067,1.3671,2.0335,0.6664,0.5083,0.8279,0.3196,A,0.065
527,0.50134,1.2,2,0.3008,0.28409,0.74365,527,2.41478,0.17,0.08356,0.5849,5,2D1U,2.0,True,2.216,47,False,right,-0.16711,1.4557,2.1049,0.6492,0.3467,0.7475,0.4008,A,0.065
528,0.50134,0.1,2,0.28409,0.27574,0.5849,528,2.59862,0.9,0.45121,0.95255,5,lapse_rate,2.0,True,0.114,0,False,right,0.08356,1.4055,2.5559,1.1504,0.1385,0.9223,0.7838,A,0.2
529,0.50134,1.2,1,0.44285,0.28409,0.76872,529,2.32287,-0.35,-0.17547,0.32587,5,1D2U,2.0,True,1.125,45,True,right,0.0,0.4072,0.7988,0.3917,1.5321,2.0985,0.5665,A,0.065
530,0.50134,0.1,1,0.35094,0.20054,0.55147,530,1.62936,-0.95,-0.47627,0.02507,5,lapse_rate,2.0,True,0.113,0,False,right,-0.08356,0.248,0.4737,0.2257,0.9652,1.582,0.6168,A,0.2
531,0.50134,1.2,2,0.2256,0.32587,0.55147,531,1.93015,-0.35,-0.17547,0.32587,5,1D2U,2.0,False,1.225,45,True,right,0.16711,1.3617,1.7534,0.3917,0.1122,0.8453,0.7331,A,0.065
532,0.50134,1.2,1,0.38436,0.20889,0.52641,532,2.2059,0.17,0.08356,0.5849,5,2D1U,2.0,False,0.817,47,False,right,0.25067,0.3469,0.9968,0.65,1.3637,2.1801,0.8164,A,0.065
533,0.50134,1.2,1,0.30916,0.35929,0.52641,533,2.00536,-0.39,-0.19218,0.30916,5,1D2U,2.0,True,0.389,45,False,right,-0.25067,0.2706,0.645,0.3744,1.2615,1.5782,0.3167,A,0.065
534,0.50134,0.1,1,0.30916,0.38436,0.44285,534,2.23932,0.21,0.10862,0.60161,5,2D1U,2.0,False,1.283,48,True,right,-0.16711,0.2042,1.0041,0.7998,1.429,1.962,0.533,A,0.2
535,0.50134,1.2,1,0.23396,0.20889,0.61832,535,2.51506,0.9,0.45121,0.95255,5,lapse_rate,1.0,True,1.358,0,False,left,0.08356,0.2034,1.2202,1.0168,1.7618,2.4112,0.6494,A,0.065
536,0.50134,0.1,1,0.20054,0.43449,0.77708,536,2.22261,-0.39,-0.19218,0.30916,5,1D2U,2.0,True,0.975,45,False,right,0.0,0.0988,0.6072,0.5084,1.2826,1.9823,0.6996,A,0.2
537,0.50134,1.2,1,0.40943,0.25903,0.7353,537,1.93017,-0.95,-0.47627,0.02507,5,lapse_rate,2.0,True,0.175,0,False,right,-0.08356,0.3767,0.4681,0.0914,1.2096,1.6931,0.4835,A,0.065
538,0.50134,0.1,1,0.42614,0.23396,0.56819,538,2.35631,0.25,0.12534,0.62668,5,2D1U,1.0,True,0.958,48,False,left,0.16711,0.3213,1.1464,0.8251,1.53,2.3963,0.8663,A,0.2
539,0.50134,0.1,2,0.3008,0.25067,0.76037,539,2.13905,-0.35,-0.17547,0.32587,5,1D2U,2.0,False,0.114,46,True,right,0.25067,1.6809,2.2139,0.5331,0.0729,1.022,0.9491,A,0.2
540,0.50134,0.1,2,0.33423,0.42614,0.78543,540,2.67382,0.25,0.12534,0.62668,5,2D1U,1.0,False,0.111,48,False,left,-0.25067,1.4924,2.3168,0.8243,0.3591,0.8088,0.4496,A,0.2
541,0.50134,0.1,1,0.20889,0.23396,0.65174,541,1.621,-0.95,-0.47627,0.02507,5,lapse_rate,2.0,True,0.15,0,False,right,-0.16711,0.1051,0.3294,0.2243,0.9631,1.4964,0.5333,A,0.2
542,0.50134,0.1,2,0.45121,0.33423,0.76872,542,2.36466,-0.39,-0.19218,0.30916,5,1D2U,1.0,True,0.113,47,True,left,0.08356,1.7549,2.2637,0.5088,0.3049,1.0882,0.7834,A,0.2
543,0.50134,0.1,2,0.35094,0.35929,0.86899,543,2.72395,0.29,0.14205,0.64339,5,2D1U,2.0,True,0.551,48,False,right,0.0,1.7148,2.5564,0.8416,0.2488,0.9485,0.6997,A,0.2
544,0.50134,0.1,2,0.34258,0.31752,0.43449,544,1.621,-0.95,-0.47627,0.02507,5,lapse_rate,1.0,True,0.967,0,False,left,-0.08356,1.2293,1.4547,0.2253,0.28,0.8968,0.6168,A,0.2
545,0.50134,1.2,1,0.40107,0.41778,0.51805,545,2.1474,-0.39,-0.19218,0.30916,5,1D2U,1.0,False,1.683,47,True,left,0.16711,0.3679,0.744,0.3761,1.1432,1.8767,0.7336,A,0.065
546,0.50134,0.1,1,0.32587,0.32587,0.52641,546,2.63204,0.9,0.45121,0.95255,5,lapse_rate,2.0,False,2.333,0,False,right,0.25067,0.2252,1.3757,1.1506,1.6759,2.6254,0.9495,A,0.2
547,0.50134,1.2,2,0.29245,0.20889,0.86899,547,2.51506,0.29,0.14205,0.64339,5,2D1U,1.0,False,0.692,48,False,left,-0.25067,1.5317,2.2401,0.7085,0.3821,0.698,0.3159,A,0.065
548,0.50134,1.2,1,0.33423,0.44285,0.6601,548,2.60697,0.33,0.16711,0.66845,5,2D1U,2.0,False,1.38,48,False,right,-0.16711,0.2981,1.0314,0.7333,1.7398,2.139,0.3993,A,0.065
549,0.50134,0.1,1,0.2256,0.36765,0.67681,549,1.79647,-0.95,-0.47627,0.02507,5,lapse_rate,2.0,True,0.567,0,False,right,0.08356,0.1219,0.3467,0.2248,0.8794,1.6634,0.7839,A,0.2
550,0.50134,1.2,1,0.24231,0.35929,0.40943,550,1.79646,-0.43,-0.21725,0.28409,5,1D2U,2.0,True,1.8,47,False,right,0.0,0.2052,0.5553,0.3501,0.9303,1.497,0.5667,A,0.065
551,0.50134,0.1,2,0.21725,0.36765,0.84392,551,2.88271,0.9,0.45121,0.95255,5,lapse_rate,2.0,True,0.113,0,False,right,-0.08356,1.5172,2.6672,1.1499,0.1587,0.7756,0.6169,A,0.2
552,0.50134,1.2,1,0.25903,0.3008,0.75201,552,2.49834,0.37,0.18382,0.68516,5,2D1U,1.0,True,0.325,48,False,left,0.16711,0.2236,0.9736,0.75,1.6068,2.3402,0.7334,A,0.065
553,0.50134,1.2,2,0.29245,0.32587,0.7353,553,2.13905,-0.43,-0.21725,0.28409,5,1D2U,2.0,False,0.716,47,False,right,0.25067,1.6515,2.0015,0.35,0.1343,0.9515,0.8172,A,0.065
554,0.50134,1.2,2,0.25903,0.27574,0.43449,554,2.15576,0.37,0.18382,0.68516,5,2D1U,2.0,True,0.207,48,False,right,-0.25067,1.0625,1.8128,0.7502,0.3463,0.6621,0.3158,A,0.065
555,0.50134,0.1,1,0.20054,0.3008,0.5849,555,1.85496,-0.47,-0.23396,0.26738,5,1D2U,1.0,False,1.116,47,False,left,-0.16711,0.0967,0.5638,0.4671,1.1305,1.6631,0.5326,A,0.2
556,0.50134,1.2,2,0.37601,0.39272,0.76872,556,2.06386,-0.95,-0.47627,0.02507,5,lapse_rate,1.0,True,0.259,0,False,left,0.08356,1.6788,1.7703,0.0915,0.2948,0.9455,0.6506,A,0.065
557,0.50134,0.1,2,0.44285,0.38436,0.7353,557,3.0164,0.9,0.45121,0.95255,5,lapse_rate,2.0,True,0.175,0,False,right,0.0,1.6727,2.8232,1.1505,0.3395,1.0395,0.7,A,0.2
558,0.50134,0.1,1,0.23396,0.31752,0.86063,558,2.5819,0.33,0.16711,0.66845,5,2D1U,1.0,True,0.55,49,True,left,-0.08356,0.1358,1.0022,0.8665,1.8024,2.4185,0.6162,A,0.2
559,0.50134,0.1,2,0.28409,0.44285,0.5097,559,1.98029,-0.51,-0.25903,0.24231,5,1D2U,2.0,False,0.125,47,False,right,0.16711,1.3725,1.814,0.4415,0.0975,0.964,0.8666,A,0.2
560,0.50134,0.1,1,0.37601,0.34258,0.79379,560,2.68217,0.33,0.16711,0.66845,5,2D1U,2.0,False,0.492,49,True,right,0.25067,0.2743,1.1411,0.8667,1.708,2.6579,0.9499,A,0.2
561,0.50134,1.2,1,0.3008,0.30916,0.84392,561,2.90777,0.9,0.45121,0.95255,5,lapse_rate,1.0,True,0.822,0,False,left,-0.25067,0.2688,1.2857,1.017,2.22,2.5366,0.3167,A,0.065
562,0.50134,0.1,1,0.43449,0.32587,0.60161,562,2.08891,-0.55,-0.27574,0.2256,5,1D2U,2.0,True,0.608,47,False,right,-0.16711,0.3304,0.7553,0.4249,1.3387,1.8721,0.5334,A,0.2
563,0.50134,0.1,1,0.31752,0.23396,0.63503,563,1.91345,-0.55,-0.27574,0.2256,5,1D2U,2.0,True,0.725,47,False,right,0.08356,0.2179,0.6425,0.4246,1.1337,1.918,0.7843,A,0.2
564,0.50134,0.1,2,0.35929,0.34258,0.63503,564,1.86331,-0.95,-0.47627,0.02507,5,lapse_rate,1.0,True,0.375,0,False,left,0.0,1.4919,1.7176,0.2256,0.2588,0.9591,0.7002,A,0.2
565,0.50134,0.1,2,0.2256,0.3008,0.7353,565,2.4482,0.37,0.18382,0.68516,5,2D1U,2.0,True,0.192,50,True,right,-0.08356,1.4158,2.2993,0.8835,0.1658,0.7827,0.6169,A,0.2
566,0.50134,1.2,1,0.21725,0.35094,0.83557,566,1.93017,-0.95,-0.47627,0.02507,5,lapse_rate,2.0,True,1.309,0,False,right,0.16711,0.1818,0.2741,0.0923,0.9901,1.7238,0.7337,A,0.065
567,0.50134,1.2,1,0.28409,0.39272,0.76872,567,2.18918,-0.51,-0.25903,0.24231,5,1D2U,2.0,True,0.308,48,True,right,0.25067,0.2521,0.5604,0.3082,1.1685,1.9856,0.8171,A,0.065
568,0.50134,1.2,1,0.20889,0.20889,0.7353,568,2.33958,0.37,0.18382,0.68516,5,2D1U,1.0,True,0.398,50,True,left,-0.25067,0.1766,0.9258,0.7492,1.7516,2.0682,0.3166,A,0.065
569,0.50134,1.2,1,0.44285,0.35929,0.47627,569,2.4482,0.33,0.16711,0.66845,5,2D1U,2.0,False,0.653,51,True,right,-0.16711,0.4054,1.1394,0.734,1.6645,2.0655,0.401,A,0.065
570,0.50134,1.2,2,0.29245,0.30916,0.52641,570,1.87167,-0.51,-0.25903,0.24231,5,1D2U,1.0,True,0.141,48,True,left,0.08356,1.3596,1.668,0.3084,0.2177,0.8673,0.6496,A,0.065
571,0.50134,0.1,1,0.3008,0.28409,0.82721,571,2.86599,0.9,0.45121,0.95255,5,lapse_rate,1.0,True,0.293,0,False,left,0.0,0.1965,1.3469,1.1504,2.0719,2.7718,0.6999,A,0.2
572,0.50134,1.2,1,0.30916,0.40107,0.85228,572,2.74901,0.37,0.18382,0.68516,5,2D1U,1.0,True,1.934,52,True,left,-0.08356,0.2781,1.0282,0.7501,1.8866,2.3692,0.4826,A,0.065
573,0.50134,1.2,1,0.25067,0.30916,0.43449,573,1.52073,-0.95,-0.47627,0.02507,5,lapse_rate,2.0,True,0.166,0,False,right,0.16711,0.2133,0.3048,0.0915,0.6217,1.3556,0.7339,A,0.065
574,0.50134,1.2,2,0.35094,0.40943,0.75201,574,2.2811,-0.47,-0.23396,0.26738,5,1D2U,1.0,True,0.227,48,False,left,0.25067,1.7274,2.0605,0.3331,0.1936,1.0108,0.8173,A,0.065
575,0.50134,1.2,1,0.30916,0.36765,0.43449,575,2.56519,0.9,0.45121,0.95255,5,lapse_rate,1.0,True,0.986,0,False,left,-0.25067,0.271,1.2882,1.0173,1.8127,2.1299,0.3171,A,0.065
576,0.50134,1.2,1,0.35094,0.31752,0.53476,576,2.38972,0.37,0.18382,0.68516,5,2D1U,1.0,True,0.662,52,True,left,-0.16711,0.319,1.0682,0.7492,1.6516,2.0515,0.3999,A,0.065
577,0.50134,0.1,1,0.23396,0.32587,0.48463,577,1.81318,-0.47,-0.23396,0.26738,5,1D2U,2.0,True,0.758,48,False,right,0.08356,0.1362,0.6029,0.4667,0.9443,1.7277,0.7835,A,0.2
578,0.50134,0.1,1,0.40107,0.39272,0.51805,578,2.09727,-0.43,-0.21725,0.28409,5,1D2U,2.0,True,0.166,48,False,right,0.0,0.2984,0.7813,0.4828,1.1979,1.8978,0.6999,A,0.2
579,0.50134,0.1,2,0.23396,0.34258,0.79379,579,2.54012,0.33,0.16711,0.66845,5,2D1U,1.0,False,0.441,53,True,left,-0.08356,1.48,2.3461,0.8661,0.1718,0.7883,0.6165,A,0.2
580,0.50134,0.1,2,0.29245,0.37601,0.62668,580,1.82155,-0.95,-0.47627,0.02507,5,lapse_rate,1.0,True,0.967,0,False,left,0.16711,1.5017,1.7264,0.2247,0.1104,0.9768,0.8664,A,0.2
581,0.50134,0.1,2,0.31752,0.61832,0.83557,581,2.95791,0.37,0.18382,0.68516,5,2D1U,2.0,True,0.112,54,True,right,0.25067,1.7733,2.6563,0.883,0.0894,1.0398,0.9503,A,0.2
582,0.50134,0.1,2,0.38436,0.25067,0.55983,582,2.64875,0.9,0.45121,0.95255,5,lapse_rate,2.0,True,0.525,0,False,right,-0.25067,1.3134,2.4634,1.15,0.405,0.855,0.45,A,0.2
583,0.50134,0.1,2,0.20889,0.31752,0.78543,583,2.09727,-0.43,-0.21725,0.28409,5,1D2U,1.0,True,0.874,48,False,left,-0.16711,1.4068,1.8899,0.4831,0.1899,0.7226,0.5327,A,0.2
584,0.50134,0.1,2,0.20054,0.40107,0.5097,584,2.29781,0.37,0.18382,0.68516,5,2D1U,1.0,False,0.358,54,True,left,0.08356,1.2476,2.1309,0.8834,0.0555,0.8393,0.7838,A,0.2
585,0.50134,0.1,1,0.37601,0.29245,0.62668,585,2.10564,-0.39,-0.19218,0.30916,5,1D2U,2.0,True,0.25,48,False,right,0.0,0.272,0.7808,0.5088,1.3054,2.0053,0.6999,A,0.2
586,0.50134,1.2,1,0.40943,0.38436,0.82721,586,3.07489,0.9,0.45121,0.95255,5,lapse_rate,1.0,True,1.292,0,False,left,-0.08356,0.3764,1.393,1.0166,2.2262,2.71,0.4838,A,0.065
587,0.50134,1.2,1,0.38436,0.35929,0.82721,587,2.38136,-0.39,-0.19218,0.30916,5,1D2U,2.0,True,3.374,48,False,right,0.16711,0.3504,0.7251,0.3747,1.4336,2.167,0.7334,A,0.065
588,0.50134,1.2,1,0.37601,0.38436,0.86063,588,2.82422,0.41,0.20889,0.70188,5,2D1U,1.0,True,0.417,54,False,left,0.25067,0.3397,1.1061,0.7664,1.8062,2.6233,0.8171,A,0.065
