,Unnamed: 0,standardDur,audNoise,order,preDur,postDur,isiDur,trial_num,totalDur,delta_dur_percents,deltaDurS,testDurS,intensities,current_stair,responses,is_correct,response_rts,stair_num_reversal,stair_is_reversal,response_keys,conflictDur,recordedOnsetVisualTest,recordedOffsetVisualTest,recordedDurVisualTest,recordedOnsetVisualStandard,recordedOffsetVisualStandard,recordedDurVisualStandard,modalityPostCue
0,0,0.49635,1.2,1,0.39708,0.25645,0.90169,0,2.1012,-0.9,-0.44671,0.04963,5,1D3U,1.0,False,0.355,0,False,left,0.0,0.3955,0.4458,0.0503,1.354,1.8539,0.4999,A
1,1,0.49635,0.1,2,0.30608,0.28126,0.72797,1,1.86129,-0.9,-0.44671,0.04963,5,3D1U,1.0,True,0.292,0,False,left,0.0,1.538,1.5874,0.0494,0.3045,0.8049,0.5004,V
2,2,0.49635,1.2,2,0.20681,0.28126,0.63698,2,1.67103,-0.9,-0.44671,0.04963,5,1D3U,1.0,True,0.383,0,False,left,0.0,1.346,1.3962,0.0502,0.2048,0.7046,0.4999,V
3,3,0.49635,0.1,1,0.21508,0.27299,0.59561,3,1.71239,-0.74,-0.37226,0.13236,5,3D1U,2.0,True,0.184,0,False,right,0.0,0.2163,0.3492,0.1329,0.9488,1.4485,0.4998,A
4,4,0.49635,1.2,2,0.20681,0.27299,0.58734,4,2.51482,0.9,0.44671,0.95133,5,lapse_rate,2.0,True,0.108,0,False,right,0.0,1.2992,2.2586,0.9594,0.2076,0.708,0.5004,A
5,5,0.49635,1.2,2,0.36399,0.36399,0.47153,5,1.74549,-0.9,-0.44671,0.04963,5,1D2U,1.0,True,5.192,0,False,left,0.0,1.3439,1.3937,0.0498,0.3689,0.8689,0.5,A
6,6,0.49635,0.1,1,0.37226,0.3888,0.65352,6,1.96056,-0.9,-0.44671,0.04963,5,2D1U,2.0,True,0.181,0,False,right,0.0,0.373,0.4232,0.0502,1.0816,1.5812,0.4996,A
7,7,0.49635,1.2,1,0.24817,0.28954,0.87688,7,1.96057,-0.9,-0.44671,0.04963,5,lapse_rate,1.0,False,3.592,0,False,left,0.0,0.2488,0.2987,0.0499,1.1823,1.6823,0.5,V
8,8,0.49635,1.2,1,0.25645,0.43017,0.77761,8,2.09294,-0.74,-0.37226,0.13236,5,2D1U,2.0,True,1.276,0,False,right,0.0,0.2571,0.3902,0.1331,1.1741,1.6734,0.4994,A
9,9,0.49635,0.1,2,0.43017,0.34744,0.79415,9,2.11774,-0.9,-0.44671,0.04963,5,1D2U,1.0,True,0.45,0,False,left,0.0,1.7286,1.7786,0.0499,0.428,0.9279,0.5,A
10,10,0.49635,1.2,2,0.24817,0.31435,0.57907,10,1.68757,-0.9,-0.44671,0.04963,5,1D3U,1.0,True,0.475,0,False,left,0.0,1.3329,1.3828,0.0499,0.2499,0.7499,0.5,A
11,11,0.49635,0.1,2,0.30608,0.35571,0.45498,11,1.81993,-0.58,-0.28954,0.20681,5,3D1U,1.0,True,0.547,0,False,left,0.0,1.2632,1.4705,0.2073,0.3046,0.8046,0.5,A
12,12,0.49635,1.2,1,0.20681,0.43844,0.75279,12,1.94402,-0.9,-0.44671,0.04963,5,lapse_rate,2.0,True,0.275,0,False,right,0.0,0.2064,0.257,0.0505,1.0141,1.5153,0.5012,A
13,13,0.49635,1.2,1,0.44671,0.41362,0.79415,13,2.44037,-0.42,-0.20681,0.28954,5,3D1U,2.0,True,1.075,0,False,right,0.0,0.447,0.7395,0.2925,1.5392,2.0396,0.5004,V
14,14,0.49635,0.1,2,0.23163,0.33917,0.7197,14,1.99366,-0.58,-0.28954,0.20681,5,2D1U,1.0,True,0.282,0,False,left,0.0,1.4591,1.6666,0.2075,0.2341,0.7337,0.4996,V
15,15,0.49635,1.2,2,0.33917,0.42189,0.45498,15,1.76202,-0.9,-0.44671,0.04963,5,1D3U,2.0,False,4.429,0,False,right,0.0,1.298,1.3481,0.0502,0.3399,0.8401,0.5002,V
16,16,0.49635,0.1,2,0.2399,0.40535,0.68661,16,1.96057,-0.74,-0.37226,0.13236,5,1D2U,1.0,True,0.293,0,False,left,0.0,1.4322,1.5656,0.1333,0.2407,0.7399,0.4991,V
17,17,0.49635,1.2,2,0.43844,0.41362,0.88515,17,2.28319,-0.9,-0.44671,0.04963,5,1D3U,1.0,True,0.285,0,False,left,0.0,1.8332,1.8827,0.0495,0.4414,0.9421,0.5008,A
18,18,0.49635,0.1,1,0.41362,0.25645,0.67007,18,2.12603,-0.42,-0.20681,0.28954,5,2D1U,2.0,True,0.391,0,False,right,0.0,0.4169,0.7086,0.2917,1.383,1.883,0.5001,V
19,19,0.49635,1.2,2,0.23163,0.25645,0.53771,19,1.6545,-0.74,-0.37226,0.13236,5,1D2U,1.0,True,2.325,0,False,left,0.0,1.2704,1.4045,0.1341,0.2295,0.7289,0.4995,A
20,20,0.49635,0.1,1,0.22336,0.21508,0.71143,20,2.01848,-0.26,-0.13236,0.37226,5,3D1U,2.0,True,1.109,0,False,right,0.0,0.2262,0.6008,0.3745,1.3181,1.818,0.4998,A
21,21,0.49635,1.2,1,0.42189,0.33917,0.82724,21,2.13428,-0.9,-0.44671,0.04963,5,lapse_rate,2.0,True,0.751,0,False,right,0.0,0.423,0.4731,0.0501,1.3059,1.8067,0.5008,V
22,22,0.49635,1.2,1,0.25645,0.44671,0.65352,22,2.05984,-0.58,-0.28954,0.20681,5,1D2U,2.0,True,7.458,0,False,right,0.0,0.256,0.4638,0.2078,1.1222,1.6229,0.5007,V
23,23,0.49635,0.1,2,0.37226,0.31435,0.69488,23,2.32455,-0.1,-0.04963,0.44671,5,3D1U,1.0,True,3.259,0,False,left,0.0,1.5711,2.0208,0.4496,0.3706,0.8708,0.5002,V
24,24,0.49635,0.1,2,0.29781,0.28954,0.79415,24,2.82918,0.9,0.44671,0.95133,5,lapse_rate,2.0,True,0.441,0,False,right,0.0,1.6058,2.5615,0.9557,0.304,0.8043,0.5003,A
25,25,0.49635,1.2,1,0.2399,0.3309,0.83552,25,2.27493,-0.26,-0.13236,0.37226,5,2D1U,1.0,False,0.4,0,False,left,0.0,0.2383,0.6129,0.3746,1.4544,1.9553,0.5009,A
26,26,0.49635,0.1,2,0.32262,0.26472,0.53771,26,1.67103,-0.9,-0.44671,0.04963,5,1D3U,1.0,True,4.502,0,False,left,0.0,1.3646,1.4144,0.0498,0.3237,0.8234,0.4997,V
27,27,0.49635,1.2,1,0.40535,0.31435,0.63698,27,1.90266,-0.9,-0.44671,0.04963,5,1D3U,1.0,False,8.117,0,False,left,0.0,0.4063,0.4564,0.0501,1.0974,1.5982,0.5008,V
28,28,0.49635,0.1,1,0.32262,0.29781,0.52116,28,1.84475,-0.58,-0.28954,0.20681,5,1D2U,2.0,True,0.379,0,False,right,0.0,0.3213,0.5293,0.208,1.0549,1.5549,0.4999,V
29,29,0.49635,1.2,2,0.40535,0.28126,0.51289,29,2.06811,-0.26,-0.13236,0.37226,5,2D1U,1.0,True,1.008,0,False,left,0.0,1.4256,1.8005,0.3749,0.409,0.9095,0.5005,V
30,30,0.49635,1.2,2,0.31435,0.29781,0.77761,30,1.93575,-0.9,-0.44671,0.04963,5,lapse_rate,2.0,False,3.386,0,False,right,0.0,1.5949,1.6453,0.0503,0.3113,0.8119,0.5006,A
31,31,0.49635,0.1,2,0.33917,0.32262,0.80243,31,2.49001,0.06,0.03309,0.52944,5,3D1U,2.0,True,0.6,0,False,right,0.0,1.6528,2.1869,0.5342,0.3446,0.8454,0.5008,A
32,32,0.49635,1.2,1,0.37226,0.43844,0.77761,32,2.53137,-0.1,-0.04963,0.44671,5,2D1U,2.0,True,0.459,0,False,right,0.0,0.3745,0.825,0.4505,1.6087,2.1086,0.4999,A
33,33,0.49635,0.1,1,0.33917,0.21508,0.41362,33,1.75376,-0.42,-0.20681,0.28954,5,1D2U,2.0,True,0.286,0,False,right,0.0,0.3397,0.6307,0.291,1.047,1.5473,0.5003,A
34,34,0.49635,1.2,2,0.32262,0.20681,0.50462,34,2.05984,0.06,0.03309,0.52944,5,3D1U,1.0,False,0.66,0,False,left,0.0,1.3351,1.8687,0.5336,0.3262,0.8273,0.5012,A
35,35,0.49635,0.1,1,0.37226,0.34744,0.70316,35,1.96884,-0.9,-0.44671,0.04963,5,1D3U,2.0,True,0.108,0,False,right,0.0,0.3798,0.4294,0.0496,1.1375,1.6382,0.5006,A
36,36,0.49635,1.2,1,0.25645,0.35571,0.44671,36,1.60485,-0.9,-0.44671,0.04963,5,lapse_rate,2.0,True,1.417,0,False,right,0.0,0.2581,0.308,0.0498,0.7579,1.2583,0.5004,V
37,37,0.49635,1.2,2,0.24817,0.40535,0.53771,37,2.63891,0.9,0.44671,0.95133,5,lapse_rate,2.0,True,0.242,0,False,right,0.0,1.2911,2.2499,0.9588,0.2503,0.7496,0.4993,A
38,38,0.49635,1.2,1,0.2399,0.31435,0.46326,38,1.8034,-0.42,-0.20681,0.28954,5,1D2U,1.0,False,1.435,0,False,left,0.0,0.2387,0.5311,0.2924,0.9983,1.4979,0.4996,A
39,39,0.49635,0.1,1,0.27299,0.24817,0.49635,39,2.0433,0.06,0.03309,0.52944,5,2D1U,1.0,True,11.001,0,False,left,0.0,0.2724,0.8058,0.5335,1.3063,1.8059,0.4996,V
40,40,0.49635,1.2,1,0.26472,0.43017,0.41362,40,1.65449,-0.9,-0.44671,0.04963,5,1D3U,2.0,True,1.86,0,False,right,0.0,0.2636,0.3137,0.0501,0.7302,1.2309,0.5007,V
41,41,0.49635,0.1,1,0.32262,0.29781,0.74452,41,2.47346,0.22,0.10754,0.61216,5,3D1U,1.0,True,2.557,0,False,left,0.0,0.3254,0.9412,0.6158,1.6919,2.1921,0.5001,V
42,42,0.49635,1.2,2,0.25645,0.25645,0.84379,42,2.4652,0.22,0.10754,0.61216,5,3D1U,2.0,True,0.466,0,False,right,0.0,1.6095,2.2261,0.6166,0.259,0.7593,0.5003,V
43,43,0.49635,0.1,2,0.21508,0.28126,0.80243,43,2.74645,0.9,0.44671,0.95133,5,lapse_rate,2.0,True,0.201,0,False,right,0.0,1.5257,2.4838,0.9581,0.2179,0.7177,0.4998,V
44,44,0.49635,0.1,2,0.30608,0.32262,0.78588,44,2.1591,-0.5,-0.24817,0.24817,5,1D2U,1.0,True,0.683,1,True,left,0.0,1.5996,1.8503,0.2507,0.3073,0.8078,0.5004,A
45,45,0.49635,1.2,2,0.26472,0.3888,0.81897,45,2.01847,-0.9,-0.44671,0.04963,5,1D3U,2.0,False,2.483,0,False,right,0.0,1.5873,1.6365,0.0492,0.2616,0.7627,0.5011,V
46,46,0.49635,0.1,1,0.31435,0.39708,0.43844,46,2.17566,0.06,0.03309,0.52944,5,2D1U,1.0,True,0.425,0,False,left,0.0,0.3195,0.8532,0.5337,1.2945,1.7949,0.5004,V
47,47,0.49635,1.2,1,0.22336,0.33917,0.46326,47,2.01021,-0.02,-0.00827,0.48807,5,2D1U,2.0,True,1.543,1,True,right,0.0,0.2248,0.7169,0.492,1.1833,1.6837,0.5004,V
48,48,0.49635,0.1,1,0.3309,0.28126,0.81897,48,2.53964,0.22,0.10754,0.61216,5,3D1U,1.0,True,0.233,0,False,left,0.0,0.3341,0.9515,0.6174,1.7764,2.2771,0.5007,A
49,49,0.49635,0.1,2,0.38053,0.37226,0.43844,49,1.73721,-0.9,-0.44671,0.04963,5,lapse_rate,1.0,True,0.684,0,False,left,0.0,1.3223,1.373,0.0507,0.3808,0.8809,0.5001,V
50,50,0.49635,1.2,1,0.39708,0.31435,0.62043,50,1.87784,-0.9,-0.44671,0.04963,5,1D3U,2.0,True,1.746,0,False,right,0.0,0.3958,0.4465,0.0506,1.0715,1.5709,0.4994,V
51,51,0.49635,0.1,2,0.34744,0.3309,0.87688,51,2.29974,-0.5,-0.24817,0.24817,5,1D2U,1.0,True,0.607,1,True,left,0.0,1.7335,1.983,0.2495,0.3498,0.85,0.5002,V
52,52,0.49635,1.2,2,0.24817,0.44671,0.66179,52,2.42382,0.14,0.06618,0.5708,5,3D1U,2.0,True,6.168,1,True,right,0.0,1.418,1.992,0.574,0.2518,0.7511,0.4993,A
53,53,0.49635,0.1,2,0.43017,0.32262,0.51289,53,1.81166,-0.9,-0.44671,0.04963,5,1D3U,1.0,True,1.009,0,False,left,0.0,1.4542,1.5041,0.0499,0.4367,0.9376,0.5009,A
54,54,0.49635,1.2,2,0.43017,0.43844,0.64525,54,2.5231,0.02,0.00827,0.51289,5,2D1U,1.0,False,1.001,2,True,left,0.0,1.5839,2.0998,0.5159,0.4338,0.934,0.5002,V
55,55,0.49635,0.1,2,0.32262,0.28954,0.82724,55,2.20874,-0.46,-0.23163,0.27299,5,1D2U,1.0,True,0.674,2,True,left,0.0,1.6611,1.9365,0.2754,0.3274,0.8281,0.5006,V
56,56,0.49635,1.2,1,0.28126,0.30608,0.63698,56,1.7703,-0.9,-0.44671,0.04963,5,lapse_rate,2.0,True,1.409,0,False,right,0.0,0.2852,0.3345,0.0493,0.9763,1.4764,0.5001,V
57,57,0.49635,1.2,2,0.25645,0.26472,0.43844,57,1.50559,-0.9,-0.44671,0.04963,5,1D3U,1.0,True,0.75,0,False,left,0.0,1.2034,1.2539,0.0505,0.2619,0.7615,0.4996,V
58,58,0.49635,0.1,2,0.39708,0.33917,0.79415,58,2.29974,-0.46,-0.23163,0.27299,5,1D2U,1.0,True,0.384,2,True,left,0.0,1.7011,1.9761,0.275,0.4013,0.9012,0.4999,V
59,59,0.49635,1.2,1,0.24817,0.3309,0.50462,59,2.10948,0.06,0.03309,0.52944,5,2D1U,1.0,True,3.383,2,False,left,0.0,0.2526,0.786,0.5334,1.2943,1.7941,0.4997,V
60,60,0.49635,0.1,1,0.38053,0.41362,0.52944,60,2.77127,0.9,0.44671,0.95133,5,lapse_rate,1.0,True,3.109,0,False,left,0.0,0.3796,1.3382,0.9586,1.8712,2.3712,0.5,V
61,61,0.49635,0.1,2,0.25645,0.29781,0.6287,61,2.25011,0.14,0.06618,0.5708,5,3D1U,2.0,True,1.059,1,True,right,0.0,1.3933,1.9677,0.5744,0.261,0.7597,0.4987,V
62,62,0.49635,1.2,1,0.43017,0.25645,0.65352,62,1.92749,-0.82,-0.41362,0.091,5,1D3U,2.0,True,1.259,1,True,right,0.0,0.4353,0.5263,0.091,1.1846,1.6855,0.5009,A
63,63,0.49635,0.1,1,0.32262,0.29781,0.54598,63,1.71239,-0.9,-0.44671,0.04963,5,lapse_rate,2.0,True,0.21,0,False,right,0.0,0.3212,0.3714,0.0501,0.9208,1.4206,0.4998,V
64,64,0.49635,0.1,1,0.3309,0.25645,0.58734,64,2.20048,0.06,0.03309,0.52944,5,2D1U,1.0,True,0.867,2,False,left,0.0,0.3369,0.87,0.5331,1.461,1.9618,0.5008,A
65,65,0.49635,1.2,1,0.3888,0.24817,0.86033,65,2.56445,0.14,0.06618,0.5708,5,3D1U,2.0,False,1.409,1,True,right,0.0,0.3917,0.9662,0.5745,1.8344,2.3326,0.4982,V
66,66,0.49635,0.1,2,0.37226,0.32262,0.89342,66,2.37419,-0.42,-0.20681,0.28954,5,1D2U,1.0,True,0.791,2,False,left,0.0,1.7771,2.0695,0.2924,0.3765,0.8773,0.5008,V
67,67,0.49635,0.1,1,0.42189,0.42189,0.60389,67,1.99365,-0.9,-0.44671,0.04963,5,lapse_rate,2.0,True,0.104,0,False,right,0.0,0.423,0.4735,0.0505,1.0815,1.5814,0.4999,A
68,68,0.49635,1.2,2,0.22336,0.43017,0.82724,68,2.26666,-0.42,-0.20681,0.28954,5,1D2U,1.0,True,0.825,2,False,left,0.0,1.5609,1.8525,0.2917,0.2267,0.7268,0.5001,V
69,69,0.49635,0.1,2,0.2399,0.32262,0.88515,69,2.03502,-0.82,-0.41362,0.091,5,1D3U,1.0,True,0.785,1,True,left,0.0,1.6348,1.727,0.0923,0.2434,0.7436,0.5002,A
70,70,0.49635,1.2,1,0.36399,0.41362,0.59561,70,2.45691,0.18,0.091,0.58734,5,3D1U,2.0,False,3.392,2,True,right,0.0,0.3636,0.9556,0.592,1.5551,2.0557,0.5006,V
71,71,0.49635,0.1,2,0.26472,0.29781,0.57907,71,2.15084,0.02,0.00827,0.51289,5,2D1U,1.0,False,0.508,3,True,left,0.0,1.3511,1.8679,0.5169,0.2673,0.7682,0.5009,A
72,72,0.49635,1.2,2,0.32262,0.23163,0.80243,72,1.94403,-0.82,-0.41362,0.091,5,1D3U,1.0,True,0.793,1,True,left,0.0,1.6334,1.725,0.0916,0.3247,0.8248,0.5001,A
73,73,0.49635,0.1,2,0.34744,0.34744,0.55425,73,2.27492,0.06,0.03309,0.52944,5,2D1U,1.0,False,2.167,4,True,left,0.0,1.406,1.9391,0.5331,0.3475,0.8476,0.5001,A
74,74,0.49635,1.2,1,0.3888,0.24817,0.7197,74,2.46518,0.22,0.10754,0.61216,5,3D1U,1.0,True,0.559,2,False,left,0.0,0.3877,1.0043,0.6166,1.7292,2.2295,0.5004,V
75,75,0.49635,0.1,2,0.29781,0.35571,0.67834,75,2.13429,-0.38,-0.19027,0.30608,5,1D2U,1.0,True,0.359,2,False,left,0.0,1.4865,1.7947,0.3083,0.3028,0.8033,0.5004,A
76,76,0.49635,0.1,1,0.28126,0.19854,0.48807,76,2.41555,0.9,0.44671,0.95133,5,lapse_rate,1.0,True,0.599,0,False,left,0.0,0.2843,1.243,0.9587,1.7343,2.2345,0.5002,A
77,77,0.49635,1.2,1,0.20681,0.3888,0.55425,77,2.19219,0.1,0.04963,0.54598,5,2D1U,2.0,False,0.733,4,False,right,0.0,0.2095,0.7596,0.5501,1.3185,1.8182,0.4996,V
78,78,0.49635,0.1,1,0.44671,0.21508,0.74452,78,2.85399,0.9,0.44671,0.95133,5,lapse_rate,1.0,True,0.675,0,False,left,0.0,0.4512,1.4098,0.9586,2.159,2.6594,0.5004,A
79,79,0.49635,0.1,2,0.36399,0.34744,0.55425,79,2.37419,0.22,0.10754,0.61216,5,3D1U,2.0,True,0.417,2,False,right,0.0,1.4251,2.0427,0.6176,0.3673,0.8671,0.4998,A
80,80,0.49635,1.2,1,0.26472,0.34744,0.8107,80,2.05157,-0.74,-0.37226,0.13236,5,1D3U,2.0,True,0.467,1,False,right,0.0,0.2618,0.396,0.1342,1.2122,1.7121,0.4998,V
81,81,0.49635,0.1,2,0.27299,0.39708,0.75279,81,2.22529,-0.38,-0.19027,0.30608,5,1D2U,1.0,True,2.592,2,False,left,0.0,1.5329,1.8399,0.307,0.2742,0.7732,0.499,A
82,82,0.49635,1.2,2,0.44671,0.31435,0.85206,82,2.24183,-0.74,-0.37226,0.13236,5,1D3U,1.0,True,0.75,1,False,left,0.0,1.8038,1.9365,0.1328,0.445,0.9449,0.5,V
83,83,0.49635,0.1,1,0.28126,0.25645,0.60389,83,2.58928,0.9,0.44671,0.95133,5,lapse_rate,1.0,True,2.682,0,False,left,0.0,0.2858,1.2441,0.9583,1.8516,2.3521,0.5005,A
84,84,0.49635,0.1,2,0.40535,0.28954,0.80243,84,2.56447,0.14,0.06618,0.5708,5,2D1U,1.0,False,2.309,4,False,left,0.0,1.7116,2.287,0.5754,0.4035,0.904,0.5005,A
85,85,0.49635,1.2,1,0.3309,0.43017,0.46326,85,2.05158,-0.34,-0.17372,0.3309,5,1D2U,2.0,True,0.935,2,False,right,0.0,0.3315,0.6654,0.3339,1.1317,1.6314,0.4997,A
86,86,0.49635,0.1,2,0.3888,0.20681,0.43844,86,2.14256,0.22,0.10754,0.61216,5,3D1U,1.0,False,0.942,2,False,left,0.0,1.3325,1.9489,0.6164,0.3905,0.8902,0.4997,V
87,87,0.49635,1.2,2,0.27299,0.20681,0.84379,87,2.44864,0.26,0.13236,0.6287,5,3D1U,2.0,True,1.651,2,False,right,0.0,1.6235,2.2556,0.6321,0.2722,0.7726,0.5004,A
88,88,0.49635,0.1,1,0.42189,0.33917,0.86861,88,2.45692,-0.34,-0.17372,0.3309,5,1D2U,1.0,False,6.875,2,False,left,0.0,0.4266,0.7592,0.3326,1.6346,2.1351,0.5005,A
89,89,0.49635,1.2,2,0.40535,0.41362,0.88515,89,2.78781,0.18,0.091,0.58734,5,2D1U,1.0,False,2.067,4,False,left,0.0,1.7998,2.3919,0.5921,0.4084,0.9077,0.4993,V
90,90,0.49635,1.2,1,0.35571,0.27299,0.55425,90,1.72893,-0.9,-0.44671,0.04963,5,lapse_rate,2.0,True,1.058,0,False,right,0.0,0.3559,0.4061,0.0501,0.965,1.4652,0.5002,V
91,91,0.49635,0.1,2,0.35571,0.3309,0.82724,91,2.14256,-0.74,-0.37226,0.13236,5,1D3U,1.0,True,0.709,1,False,left,0.0,1.6873,1.82,0.1327,0.3544,0.8536,0.4991,A
92,92,0.49635,1.2,2,0.22336,0.37226,0.83552,92,2.23357,-0.38,-0.19027,0.30608,5,1D2U,1.0,True,0.507,3,True,left,0.0,1.5641,1.8725,0.3084,0.2228,0.7222,0.4994,V
93,93,0.49635,1.2,1,0.28954,0.42189,0.71143,93,2.87054,0.9,0.44671,0.95133,5,lapse_rate,2.0,False,2.033,0,False,right,0.0,0.2872,1.2456,0.9585,1.9623,2.4618,0.4995,V
94,94,0.49635,0.1,2,0.20681,0.30608,0.4798,94,2.1012,0.22,0.10754,0.61216,5,2D1U,1.0,False,1.91,4,False,left,0.0,1.1899,1.8064,0.6165,0.2067,0.7063,0.4997,V
95,95,0.49635,1.2,2,0.34744,0.26472,0.45498,95,2.19219,0.26,0.13236,0.6287,5,3D1U,2.0,True,0.476,2,False,right,0.0,1.3061,1.9398,0.6337,0.3482,0.8483,0.5002,A
96,96,0.49635,0.1,1,0.31435,0.41362,0.75279,96,2.15083,-0.66,-0.3309,0.17372,5,1D3U,2.0,True,3.491,1,False,right,0.0,0.3182,0.4935,0.1753,1.2521,1.7519,0.4998,V
97,97,0.49635,1.2,2,0.3888,0.43844,0.81897,97,2.44864,-0.38,-0.19027,0.30608,5,1D2U,1.0,True,0.283,3,True,left,0.0,1.7187,2.0264,0.3076,0.3929,0.8934,0.5005,A
98,98,0.49635,0.1,1,0.31435,0.33917,0.40535,98,1.60485,-0.9,-0.44671,0.04963,5,lapse_rate,2.0,True,0.167,0,False,right,0.0,0.3159,0.3667,0.0508,0.7753,1.2743,0.4991,A
99,99,0.49635,0.1,1,0.42189,0.39708,0.53771,99,2.48173,0.26,0.13236,0.6287,5,3D1U,1.0,True,0.825,2,False,left,0.0,0.424,1.0574,0.6334,1.5992,2.0991,0.5,A
100,100,0.49635,1.2,1,0.37226,0.43017,0.45498,100,1.92748,-0.66,-0.3309,0.17372,5,1D3U,2.0,True,0.464,1,False,right,0.0,0.3719,0.547,0.1751,1.0056,1.5057,0.5,A
101,101,0.49635,0.1,1,0.32262,0.24817,0.42189,101,2.11773,0.26,0.13236,0.6287,5,2D1U,2.0,False,3.975,4,False,right,0.0,0.3202,0.954,0.6338,1.3785,1.8788,0.5003,V
102,102,0.49635,1.2,2,0.3309,0.40535,0.5708,102,2.45692,0.3,0.1489,0.65352,5,2D1U,2.0,True,0.4,4,False,right,0.0,1.4047,2.0632,0.6586,0.3298,0.8302,0.5004,A
103,103,0.49635,0.1,2,0.25645,0.42189,0.57907,103,2.36592,0.22,0.10754,0.61216,5,3D1U,2.0,True,6.158,3,True,right,0.0,1.3417,1.9588,0.6171,0.2586,0.7589,0.5003,V
104,104,0.49635,1.2,2,0.38053,0.40535,0.47153,104,2.70509,0.9,0.44671,0.95133,5,lapse_rate,2.0,True,0.425,0,False,right,0.0,1.3596,2.3177,0.9581,0.3845,0.884,0.4995,V
105,105,0.49635,1.2,1,0.34744,0.44671,0.61216,105,2.07638,-0.66,-0.3309,0.17372,5,1D3U,2.0,True,0.857,1,False,right,0.0,0.3493,0.5253,0.176,1.1422,1.6419,0.4997,V
106,106,0.49635,0.1,2,0.25645,0.32262,0.76934,106,2.17566,-0.34,-0.17372,0.3309,5,1D2U,1.0,True,0.427,4,True,left,0.0,1.5308,1.8642,0.3334,0.2558,0.7554,0.4996,V
107,107,0.49635,1.2,1,0.32262,0.28126,0.70316,107,2.41555,0.22,0.10754,0.61216,5,3D1U,1.0,True,1.092,3,True,left,0.0,0.324,0.9407,0.6167,1.649,2.1484,0.4993,A
108,108,0.49635,0.1,2,0.40535,0.2399,0.7197,108,2.51482,0.3,0.1489,0.65352,5,2D1U,2.0,True,0.543,4,False,right,0.0,1.6301,2.2883,0.6582,0.4052,0.9043,0.4991,A
109,109,0.49635,1.2,2,0.2399,0.32262,0.89342,109,2.1591,-0.58,-0.28954,0.20681,5,1D3U,1.0,True,3.809,1,False,left,0.0,1.6415,1.8498,0.2083,0.241,0.742,0.501,V
110,110,0.49635,0.1,1,0.42189,0.22336,0.72797,110,2.20047,-0.34,-0.17372,0.3309,5,1D2U,2.0,True,1.417,4,True,right,0.0,0.4234,0.7576,0.3342,1.4901,1.9914,0.5013,A
111,111,0.49635,0.1,2,0.20681,0.25645,0.69488,111,1.70412,-0.9,-0.44671,0.04963,5,lapse_rate,1.0,True,0.598,0,False,left,0.0,1.4053,1.4543,0.0491,0.2053,0.705,0.4997,A
112,112,0.49635,1.2,2,0.39708,0.40535,0.80243,112,3.05254,0.9,0.44671,0.95133,5,lapse_rate,2.0,True,0.45,0,False,right,0.0,1.7117,2.6697,0.958,0.4034,0.9037,0.5003,V
113,113,0.49635,1.2,2,0.31435,0.23163,0.75279,113,2.40728,0.22,0.10754,0.61216,5,3D1U,1.0,False,0.832,3,True,left,0.0,1.5724,2.1891,0.6167,0.3134,0.8141,0.5007,A
114,114,0.49635,0.1,1,0.34744,0.3888,0.6287,114,2.48999,0.26,0.13236,0.6287,5,2D1U,1.0,True,8.307,5,True,left,0.0,0.3502,0.9841,0.634,1.6167,2.1165,0.4999,V
115,115,0.49635,1.2,1,0.21508,0.25645,0.59561,115,1.91093,-0.3,-0.1489,0.34744,5,1D2U,2.0,True,0.524,4,False,right,0.0,0.217,0.5674,0.3504,1.1669,1.6676,0.5007,V
116,116,0.49635,0.1,2,0.41362,0.26472,0.50462,116,1.88612,-0.58,-0.28954,0.20681,5,1D3U,1.0,True,0.877,1,False,left,0.0,1.422,1.6308,0.2088,0.413,0.9132,0.5002,A
117,117,0.49635,1.2,1,0.43017,0.19854,0.43844,117,2.1922,0.26,0.13236,0.6287,5,2D1U,2.0,False,1.908,5,True,right,0.0,0.4317,1.0656,0.6338,1.5073,2.0076,0.5003,V
118,118,0.49635,0.1,2,0.19854,0.28954,0.66179,118,2.27492,0.26,0.13236,0.6287,5,3D1U,2.0,True,0.851,4,True,right,0.0,1.3664,1.9998,0.6334,0.2003,0.7002,0.4999,V
119,119,0.49635,0.1,1,0.34744,0.43844,0.82724,119,2.1591,-0.9,-0.44671,0.04963,5,lapse_rate,2.0,True,0.11,0,False,right,0.0,0.3467,0.3967,0.0501,1.2302,1.7301,0.5,A
120,120,0.49635,1.2,1,0.28954,0.3309,0.40535,120,1.86958,-0.3,-0.1489,0.34744,5,1D2U,1.0,False,2.718,4,False,left,0.0,0.2929,0.6428,0.3498,1.0508,1.5509,0.5001,A
121,121,0.49635,0.1,1,0.39708,0.28954,0.76106,121,2.15084,-0.58,-0.28954,0.20681,5,1D3U,2.0,True,0.183,1,False,right,0.0,0.3966,0.6045,0.2079,1.3712,1.8709,0.4997,A
122,122,0.49635,1.2,1,0.24817,0.42189,0.85206,122,2.64717,0.26,0.13236,0.6287,5,3D1U,2.0,False,1.866,4,True,right,0.0,0.2489,0.882,0.6332,1.7403,2.2409,0.5006,A
123,123,0.49635,0.1,2,0.34744,0.32262,0.82724,123,2.24182,-0.5,-0.24817,0.24817,5,1D3U,1.0,True,2.226,1,False,left,0.0,1.6849,1.9348,0.2498,0.3526,0.8516,0.499,A
124,124,0.49635,1.2,2,0.37226,0.3888,0.43017,124,2.3411,0.3,0.1489,0.65352,5,2D1U,2.0,True,0.375,6,True,right,0.0,1.3051,1.9636,0.6585,0.3717,0.8713,0.4996,A
125,125,0.49635,0.1,1,0.42189,0.2399,0.6287,125,2.11774,-0.34,-0.17372,0.3309,5,1D2U,2.0,True,0.617,5,True,right,0.0,0.4244,0.758,0.3336,1.3905,1.8907,0.5002,A
126,126,0.49635,0.1,2,0.22336,0.21508,0.52116,126,2.40728,0.9,0.44671,0.95133,5,lapse_rate,2.0,True,0.233,0,False,right,0.0,1.2507,2.2091,0.9584,0.2253,0.726,0.5007,V
127,127,0.49635,1.2,1,0.37226,0.23163,0.86033,127,2.61409,0.3,0.1489,0.65352,5,2D1U,1.0,True,6.208,6,True,left,0.0,0.3716,1.0295,0.658,1.8961,2.3962,0.5001,V
128,128,0.49635,0.1,2,0.28126,0.36399,0.63698,128,1.82821,-0.9,-0.44671,0.04963,5,lapse_rate,1.0,True,0.626,0,False,left,0.0,1.4207,1.4711,0.0504,0.2791,0.78,0.5009,A
129,129,0.49635,0.1,1,0.2399,0.22336,0.77761,129,2.39074,0.3,0.1489,0.65352,5,3D1U,1.0,True,0.758,4,False,left,0.0,0.2376,0.8963,0.6588,1.6792,2.1792,0.5,A
130,130,0.49635,1.2,1,0.28126,0.21508,0.88515,130,2.20874,-0.34,-0.17372,0.3309,5,1D2U,2.0,True,0.334,5,True,right,0.0,0.2786,0.6123,0.3337,1.504,2.0036,0.4996,A
131,131,0.49635,0.1,2,0.35571,0.34744,0.82724,131,2.27491,-0.5,-0.24817,0.24817,5,1D3U,1.0,True,0.409,1,False,left,0.0,1.6945,1.944,0.2494,0.3608,0.8621,0.5012,A
132,132,0.49635,1.2,1,0.37226,0.43844,0.76934,132,2.72991,0.3,0.1489,0.65352,5,3D1U,2.0,False,1.717,4,False,right,0.0,0.371,1.0296,0.6586,1.8042,2.3046,0.5003,A
133,133,0.49635,0.1,1,0.21508,0.24817,0.6287,133,1.93574,-0.3,-0.1489,0.34744,5,1D2U,2.0,True,3.326,6,True,right,0.0,0.2176,0.5677,0.3501,1.2011,1.701,0.4999,V
134,134,0.49635,1.2,2,0.26472,0.28126,0.78588,134,2.07638,-0.5,-0.24817,0.24817,5,1D3U,1.0,True,0.716,1,False,left,0.0,1.557,1.8075,0.2505,0.2649,0.7656,0.5007,V
135,135,0.49635,1.2,2,0.38053,0.41362,0.78588,135,3.02771,0.9,0.44671,0.95133,5,lapse_rate,2.0,True,0.114,0,False,right,0.0,1.677,2.6346,0.9576,0.3854,0.8847,0.4993,V
136,136,0.49635,0.1,1,0.32262,0.29781,0.82724,136,2.57272,0.26,0.13236,0.6287,5,2D1U,2.0,False,2.675,7,True,right,0.0,0.3219,0.9556,0.6337,1.7888,2.2885,0.4997,A
137,137,0.49635,1.2,1,0.36399,0.29781,0.75279,137,2.20048,-0.42,-0.20681,0.28954,5,1D3U,2.0,True,0.909,1,False,right,0.0,0.3617,0.6536,0.2919,1.4121,1.9121,0.5,V
138,138,0.49635,0.1,1,0.35571,0.43844,0.57907,138,2.52309,0.3,0.1489,0.65352,5,2D1U,2.0,False,2.44,8,True,right,0.0,0.3613,1.0193,0.658,1.6026,2.103,0.5003,A
139,139,0.49635,1.2,1,0.27299,0.3888,0.58734,139,2.69681,0.9,0.44671,0.95133,5,lapse_rate,2.0,False,1.35,0,False,right,0.0,0.2771,1.2353,0.9582,1.8264,2.327,0.5006,A
140,140,0.49635,1.2,2,0.23163,0.42189,0.7197,140,2.21701,-0.3,-0.1489,0.34744,5,1D2U,1.0,True,3.25,6,True,left,0.0,1.4557,1.8056,0.3499,0.2311,0.7307,0.4995,A
141,141,0.49635,0.1,2,0.3309,0.42189,0.72797,141,2.64718,0.34,0.17372,0.67007,5,3D1U,1.0,False,3.818,4,False,left,0.0,1.5664,2.2412,0.6748,0.3332,0.8327,0.4995,A
142,142,0.49635,1.2,2,0.32262,0.20681,0.43844,142,2.13429,0.34,0.17372,0.67007,5,2D1U,2.0,True,0.726,8,False,right,0.0,1.2691,1.944,0.6749,0.3274,0.8271,0.4997,V
143,143,0.49635,0.1,1,0.34744,0.25645,0.66179,143,2.4321,0.34,0.17372,0.67007,5,2D1U,1.0,True,0.593,8,False,left,0.0,0.3519,1.0264,0.6745,1.6924,2.1933,0.5009,A
144,144,0.49635,1.2,2,0.3888,0.43844,0.59561,144,2.20874,-0.42,-0.20681,0.28954,5,1D3U,2.0,False,2.041,1,False,right,0.0,1.4929,1.7855,0.2926,0.3929,0.8929,0.5,A
145,145,0.49635,0.1,2,0.39708,0.25645,0.74452,145,2.58101,0.38,0.19027,0.68661,5,3D1U,2.0,True,0.326,4,False,right,0.0,1.6528,2.3449,0.692,0.4032,0.9031,0.4999,A
146,146,0.49635,1.2,1,0.41362,0.22336,0.70316,146,2.20875,-0.26,-0.13236,0.37226,5,1D2U,2.0,True,0.501,6,False,right,0.0,0.4118,0.7869,0.3751,1.4942,1.995,0.5008,A
147,147,0.49635,0.1,1,0.43844,0.42189,0.49635,147,2.12602,-0.46,-0.23163,0.27299,5,1D3U,2.0,True,0.542,2,True,right,0.0,0.4426,0.7171,0.2745,1.218,1.7173,0.4992,A
148,148,0.49635,1.2,1,0.28126,0.27299,0.65352,148,1.97711,-0.46,-0.23163,0.27299,5,1D3U,2.0,True,0.674,2,True,right,0.0,0.2829,0.5574,0.2746,1.2162,1.7158,0.4997,A
149,149,0.49635,0.1,1,0.20681,0.20681,0.76106,149,2.35764,0.38,0.19027,0.68661,5,3D1U,1.0,True,0.733,4,False,left,0.0,0.2079,0.9006,0.6927,1.6668,2.1662,0.4993,V
150,150,0.49635,1.2,2,0.39708,0.36399,0.49635,150,2.12603,-0.26,-0.13236,0.37226,5,1D2U,2.0,False,0.426,6,False,right,0.0,1.4,1.7747,0.3748,0.3998,0.9,0.5002,A
151,151,0.49635,0.1,2,0.43017,0.35571,0.50462,151,2.44037,0.3,0.1489,0.65352,5,2D1U,2.0,True,2.293,9,True,right,0.0,1.4396,2.098,0.6584,0.4309,0.9313,0.5003,A
152,152,0.49635,1.2,1,0.35571,0.40535,0.81897,152,2.7299,0.3,0.1489,0.65352,5,2D1U,1.0,True,0.459,9,True,left,0.0,0.3612,1.0191,0.6579,1.8444,2.3446,0.5002,V
153,153,0.49635,0.1,1,0.35571,0.32262,0.63698,153,2.08465,-0.46,-0.23163,0.27299,5,1D3U,2.0,True,0.274,2,True,right,0.0,0.3565,0.6313,0.2748,1.2729,1.7733,0.5004,V
154,154,0.49635,1.2,2,0.21508,0.44671,0.80243,154,2.25011,-0.42,-0.20681,0.28954,5,1D3U,1.0,True,0.433,3,True,left,0.0,1.5223,1.8141,0.2918,0.2139,0.7133,0.4994,V
155,155,0.49635,0.1,1,0.36399,0.2399,0.84379,155,2.29147,-0.3,-0.1489,0.34744,5,1D2U,2.0,True,0.75,7,True,right,0.0,0.3658,0.7151,0.3493,1.5656,2.0655,0.5,V
156,156,0.49635,1.2,1,0.35571,0.28954,0.72797,156,2.55618,0.38,0.19027,0.68661,5,3D1U,1.0,True,0.567,4,False,left,0.0,0.3542,1.0463,0.6921,1.779,2.2794,0.5005,A
157,157,0.49635,0.1,2,0.30608,0.37226,0.77761,157,2.24184,-0.42,-0.20681,0.28954,5,1D3U,1.0,True,0.624,3,True,left,0.0,1.5886,1.8803,0.2917,0.3053,0.8054,0.5,A
158,158,0.49635,1.2,1,0.22336,0.39708,0.72797,158,2.51483,0.34,0.17372,0.67007,5,3D1U,1.0,True,0.826,5,True,left,0.0,0.2254,0.9001,0.6747,1.6338,2.1327,0.4988,A
159,159,0.49635,0.1,1,0.37226,0.29781,0.85206,159,2.64718,0.26,0.13236,0.6287,5,2D1U,1.0,True,0.332,9,False,left,0.0,0.3715,1.0043,0.6328,1.8627,2.3628,0.5001,V
160,160,0.49635,1.2,1,0.23163,0.20681,0.59561,160,1.87784,-0.3,-0.1489,0.34744,5,1D2U,2.0,True,1.409,7,True,right,0.0,0.2323,0.5819,0.3497,1.1825,1.6819,0.4994,V
161,161,0.49635,0.1,2,0.28954,0.24817,0.79415,161,2.11775,-0.42,-0.20681,0.28954,5,1D3U,1.0,True,2.126,3,True,left,0.0,1.5926,1.8843,0.2918,0.2922,0.7927,0.5005,V
162,162,0.49635,1.2,2,0.20681,0.31435,0.53771,162,1.92748,-0.26,-0.13236,0.37226,5,1D2U,2.0,False,1.8,8,True,right,0.0,1.2471,1.6222,0.3751,0.205,0.7058,0.5008,A
163,163,0.49635,0.1,2,0.27299,0.22336,0.72797,163,2.34937,0.26,0.13236,0.6287,5,2D1U,2.0,True,2.233,9,False,right,0.0,1.5098,2.1435,0.6337,0.2769,0.7771,0.5001,A
164,164,0.49635,1.2,1,0.30608,0.31435,0.42189,164,2.20874,0.34,0.17372,0.67007,5,3D1U,2.0,False,2.192,5,True,right,0.0,0.3046,0.9796,0.675,1.4043,1.9047,0.5004,A
165,165,0.49635,0.1,1,0.24817,0.30608,0.84379,165,2.20047,-0.38,-0.19027,0.30608,5,1D3U,2.0,True,0.175,3,False,right,0.0,0.2497,0.5585,0.3088,1.4086,1.9086,0.5,V
166,166,0.49635,1.2,2,0.25645,0.20681,0.7197,166,2.02675,-0.3,-0.1489,0.34744,5,1D2U,2.0,False,1.925,9,True,right,0.0,1.4797,1.8302,0.3505,0.2545,0.7547,0.5002,V
167,167,0.49635,0.1,2,0.39708,0.28126,0.4798,167,1.96057,-0.38,-0.19027,0.30608,5,1D3U,1.0,True,0.834,3,False,left,0.0,1.386,1.6945,0.3085,0.4031,0.9041,0.501,V
168,168,0.49635,1.2,2,0.35571,0.24817,0.45498,168,1.86129,-0.38,-0.19027,0.30608,5,1D3U,1.0,True,0.899,3,False,left,0.0,1.3174,1.6254,0.308,0.3586,0.8595,0.5008,V
169,169,0.49635,0.1,1,0.25645,0.30608,0.60389,169,1.99367,-0.34,-0.17372,0.3309,5,1D2U,1.0,False,0.491,9,False,left,0.0,0.2578,0.5913,0.3335,1.1996,1.6991,0.4995,V
170,170,0.49635,1.2,2,0.3309,0.34744,0.88515,170,2.74645,0.38,0.19027,0.68661,5,3D1U,2.0,True,0.25,6,True,right,0.0,1.724,2.4143,0.6904,0.3319,0.8318,0.4999,A
171,171,0.49635,0.1,2,0.35571,0.3888,0.52116,171,2.37418,0.22,0.10754,0.61216,5,2D1U,2.0,True,0.356,9,False,right,0.0,1.3747,1.9888,0.6141,0.3547,0.8543,0.4996,V
172,172,0.49635,1.2,2,0.40535,0.20681,0.53771,172,1.9523,-0.38,-0.19027,0.30608,5,1D2U,1.0,True,0.976,9,False,left,0.0,1.449,1.7578,0.3088,0.4074,0.9077,0.5003,A
173,173,0.49635,0.1,1,0.22336,0.20681,0.42189,173,1.67931,-0.34,-0.17372,0.3309,5,1D3U,1.0,False,0.85,3,False,left,0.0,0.225,0.5588,0.3338,0.984,1.4837,0.4997,A
174,174,0.49635,1.2,2,0.28954,0.2399,0.55425,174,2.26665,0.38,0.19027,0.68661,5,3D1U,2.0,True,0.367,6,True,right,0.0,1.3483,2.0399,0.6916,0.2906,0.7897,0.499,V
175,175,0.49635,0.1,1,0.27299,0.2399,0.72797,175,2.34937,0.22,0.10754,0.61216,5,2D1U,1.0,True,2.533,9,False,left,0.0,0.2785,0.8945,0.6159,1.6285,2.1276,0.4992,A
176,176,0.49635,1.2,2,0.38053,0.31435,0.83552,176,2.61409,0.18,0.091,0.58734,5,2D1U,2.0,True,0.492,9,False,right,0.0,1.7203,2.3123,0.592,0.3795,0.8795,0.5,V
177,177,0.49635,0.1,1,0.39708,0.28954,0.47153,177,2.34111,0.38,0.19027,0.68661,5,3D1U,1.0,True,2.117,6,True,left,0.0,0.3993,1.091,0.6916,1.5659,2.0661,0.5002,V
178,178,0.49635,1.2,2,0.41362,0.32262,0.78588,178,2.32455,-0.38,-0.19027,0.30608,5,1D2U,1.0,True,0.434,9,False,left,0.0,1.7034,2.0121,0.3087,0.4119,0.9122,0.5003,A
179,179,0.49635,0.1,2,0.43844,0.21508,0.62043,179,2.07638,-0.38,-0.19027,0.30608,5,1D3U,1.0,True,0.909,4,True,left,0.0,1.5653,1.8735,0.3082,0.4402,0.9402,0.5,V
180,180,0.49635,1.2,1,0.22336,0.40535,0.62043,180,2.33283,0.18,0.091,0.58734,5,2D1U,2.0,False,1.817,9,False,right,0.0,0.2264,0.8175,0.5911,1.4426,1.9428,0.5002,A
181,181,0.49635,0.1,2,0.40535,0.35571,0.43844,181,2.30801,0.22,0.10754,0.61216,5,2D1U,2.0,True,2.383,10,True,right,0.0,1.3508,1.9669,0.6161,0.4089,0.9093,0.5004,A
182,182,0.49635,1.2,1,0.44671,0.41362,0.8107,182,2.49828,-0.34,-0.17372,0.3309,5,1D2U,2.0,True,1.542,10,True,right,0.0,0.4499,0.7837,0.3337,1.6004,2.1004,0.5001,A
183,183,0.49635,0.1,2,0.28954,0.22336,0.76106,183,2.38247,0.22,0.10754,0.61216,5,2D1U,2.0,True,1.65,10,True,right,0.0,1.557,2.1741,0.617,0.2909,0.7907,0.4998,V
184,184,0.49635,1.2,1,0.44671,0.44671,0.63698,184,2.33283,-0.38,-0.19027,0.30608,5,1D3U,2.0,True,0.309,4,True,right,0.0,0.4503,0.758,0.3077,1.3999,1.9,0.5001,V
185,185,0.49635,0.1,2,0.19854,0.25645,0.67834,185,2.29975,0.34,0.17372,0.67007,5,3D1U,2.0,True,0.45,7,True,right,0.0,1.3861,2.0609,0.6748,0.2022,0.7028,0.5006,V
186,186,0.49635,1.2,1,0.38053,0.35571,0.60389,186,2.16738,-0.34,-0.17372,0.3309,5,1D2U,2.0,True,0.467,10,True,right,0.0,0.379,0.7125,0.3335,1.3208,1.8208,0.5,V
187,187,0.49635,0.1,1,0.28954,0.30608,0.71143,187,2.10948,-0.38,-0.19027,0.30608,5,1D3U,1.0,False,0.866,4,True,left,0.0,0.2941,0.6023,0.3082,1.3197,1.8198,0.5001,V
188,188,0.49635,1.2,1,0.3309,0.29781,0.68661,188,2.10121,-0.42,-0.20681,0.28954,5,1D3U,2.0,True,0.809,4,False,right,0.0,0.3285,0.6209,0.2924,1.3122,1.8121,0.4999,V
189,189,0.49635,0.1,1,0.31435,0.27299,0.75279,189,2.18392,-0.3,-0.1489,0.34744,5,1D2U,2.0,True,0.742,10,False,right,0.0,0.3145,0.6652,0.3507,1.4232,1.9234,0.5001,A
190,190,0.49635,1.2,1,0.28954,0.29781,0.73625,190,2.40729,0.18,0.091,0.58734,5,2D1U,2.0,False,0.491,11,True,right,0.0,0.2937,0.886,0.5923,1.6276,2.1273,0.4997,V
191,191,0.49635,0.1,1,0.42189,0.38053,0.67834,191,2.64718,0.34,0.17372,0.67007,5,3D1U,2.0,False,0.367,7,True,right,0.0,0.4286,1.1033,0.6746,1.7868,2.2865,0.4997,A
192,192,0.49635,1.2,1,0.32262,0.22336,0.58734,192,1.91921,-0.42,-0.20681,0.28954,5,1D3U,2.0,True,0.734,4,False,right,0.0,0.3227,0.6147,0.292,1.206,1.7058,0.4997,V
193,193,0.49635,0.1,1,0.19854,0.36399,0.86033,193,2.60582,0.38,0.19027,0.68661,5,3D1U,1.0,True,0.551,8,True,left,0.0,0.1998,0.8916,0.6918,1.7586,2.2581,0.4995,V
194,194,0.49635,1.2,1,0.43844,0.41362,0.82724,194,2.78781,0.22,0.10754,0.61216,5,2D1U,2.0,False,0.358,12,True,right,0.0,0.4416,1.0575,0.6158,1.8911,2.3916,0.5005,A
195,195,0.49635,0.1,2,0.39708,0.31435,0.7197,195,2.27492,-0.3,-0.1489,0.34744,5,1D2U,1.0,True,0.334,10,False,left,0.0,1.6259,1.9758,0.3499,0.4006,0.9005,0.5,A
196,196,0.49635,1.2,1,0.41362,0.20681,0.43844,196,1.92748,-0.26,-0.13236,0.37226,5,1D2U,2.0,True,3.425,10,False,right,0.0,0.4143,0.7895,0.3752,1.2308,1.7313,0.5004,A
197,197,0.49635,0.1,1,0.39708,0.43017,0.8107,197,2.763,0.26,0.13236,0.6287,5,2D1U,1.0,True,0.626,12,False,left,0.0,0.3977,1.0321,0.6344,1.8489,2.3487,0.4999,V
198,198,0.49635,1.2,1,0.32262,0.22336,0.86861,198,2.59755,0.38,0.19027,0.68661,5,3D1U,1.0,True,0.584,8,True,left,0.0,0.3247,1.0161,0.6914,1.8921,2.3916,0.4994,V
199,199,0.49635,0.1,2,0.35571,0.28126,0.68661,199,2.19219,-0.26,-0.13236,0.37226,5,1D2U,1.0,True,0.309,10,False,left,0.0,1.5459,1.9213,0.3754,0.355,0.8542,0.4992,V
200,200,0.49635,1.2,2,0.32262,0.26472,0.5708,200,1.94403,-0.42,-0.20681,0.28954,5,1D3U,1.0,True,0.434,4,False,left,0.0,1.401,1.6927,0.2917,0.3261,0.8257,0.4996,V
201,201,0.49635,0.1,2,0.43844,0.33917,0.51289,201,2.09293,-0.38,-0.19027,0.30608,5,1D3U,1.0,True,0.27,5,True,left,0.0,1.4544,1.763,0.3086,0.4369,0.9378,0.5009,V
202,202,0.49635,1.2,1,0.41362,0.42189,0.78588,202,2.74644,0.26,0.13236,0.6287,5,2D1U,1.0,True,0.325,12,False,left,0.0,0.4191,1.0519,0.6327,1.8438,2.3433,0.4995,A
203,203,0.49635,0.1,2,0.44671,0.37226,0.54598,203,2.2501,-0.22,-0.10754,0.3888,5,1D2U,1.0,True,0.368,10,False,left,0.0,1.4979,1.8893,0.3914,0.4485,0.9481,0.4996,V
204,204,0.49635,1.2,2,0.33917,0.23163,0.75279,204,2.20874,-0.22,-0.10754,0.3888,5,1D2U,1.0,True,0.384,10,False,left,0.0,1.6015,1.9925,0.391,0.3433,0.8434,0.5001,V
205,205,0.49635,0.1,1,0.37226,0.36399,0.61216,205,2.53137,0.38,0.19027,0.68661,5,3D1U,1.0,True,0.19,8,True,left,0.0,0.3732,1.0642,0.691,1.6811,2.1813,0.5001,V
206,206,0.49635,1.2,1,0.28954,0.28954,0.83552,206,2.21703,-0.38,-0.19027,0.30608,5,1D3U,2.0,True,0.285,5,True,right,0.0,0.2927,0.6015,0.3088,1.4428,1.9433,0.5005,A
207,207,0.49635,0.1,2,0.42189,0.28126,0.50462,207,2.31628,0.22,0.10754,0.61216,5,2D1U,2.0,True,0.397,13,True,right,0.0,1.4285,2.0451,0.6167,0.4203,0.9204,0.5001,V
208,208,0.49635,1.2,1,0.28954,0.34744,0.87688,208,2.68028,0.34,0.17372,0.67007,5,3D1U,2.0,False,0.634,9,True,right,0.0,0.2931,0.968,0.6749,1.8515,2.3513,0.4997,A
209,209,0.49635,0.1,2,0.2399,0.21508,0.67834,209,1.93575,-0.38,-0.19027,0.30608,5,1D3U,1.0,True,0.425,5,True,left,0.0,1.4255,1.7339,0.3084,0.243,0.7437,0.5007,V
210,210,0.49635,1.2,1,0.36399,0.42189,0.43844,210,2.05157,-0.34,-0.17372,0.3309,5,1D3U,2.0,True,0.63,5,False,right,0.0,0.3625,0.6957,0.3331,1.1371,1.6382,0.5011,V
211,211,0.49635,0.1,1,0.19854,0.35571,0.42189,211,1.88611,-0.18,-0.091,0.41362,5,1D2U,2.0,True,0.274,10,False,right,0.0,0.2015,0.619,0.4175,1.0448,1.5432,0.4984,V
212,212,0.49635,1.2,2,0.21508,0.28126,0.86033,212,2.53963,0.38,0.19027,0.68661,5,3D1U,2.0,True,0.375,10,True,right,0.0,1.5873,2.2793,0.692,0.2198,0.7207,0.5009,A
213,213,0.49635,0.1,2,0.31435,0.3309,0.57907,213,2.13429,-0.18,-0.091,0.41362,5,1D2U,1.0,True,0.367,10,False,left,0.0,1.396,1.8123,0.4162,0.3126,0.812,0.4994,V
214,214,0.49635,1.2,1,0.3309,0.28126,0.42189,214,1.8613,-0.34,-0.17372,0.3309,5,1D3U,2.0,True,0.284,5,False,right,0.0,0.3365,0.6697,0.3332,1.095,1.5954,0.5003,A
215,215,0.49635,0.1,2,0.23163,0.30608,0.62043,215,1.98539,-0.34,-0.17372,0.3309,5,1D3U,1.0,True,0.25,5,False,left,0.0,1.3604,1.694,0.3336,0.2359,0.7363,0.5004,A
216,216,0.49635,1.2,2,0.31435,0.43017,0.77761,216,2.63064,0.22,0.10754,0.61216,5,2D1U,2.0,True,0.243,13,True,right,0.0,1.5995,2.2162,0.6168,0.3162,0.8158,0.4996,V
217,217,0.49635,0.1,2,0.34744,0.23163,0.74452,217,2.25011,-0.14,-0.06618,0.43017,5,1D2U,2.0,False,0.575,10,False,right,0.0,1.6021,2.0355,0.4334,0.3519,0.8516,0.4997,V
218,218,0.49635,1.2,2,0.26472,0.33917,0.47153,218,1.98539,-0.18,-0.091,0.41362,5,1D2U,2.0,False,1.976,11,True,right,0.0,1.2381,1.655,0.4169,0.2643,0.764,0.4997,V
219,219,0.49635,0.1,1,0.22336,0.37226,0.4798,219,1.91921,-0.3,-0.1489,0.34744,5,1D3U,2.0,True,0.33,5,False,right,0.0,0.2212,0.5711,0.3499,1.0545,1.5543,0.4999,A
220,220,0.49635,1.2,2,0.31435,0.3309,0.43017,220,2.15911,0.18,0.091,0.58734,5,2D1U,2.0,True,0.425,13,False,right,0.0,1.249,1.8407,0.5917,0.3157,0.8159,0.5003,V
221,221,0.49635,0.1,1,0.36399,0.28126,0.71143,221,2.53964,0.38,0.19027,0.68661,5,3D1U,1.0,True,0.324,10,True,left,0.0,0.3677,1.0599,0.6922,1.7765,2.2759,0.4994,A
222,222,0.49635,1.2,1,0.41362,0.39708,0.75279,222,2.40728,-0.3,-0.1489,0.34744,5,1D3U,2.0,True,0.3,5,False,right,0.0,0.42,0.7691,0.3491,1.5287,2.0281,0.4995,V
223,223,0.49635,0.1,2,0.24817,0.39708,0.87688,223,2.70509,0.38,0.19027,0.68661,5,3D1U,1.0,False,0.275,10,True,left,0.0,1.634,2.326,0.692,0.251,0.7508,0.4998,V
224,224,0.49635,1.2,1,0.27299,0.43017,0.45498,224,2.04329,-0.22,-0.10754,0.3888,5,1D2U,2.0,True,0.551,11,False,right,0.0,0.2745,0.6666,0.3921,1.1257,1.6257,0.4999,V
225,225,0.49635,0.1,1,0.28954,0.3309,0.89342,225,2.39901,-0.22,-0.10754,0.3888,5,1D2U,2.0,True,0.111,11,False,right,0.0,0.2907,0.6826,0.3919,1.5817,2.082,0.5003,A
226,226,0.49635,1.2,1,0.44671,0.43844,0.85206,226,2.8209,0.18,0.091,0.58734,5,2D1U,2.0,False,1.924,13,False,right,0.0,0.4483,1.0399,0.5917,1.8976,2.3974,0.4998,V
227,227,0.49635,0.1,2,0.35571,0.20681,0.87688,227,2.28319,-0.3,-0.1489,0.34744,5,1D3U,1.0,True,0.309,5,False,left,0.0,1.7436,2.0933,0.3497,0.3597,0.8597,0.5,A
228,228,0.49635,1.2,2,0.3309,0.40535,0.67834,228,2.62237,0.42,0.20681,0.71143,5,3D1U,2.0,True,0.383,10,False,right,0.0,1.5154,2.2321,0.7167,0.3323,0.8323,0.5,A
229,229,0.49635,0.1,1,0.38053,0.21508,0.65352,229,2.1591,-0.18,-0.091,0.41362,5,1D2U,1.0,False,0.458,12,True,left,0.0,0.3824,0.7988,0.4164,1.4572,1.9574,0.5002,A
230,230,0.49635,1.2,1,0.26472,0.43844,0.47153,230,2.2832,0.22,0.10754,0.61216,5,2D1U,2.0,False,0.275,14,True,right,0.0,0.2645,0.8814,0.6168,1.3568,1.8565,0.4997,V
231,231,0.49635,0.1,2,0.26472,0.28954,0.58734,231,2.01021,-0.26,-0.13236,0.37226,5,1D3U,1.0,True,0.376,5,False,left,0.0,1.3535,1.7283,0.3748,0.2618,0.7617,0.4999,A
232,232,0.49635,1.2,1,0.42189,0.43017,0.52944,232,2.58928,0.42,0.20681,0.71143,5,3D1U,1.0,True,0.509,10,False,left,0.0,0.4223,1.1388,0.7165,1.6719,2.1719,0.5,V
233,233,0.49635,0.1,2,0.33917,0.36399,0.41362,233,2.32456,0.42,0.20681,0.71143,5,3D1U,2.0,True,0.251,10,False,right,0.0,1.2564,1.9725,0.7161,0.3394,0.8397,0.5003,A
234,234,0.49635,1.2,2,0.24817,0.22336,0.78588,234,2.12602,-0.26,-0.13236,0.37226,5,1D3U,1.0,True,0.475,5,False,left,0.0,1.5397,1.9152,0.3755,0.2484,0.7487,0.5003,A
235,235,0.49635,0.1,2,0.37226,0.26472,0.51289,235,2.27492,0.26,0.13236,0.6287,5,2D1U,2.0,True,2.4,14,False,right,0.0,1.3907,2.0243,0.6336,0.3744,0.8741,0.4997,V
236,236,0.49635,1.2,1,0.28126,0.35571,0.62043,236,2.14255,-0.22,-0.10754,0.3888,5,1D2U,2.0,True,0.767,13,True,right,0.0,0.2801,0.6718,0.3917,1.2967,1.7969,0.5002,A
237,237,0.49635,0.1,1,0.30608,0.44671,0.87688,237,2.49828,-0.26,-0.13236,0.37226,5,1D3U,1.0,False,1.817,5,False,left,0.0,0.3062,0.681,0.3748,1.5647,2.0653,0.5006,V
238,238,0.49635,1.2,2,0.2399,0.3309,0.83552,238,2.53137,0.26,0.13236,0.6287,5,2D1U,2.0,True,0.593,14,False,right,0.0,1.5831,2.2162,0.6331,0.2418,0.7413,0.4995,V
239,239,0.49635,0.1,1,0.19854,0.29781,0.7197,239,2.39901,0.38,0.19027,0.68661,5,3D1U,1.0,True,0.192,11,True,left,0.0,0.2017,0.893,0.6913,1.6186,2.1184,0.4998,A
240,240,0.49635,1.2,1,0.34744,0.43844,0.43017,240,2.1012,-0.22,-0.10754,0.3888,5,1D2U,2.0,True,0.4,13,True,right,0.0,0.3484,0.7403,0.3919,1.1737,1.6733,0.4996,V
241,241,0.49635,0.1,2,0.38053,0.34744,0.86033,241,2.49827,-0.18,-0.091,0.41362,5,1D2U,1.0,True,0.391,14,True,left,0.0,1.7521,2.169,0.4169,0.3856,0.8854,0.4998,V
242,242,0.49635,1.2,1,0.35571,0.28954,0.63698,242,2.46519,0.38,0.19027,0.68661,5,3D1U,2.0,False,0.793,11,True,right,0.0,0.3546,1.046,0.6914,1.6879,2.1887,0.5008,V
243,243,0.49635,0.1,2,0.43017,0.29781,0.81897,243,2.39074,-0.3,-0.1489,0.34744,5,1D3U,1.0,True,0.468,6,True,left,0.0,1.7575,2.1073,0.3498,0.4319,0.9324,0.5006,V
244,244,0.49635,1.2,1,0.19854,0.43017,0.80243,244,2.53965,0.22,0.10754,0.61216,5,2D1U,1.0,True,0.25,15,True,left,0.0,0.1998,0.8162,0.6165,1.6246,2.1243,0.4997,V
245,245,0.49635,0.1,1,0.36399,0.36399,0.86033,245,2.69682,0.22,0.10754,0.61216,5,2D1U,1.0,True,0.192,15,True,left,0.0,0.3687,0.9853,0.6166,1.8522,2.3526,0.5003,A
246,246,0.49635,1.2,2,0.28954,0.20681,0.54598,246,1.9523,-0.18,-0.091,0.41362,5,1D2U,1.0,True,0.643,14,True,left,0.0,1.34,1.7574,0.4175,0.2909,0.7897,0.4988,A
247,247,0.49635,0.1,1,0.25645,0.37226,0.8107,247,2.36593,-0.14,-0.06618,0.43017,5,1D2U,1.0,False,0.758,14,False,left,0.0,0.2563,0.6891,0.4329,1.5067,2.0064,0.4998,A
248,248,0.49635,1.2,2,0.40535,0.26472,0.61216,248,2.36592,0.18,0.091,0.58734,5,2D1U,1.0,False,0.434,15,False,left,0.0,1.5244,2.1164,0.5919,0.4087,0.9084,0.4997,V
249,249,0.49635,0.1,1,0.29781,0.22336,0.7197,249,2.08466,-0.3,-0.1489,0.34744,5,1D3U,2.0,True,0.188,6,True,right,0.0,0.2975,0.6467,0.3491,1.372,1.8732,0.5011,V
250,250,0.49635,1.2,1,0.41362,0.32262,0.47153,250,2.41555,0.42,0.20681,0.71143,5,3D1U,1.0,True,0.376,12,True,left,0.0,0.4204,1.1371,0.7167,1.6126,2.1115,0.4988,V
251,251,0.49635,0.1,1,0.38053,0.41362,0.74452,251,2.44864,-0.18,-0.091,0.41362,5,1D2U,2.0,True,0.392,15,True,right,0.0,0.3845,0.801,0.4165,1.5514,2.0516,0.5001,A
252,252,0.49635,1.2,2,0.27299,0.26472,0.50462,252,1.88612,-0.3,-0.1489,0.34744,5,1D3U,1.0,True,1.967,6,True,left,0.0,1.2806,1.6313,0.3507,0.2718,0.7724,0.5007,V
253,253,0.49635,0.1,1,0.28954,0.31435,0.52944,253,2.00194,-0.26,-0.13236,0.37226,5,1D3U,2.0,True,0.18,7,True,right,0.0,0.2889,0.6651,0.3761,1.1977,1.6983,0.5006,A
254,254,0.49635,1.2,2,0.34744,0.42189,0.4798,254,2.45691,0.42,0.20681,0.71143,5,3D1U,2.0,True,0.425,12,True,right,0.0,1.3321,2.048,0.7158,0.3487,0.8479,0.4992,V
255,255,0.49635,0.1,2,0.21508,0.39708,0.75279,255,2.27492,-0.18,-0.091,0.41362,5,1D2U,1.0,True,0.725,15,True,left,0.0,1.4735,1.8902,0.4166,0.2159,0.7153,0.4994,A
256,256,0.49635,1.2,1,0.39708,0.28126,0.73625,256,2.5231,0.22,0.10754,0.61216,5,2D1U,2.0,False,0.891,16,True,right,0.0,0.4012,1.0172,0.6161,1.7594,2.2591,0.4997,V
257,257,0.49635,0.1,2,0.37226,0.31435,0.63698,257,2.53137,0.42,0.20681,0.71143,5,3D1U,2.0,True,0.308,12,True,right,0.0,1.519,2.2357,0.7167,0.3777,0.877,0.4992,A
258,258,0.49635,1.2,2,0.28126,0.28126,0.76934,258,2.25838,-0.14,-0.06618,0.43017,5,1D2U,1.0,True,0.9,16,True,left,0.0,1.5541,1.9875,0.4334,0.279,0.7793,0.5003,A
259,259,0.49635,0.1,2,0.25645,0.28126,0.82724,259,2.23356,-0.26,-0.13236,0.37226,5,1D3U,1.0,True,0.417,7,True,left,0.0,1.5886,1.9632,0.3746,0.2552,0.7552,0.5,A
260,260,0.49635,1.2,2,0.2399,0.28954,0.46326,260,2.11775,0.26,0.13236,0.6287,5,2D1U,2.0,True,0.908,16,False,right,0.0,1.2085,1.8416,0.6331,0.2417,0.7421,0.5004,V
261,261,0.49635,0.1,1,0.42189,0.25645,0.70316,261,2.50655,0.26,0.13236,0.6287,5,2D1U,1.0,True,0.575,16,False,left,0.0,0.4207,1.0541,0.6334,1.7621,2.2626,0.5005,V
262,262,0.49635,1.2,2,0.35571,0.36399,0.84379,262,2.74645,0.38,0.19027,0.68661,5,3D1U,1.0,False,0.476,13,True,left,0.0,1.7097,2.4016,0.692,0.3595,0.8605,0.501,V
263,263,0.49635,0.1,2,0.29781,0.41362,0.90169,263,2.53964,-0.14,-0.06618,0.43017,5,1D2U,1.0,True,0.233,16,True,left,0.0,1.7071,2.1401,0.433,0.2981,0.7984,0.5003,V
264,264,0.49635,1.2,1,0.37226,0.3888,0.76934,264,2.63891,0.22,0.10754,0.61216,5,2D1U,2.0,False,0.112,17,True,right,0.0,0.3747,0.9911,0.6164,1.7662,2.2659,0.4997,V
265,265,0.49635,0.1,2,0.43017,0.35571,0.86861,265,2.5231,-0.26,-0.13236,0.37226,5,1D3U,1.0,True,0.142,7,True,left,0.0,1.8067,2.1808,0.3741,0.4312,0.9313,0.5002,A
266,266,0.49635,1.2,1,0.29781,0.21508,0.56253,266,2.2832,0.42,0.20681,0.71143,5,3D1U,1.0,True,0.351,14,True,left,0.0,0.3,1.017,0.717,1.5835,2.0833,0.4999,V
267,267,0.49635,0.1,1,0.41362,0.2399,0.62043,267,2.1591,-0.22,-0.10754,0.3888,5,1D3U,2.0,True,0.9,7,False,right,0.0,0.4124,0.8048,0.3925,1.4295,1.9297,0.5001,A
268,268,0.49635,1.2,1,0.27299,0.36399,0.77761,268,2.53964,0.26,0.13236,0.6287,5,2D1U,1.0,True,0.199,18,True,left,0.0,0.274,0.9081,0.6341,1.6906,2.1905,0.4999,V
269,269,0.49635,0.1,1,0.36399,0.29781,0.76106,269,2.36592,-0.1,-0.04963,0.44671,5,1D2U,1.0,False,0.527,16,False,left,0.0,0.3692,0.8185,0.4493,1.5849,2.0855,0.5005,V
270,270,0.49635,1.2,1,0.43017,0.29781,0.42189,270,2.35765,0.42,0.20681,0.71143,5,3D1U,2.0,False,0.341,14,True,right,0.0,0.435,1.1513,0.7163,1.5769,2.077,0.5001,A
271,271,0.49635,0.1,1,0.29781,0.3309,0.64525,271,2.15911,-0.22,-0.10754,0.3888,5,1D3U,1.0,False,0.434,7,False,left,0.0,0.2995,0.6916,0.3922,1.3412,1.8416,0.5004,V
272,272,0.49635,1.2,2,0.31435,0.41362,0.49635,272,2.44864,0.46,0.23163,0.72797,5,3D1U,2.0,True,0.107,14,False,right,0.0,1.3165,2.0498,0.7333,0.3161,0.8167,0.5006,V
273,273,0.49635,0.1,2,0.34744,0.28954,0.86861,273,2.63064,0.26,0.13236,0.6287,5,2D1U,1.0,False,0.567,18,True,left,0.0,1.7213,2.3552,0.6339,0.3464,0.8463,0.4999,A
274,274,0.49635,1.2,1,0.3888,0.32262,0.76934,274,2.40728,-0.14,-0.06618,0.43017,5,1D2U,2.0,True,0.292,17,True,right,0.0,0.3891,0.8238,0.4346,1.5981,2.098,0.4999,V
275,275,0.49635,0.1,1,0.41362,0.20681,0.76934,275,2.25838,-0.26,-0.13236,0.37226,5,1D3U,2.0,True,0.433,8,True,right,0.0,0.4198,0.7952,0.3753,1.5695,2.07,0.5005,A
276,276,0.49635,1.2,1,0.28954,0.32262,0.74452,276,2.581,0.46,0.23163,0.72797,5,3D1U,1.0,True,0.25,14,False,left,0.0,0.295,1.0282,0.7331,1.7779,2.2784,0.5004,V
277,277,0.49635,0.1,1,0.3309,0.43844,0.46326,277,2.38247,0.3,0.1489,0.65352,5,2D1U,2.0,False,1.001,18,False,right,0.0,0.3323,0.9914,0.6591,1.4571,1.9577,0.5006,V
278,278,0.49635,1.2,1,0.41362,0.40535,0.87688,278,2.92017,0.46,0.23163,0.72797,5,3D1U,1.0,True,0.11,14,False,left,0.0,0.4165,1.149,0.7325,2.0333,2.5327,0.4994,A
279,279,0.49635,0.1,2,0.44671,0.36399,0.51289,279,2.53137,0.42,0.20681,0.71143,5,3D1U,2.0,True,0.167,15,True,right,0.0,1.4683,2.1853,0.717,0.4512,0.9509,0.4997,V
280,280,0.49635,1.2,1,0.21508,0.40535,0.74452,280,2.23356,-0.26,-0.13236,0.37226,5,1D3U,2.0,True,0.55,8,True,right,0.0,0.2152,0.5894,0.3741,1.3403,1.8399,0.4995,V
281,281,0.49635,0.1,2,0.27299,0.36399,0.55425,281,2.11775,-0.14,-0.06618,0.43017,5,1D2U,1.0,True,1.409,17,True,left,0.0,1.3323,1.7656,0.4333,0.2739,0.774,0.5,V
282,282,0.49635,1.2,1,0.3309,0.23163,0.49635,282,2.26666,0.42,0.20681,0.71143,5,3D1U,1.0,True,0.491,15,True,left,0.0,0.3354,1.0529,0.7175,1.5539,2.053,0.4991,V
283,283,0.49635,0.1,2,0.21508,0.43017,0.53771,283,2.05157,-0.26,-0.13236,0.37226,5,1D3U,1.0,True,0.2,8,True,left,0.0,1.2553,1.6302,0.3749,0.213,0.7134,0.5004,V
284,284,0.49635,1.2,1,0.31435,0.43017,0.83552,284,2.74646,0.34,0.17372,0.67007,5,2D1U,1.0,True,0.116,18,False,left,0.0,0.3163,0.9911,0.6747,1.8327,2.3332,0.5004,A
285,285,0.49635,0.1,1,0.35571,0.31435,0.49635,285,2.33283,0.34,0.17372,0.67007,5,2D1U,1.0,True,0.325,18,False,left,0.0,0.3582,1.0333,0.6751,1.534,2.0332,0.4992,V
286,286,0.49635,1.2,1,0.43017,0.24817,0.62043,286,2.24183,-0.1,-0.04963,0.44671,5,1D2U,2.0,True,0.46,18,True,right,0.0,0.43,0.8803,0.4502,1.5049,2.0045,0.4996,V
287,287,0.49635,0.1,1,0.26472,0.24817,0.88515,287,2.28319,-0.22,-0.10754,0.3888,5,1D3U,1.0,False,0.859,9,True,left,0.0,0.263,0.6552,0.3922,1.5468,2.0469,0.5001,A
288,288,0.49635,1.2,1,0.2399,0.21508,0.47153,288,2.13429,0.42,0.20681,0.71143,5,3D1U,1.0,True,0.409,15,True,left,0.0,0.2419,0.9583,0.7165,1.4328,1.9338,0.501,V
289,289,0.49635,0.1,1,0.43017,0.44671,0.51289,289,2.57273,0.38,0.19027,0.68661,5,3D1U,1.0,True,0.367,15,False,left,0.0,0.4364,1.1287,0.6923,1.6453,2.1448,0.4995,A
290,290,0.49635,1.2,1,0.29781,0.22336,0.77761,290,2.24184,-0.1,-0.04963,0.44671,5,1D2U,1.0,False,0.475,18,True,left,0.0,0.3033,0.7531,0.4497,1.5365,2.0365,0.5001,A
291,291,0.49635,0.1,1,0.30608,0.43017,0.61216,291,2.49828,0.3,0.1489,0.65352,5,2D1U,1.0,True,0.108,19,True,left,0.0,0.3063,0.9645,0.6582,1.5806,2.0811,0.5005,A
292,292,0.49635,1.2,2,0.32262,0.40535,0.88515,292,2.79608,0.38,0.19027,0.68661,5,3D1U,1.0,False,1.101,15,False,left,0.0,1.716,2.4077,0.6917,0.3239,0.8241,0.5002,V
293,293,0.49635,0.1,1,0.3888,0.43844,0.43844,293,2.1922,-0.14,-0.06618,0.43017,5,1D2U,2.0,True,0.926,19,True,right,0.0,0.3912,0.8245,0.4333,1.267,1.7668,0.4998,A
294,294,0.49635,1.2,2,0.30608,0.44671,0.79415,294,2.69681,0.3,0.1489,0.65352,5,2D1U,2.0,True,0.358,19,True,right,0.0,1.6038,2.2617,0.6579,0.3027,0.8035,0.5008,V
295,295,0.49635,0.1,1,0.25645,0.26472,0.61216,295,2.25838,0.26,0.13236,0.6287,5,2D1U,2.0,False,2.258,19,False,right,0.0,0.2592,0.8914,0.6322,1.5091,2.0093,0.5003,A
296,296,0.49635,1.2,1,0.36399,0.31435,0.80243,296,2.68855,0.42,0.20681,0.71143,5,3D1U,1.0,True,0.3,16,True,left,0.0,0.3658,1.0832,0.7175,1.8911,2.3909,0.4999,V
297,297,0.49635,0.1,1,0.2399,0.28126,0.59561,297,2.32455,0.42,0.20681,0.71143,5,3D1U,1.0,True,0.367,16,True,left,0.0,0.2396,0.9561,0.7164,1.5561,2.056,0.4999,V
298,298,0.49635,1.2,2,0.28126,0.20681,0.65352,298,2.34937,0.42,0.20681,0.71143,5,3D1U,2.0,True,0.125,16,True,right,0.0,1.4416,2.158,0.7164,0.2837,0.7833,0.4996,A
299,299,0.49635,0.1,1,0.33917,0.29781,0.49635,299,2.05985,-0.14,-0.06618,0.43017,5,1D2U,2.0,True,0.659,19,True,right,0.0,0.3438,0.7774,0.4335,1.2772,1.7774,0.5002,A
300,300,0.49635,1.2,2,0.28126,0.43017,0.89342,300,2.75472,0.3,0.1489,0.65352,5,2D1U,2.0,True,0.834,20,True,right,0.0,1.6801,2.3385,0.6584,0.2794,0.7797,0.5003,A
301,301,0.49635,0.1,1,0.20681,0.27299,0.90169,301,2.56445,0.38,0.19027,0.68661,5,3D1U,1.0,True,0.558,17,True,left,0.0,0.2118,0.9035,0.6918,1.8127,2.3124,0.4997,V
302,302,0.49635,1.2,2,0.22336,0.43844,0.51289,302,2.11775,-0.1,-0.04963,0.44671,5,1D2U,2.0,False,0.208,20,True,right,0.0,1.2438,1.6937,0.4499,0.227,0.7265,0.4995,V
303,303,0.49635,0.1,1,0.43844,0.20681,0.83552,303,2.63064,0.3,0.1489,0.65352,5,2D1U,1.0,True,0.373,20,True,left,0.0,0.4413,1.0992,0.6579,1.9402,2.4412,0.501,V
304,304,0.49635,1.2,2,0.2399,0.31435,0.44671,304,2.12601,0.26,0.13236,0.6287,5,2D1U,2.0,True,0.809,21,True,right,0.0,1.1941,1.8275,0.6334,0.2443,0.7437,0.4994,V
305,305,0.49635,0.1,1,0.39708,0.43844,0.75279,305,2.77127,0.38,0.19027,0.68661,5,3D1U,1.0,True,0.283,17,True,left,0.0,0.399,1.091,0.692,1.8492,2.3488,0.4997,A
306,306,0.49635,1.2,2,0.35571,0.26472,0.8107,306,2.35765,-0.14,-0.06618,0.43017,5,1D2U,2.0,False,0.525,21,True,right,0.0,1.6745,2.1085,0.4339,0.3584,0.8586,0.5002,V
307,307,0.49635,0.1,1,0.27299,0.23163,0.71143,307,2.3411,0.26,0.13236,0.6287,5,2D1U,1.0,True,2.408,21,True,left,0.0,0.2715,0.9045,0.633,1.6212,2.1214,0.5002,A
