Unnamed: 0,standardDur,audNoise,order,preDur,postDur,isiDur,trial_num,totalDur,delta_dur_percents,deltaDurS,testDurS,intensities,current_stair,responses,is_correct,response_rts,stair_num_reversal,stair_is_reversal,response_keys,conflictDur,recordedOnsetVisualTest,recordedOffsetVisualTest,recordedDurVisualTest,recordedOnsetVisualStandard,recordedOffsetVisualStandard,recordedDurVisualStandard,modalityCue,VisualPSE
0,0.49841,1.2,1,0.42364,0.39042,0.89713,0,2.25944,-0.9,-0.44856,0.04984,5,2D1U,2.0,True,1.52,0,False,right,0.08307,0.3961,0.5046,0.1085,1.3386,1.9787,0.6401,A,0.055
1,0.49841,0.1,1,0.42364,0.41534,0.88882,1,2.27605,-0.9,-0.44856,0.04984,5,lapse_rate,2.0,True,0.331,0,False,right,-0.2492,0.399,0.5063,0.1074,1.4985,1.8063,0.3079,A,0.055
2,0.49841,0.1,2,0.32396,0.19936,0.55655,2,2.52525,0.9,0.44856,0.94697,5,lapse_rate,2.0,True,0.717,0,False,right,0.08307,1.4336,1.4925,0.0588,0.2583,0.8997,0.6415,A,0.055
3,0.49841,1.2,1,0.38211,0.39042,0.7393,3,2.14315,-0.74,-0.3738,0.13291,5,2D1U,2.0,True,0.807,0,False,right,-0.2492,0.3622,0.5533,0.1911,1.3954,1.7027,0.3073,A,0.055
4,0.49841,0.1,2,0.42364,0.43195,0.49841,4,1.90225,-0.9,-0.44856,0.04984,5,1D2U,1.0,True,0.813,0,False,left,0.08307,1.473,1.532,0.059,0.3575,0.9993,0.6418,A,0.055
5,0.49841,0.1,1,0.29074,0.21598,0.89713,5,2.10993,-0.58,-0.29074,0.20767,5,2D1U,2.0,True,0.683,0,False,right,-0.2492,0.2655,0.5319,0.2664,1.532,1.8403,0.3083,A,0.055
6,0.49841,0.1,1,0.29074,0.38211,0.87221,6,2.09331,-0.9,-0.44856,0.04984,5,lapse_rate,2.0,True,0.405,0,False,right,0.08307,0.2646,0.3726,0.1079,1.181,1.8226,0.6415,A,0.055
7,0.49841,1.2,1,0.2409,0.2409,0.68946,7,1.71951,-0.9,-0.44856,0.04984,5,1D2U,2.0,True,0.883,0,False,right,-0.2492,0.2149,0.3231,0.1082,1.1159,1.4239,0.3079,A,0.055
8,0.49841,1.2,2,0.3655,0.41534,0.64793,8,2.06009,-0.74,-0.3738,0.13291,5,1D2U,1.0,True,0.481,0,False,left,0.08307,1.563,1.6217,0.0587,0.2966,0.938,0.6415,A,0.055
9,0.49841,1.2,1,0.20767,0.42364,0.50671,9,1.68627,-0.9,-0.44856,0.04984,5,lapse_rate,2.0,True,0.478,0,False,right,-0.2492,0.1831,0.2911,0.108,0.8988,1.2086,0.3098,A,0.055
10,0.49841,0.1,2,0.40703,0.2492,0.8556,10,2.30098,-0.42,-0.20767,0.29074,5,2D1U,1.0,True,2.023,0,False,left,0.08307,1.8146,1.8724,0.0578,0.3385,0.9803,0.6418,A,0.055
11,0.49841,0.1,2,0.28243,0.27412,0.7393,11,1.92717,-0.74,-0.3738,0.13291,5,1D2U,1.0,True,0.525,0,False,left,-0.2492,1.4058,1.4642,0.0584,0.3812,0.6887,0.3075,A,0.055
12,0.49841,1.2,2,0.27412,0.26582,0.41534,12,1.82749,-0.26,-0.13291,0.3738,5,2D1U,2.0,False,0.819,0,False,right,0.08307,1.2426,1.301,0.0584,0.2088,0.851,0.6422,A,0.055
13,0.49841,0.1,1,0.22428,0.43195,0.57317,13,1.77765,-0.9,-0.44856,0.04984,5,lapse_rate,2.0,True,0.378,0,False,right,-0.2492,0.2012,0.3094,0.1082,0.9844,1.2926,0.3082,A,0.055
14,0.49841,1.2,2,0.19936,0.29074,0.75591,14,2.69139,0.9,0.44856,0.94697,5,lapse_rate,2.0,True,0.499,0,False,right,0.08307,1.506,1.5647,0.0587,0.1308,0.7727,0.6419,A,0.055
15,0.49841,1.2,1,0.2409,0.23259,0.80575,15,1.98532,-0.58,-0.29074,0.20767,5,1D2U,2.0,True,0.676,0,False,right,-0.2492,0.2157,0.4814,0.2657,1.3896,1.6981,0.3085,A,0.055
16,0.49841,0.1,2,0.28243,0.21598,0.4901,16,1.86072,-0.26,-0.13291,0.3738,5,2D1U,1.0,True,0.684,0,False,left,0.08307,1.3209,1.3795,0.0585,0.2136,0.8533,0.6397,A,0.055
17,0.49841,1.2,1,0.20767,0.42364,0.66454,17,1.8441,-0.9,-0.44856,0.04984,5,lapse_rate,2.0,True,2.079,0,False,right,-0.2492,0.1792,0.2875,0.1083,1.0551,1.3627,0.3076,A,0.055
18,0.49841,0.1,1,0.32396,0.21598,0.80575,18,2.29266,-0.1,-0.04984,0.44856,5,2D1U,1.0,False,0.492,0,False,left,0.08307,0.2981,0.8065,0.5084,1.548,2.1896,0.6416,A,0.055
19,0.49841,1.2,1,0.20767,0.44856,0.48179,19,1.8441,-0.58,-0.29074,0.20767,5,1D2U,2.0,True,0.454,0,False,right,-0.2492,0.1796,0.4453,0.2657,1.0296,1.3373,0.3077,A,0.055
20,0.49841,1.2,1,0.2409,0.28243,0.50671,20,1.97701,-0.1,-0.04984,0.44856,5,2D1U,1.0,False,0.555,0,False,left,0.08307,0.2136,0.7219,0.5083,1.1636,1.8055,0.6419,A,0.055
21,0.49841,0.1,1,0.35719,0.33227,0.60639,21,2.085,-0.42,-0.20767,0.29074,5,1D2U,2.0,True,1.184,0,False,right,-0.2492,0.3317,0.679,0.3474,1.3876,1.6964,0.3088,A,0.055
22,0.49841,0.1,1,0.39042,0.2409,0.6147,22,2.6914,0.9,0.44856,0.94697,5,lapse_rate,1.0,True,0.347,0,False,left,0.08307,0.3651,1.373,1.0078,1.924,2.5655,0.6415,A,0.055
23,0.49841,0.1,2,0.42364,0.40703,0.40703,23,1.78595,-0.9,-0.44856,0.04984,5,lapse_rate,1.0,True,0.479,0,False,left,-0.2492,1.2124,1.271,0.0586,0.5213,0.83,0.3087,A,0.055
24,0.49841,0.1,1,0.44856,0.29074,0.42364,24,1.95209,-0.42,-0.20767,0.29074,5,1D2U,2.0,True,0.316,0,False,right,0.08307,0.4275,0.7769,0.3494,1.1358,1.7775,0.6417,A,0.055
25,0.49841,1.2,1,0.44856,0.34058,0.68115,25,2.37573,-0.18,-0.09137,0.40703,5,2D1U,1.0,False,1.174,1,True,left,-0.2492,0.4217,0.8873,0.4656,1.6714,1.9802,0.3088,A,0.055
26,0.49841,1.2,2,0.2492,0.25751,0.50671,26,1.88563,-0.26,-0.13291,0.3738,5,1D2U,1.0,True,0.562,0,False,left,0.08307,1.3065,1.3648,0.0583,0.1803,0.8229,0.6427,A,0.055
27,0.49841,0.1,1,0.29074,0.21598,0.4901,27,1.54507,-0.9,-0.44856,0.04984,5,lapse_rate,2.0,True,0.159,0,False,right,-0.2492,0.2668,0.3772,0.1104,0.9677,1.2757,0.3079,A,0.055
28,0.49841,0.1,1,0.19936,0.32396,0.41534,28,1.8441,-0.18,-0.09137,0.40703,5,2D1U,2.0,True,1.703,1,True,right,0.08307,0.1773,0.6432,0.4659,0.9931,1.6347,0.6416,A,0.055
29,0.49841,0.1,2,0.2409,0.26582,0.43195,29,1.81088,-0.26,-0.13291,0.3738,5,1D2U,1.0,True,0.875,0,False,left,-0.2492,1.0597,1.1177,0.058,0.3428,0.6511,0.3083,A,0.055
30,0.49841,1.2,1,0.26582,0.28243,0.42364,30,2.41727,0.9,0.44856,0.94697,5,lapse_rate,1.0,True,0.691,0,False,left,0.08307,0.24,1.2477,1.0077,1.6067,2.2474,0.6407,A,0.055
31,0.49841,1.2,2,0.35719,0.42364,0.73099,31,2.44218,-0.14,-0.06645,0.43195,5,2D1U,1.0,True,0.159,2,True,left,-0.2492,1.4724,1.5294,0.0571,0.4546,0.7647,0.3101,A,0.055
32,0.49841,1.2,1,0.34888,0.34888,0.88052,32,2.52525,-0.1,-0.04984,0.44856,5,2D1U,2.0,True,0.601,2,False,right,0.08307,0.3278,0.8359,0.5081,1.6524,2.295,0.6426,A,0.055
33,0.49841,1.2,2,0.3655,0.26582,0.78914,33,2.86584,0.9,0.44856,0.94697,5,lapse_rate,2.0,True,0.474,0,False,right,-0.2492,1.5417,1.5987,0.057,0.4667,0.7748,0.3081,A,0.055
34,0.49841,0.1,2,0.39042,0.39872,0.39872,34,2.13483,-0.1,-0.04984,0.44856,5,1D2U,2.0,False,1.838,0,False,right,0.08307,1.3394,1.3975,0.058,0.3224,0.9642,0.6418,A,0.055
35,0.49841,0.1,2,0.41534,0.33227,0.57317,35,2.29267,-0.06,-0.03323,0.47348,5,2D1U,2.0,False,1.8,2,False,right,-0.2492,1.3724,1.431,0.0587,0.5149,0.8227,0.3077,A,0.055
36,0.49841,0.1,2,0.22428,0.25751,0.88052,36,2.80769,0.9,0.44856,0.94697,5,lapse_rate,2.0,True,9.045,0,False,right,0.08307,1.6603,1.7185,0.0582,0.1602,0.8014,0.6413,A,0.055
37,0.49841,1.2,1,0.20767,0.43195,0.47348,37,2.01854,-0.18,-0.09137,0.40703,5,1D2U,2.0,True,3.757,1,True,right,-0.2492,0.1821,0.6483,0.4662,1.2248,1.5322,0.3074,A,0.055
38,0.49841,1.2,2,0.39042,0.39872,0.62301,38,2.38404,-0.06,-0.03323,0.47348,5,2D1U,2.0,False,1.83,2,False,right,0.08307,1.5649,1.6226,0.0577,0.3258,0.964,0.6382,A,0.055
39,0.49841,0.1,1,0.23259,0.44026,0.80575,39,2.38404,-0.18,-0.09137,0.40703,5,1D2U,1.0,False,0.493,1,True,left,-0.2492,0.2072,0.6742,0.467,1.5832,1.8913,0.3081,A,0.055
40,0.49841,1.2,1,0.27412,0.32396,0.52333,40,2.56679,0.9,0.44856,0.94697,5,lapse_rate,2.0,False,1.587,0,False,right,0.08307,0.2467,1.255,1.0083,1.7136,2.3544,0.6408,A,0.055
41,0.49841,1.2,2,0.30735,0.29074,0.83898,41,2.88245,0.9,0.44856,0.94697,5,lapse_rate,2.0,True,1.249,0,False,right,-0.2492,1.5329,1.5906,0.0577,0.4063,0.7156,0.3094,A,0.055
42,0.49841,0.1,2,0.32396,0.28243,0.71438,42,2.26774,-0.1,-0.04984,0.44856,5,2D1U,1.0,True,0.774,3,True,left,0.08307,1.5901,1.6473,0.0571,0.2567,0.8987,0.6421,A,0.055
43,0.49841,1.2,1,0.22428,0.20767,0.63131,43,1.93547,-0.26,-0.13291,0.3738,5,1D2U,2.0,True,1.205,1,False,right,-0.2492,0.1958,0.6283,0.4325,1.3629,1.6701,0.3072,A,0.055
44,0.49841,1.2,1,0.34888,0.3738,0.45687,44,2.15144,-0.06,-0.03323,0.47348,5,2D1U,2.0,True,1.16,4,True,right,0.08307,0.3278,0.8607,0.5329,1.2527,1.894,0.6413,A,0.055
45,0.49841,0.1,1,0.34888,0.29904,0.40703,45,1.92716,-0.26,-0.13291,0.3738,5,1D2U,1.0,False,0.536,1,False,left,-0.2492,0.3255,0.7592,0.4337,1.2678,1.5757,0.3079,A,0.055
46,0.49841,1.2,2,0.22428,0.33227,0.52333,46,1.62813,-0.9,-0.44856,0.04984,5,lapse_rate,1.0,True,1.346,0,False,left,0.08307,1.2966,1.3539,0.0572,0.154,0.7957,0.6417,A,0.055
47,0.49841,0.1,2,0.42364,0.3738,0.41534,47,2.04346,-0.34,-0.16614,0.33227,5,1D2U,1.0,True,0.474,1,False,left,-0.2492,1.2226,1.2804,0.0578,0.5221,0.8301,0.308,A,0.055
48,0.49841,1.2,1,0.29904,0.33227,0.43195,48,2.05177,-0.02,-0.00831,0.4901,5,2D1U,2.0,True,0.613,4,False,right,0.08307,0.273,0.8219,0.5489,1.1896,1.8309,0.6413,A,0.055
49,0.49841,1.2,1,0.30735,0.35719,0.76422,49,2.87414,0.9,0.44856,0.94697,5,lapse_rate,1.0,True,0.491,0,False,left,-0.2492,0.2789,1.2871,1.0082,2.153,2.4622,0.3092,A,0.055
50,0.49841,1.2,1,0.21598,0.28243,0.77253,50,2.10162,-0.34,-0.16614,0.33227,5,1D2U,2.0,True,0.404,1,False,right,0.08307,0.1879,0.5796,0.3917,1.2884,1.93,0.6416,A,0.055
51,0.49841,1.2,1,0.43195,0.26582,0.49841,51,1.74443,-0.9,-0.44856,0.04984,5,lapse_rate,2.0,True,0.327,0,False,right,-0.2492,0.407,0.5159,0.1089,1.1159,1.4235,0.3076,A,0.055
52,0.49841,0.1,2,0.19936,0.39872,0.67285,52,2.27605,0.02,0.00831,0.50671,5,2D1U,2.0,True,3.16,4,False,right,0.08307,1.427,1.4854,0.0584,0.1353,0.7762,0.641,A,0.055
53,0.49841,1.2,2,0.32396,0.26582,0.40703,53,2.44219,0.9,0.44856,0.94697,5,lapse_rate,2.0,True,0.439,0,False,right,-0.2492,1.1181,1.1761,0.058,0.4258,0.7343,0.3085,A,0.055
54,0.49841,0.1,1,0.25751,0.35719,0.78914,54,2.25113,-0.3,-0.14952,0.34888,5,1D2U,1.0,False,0.2,2,True,left,0.08307,0.2321,0.64,0.4079,1.3655,2.0071,0.6416,A,0.055
55,0.49841,1.2,1,0.25751,0.34888,0.64793,55,2.25944,0.02,0.00831,0.50671,5,2D1U,2.0,False,0.378,4,False,right,-0.2492,0.2327,0.7987,0.5661,1.55,1.8579,0.3078,A,0.055
56,0.49841,1.2,2,0.29074,0.35719,0.58978,56,2.06839,-0.34,-0.16614,0.33227,5,1D2U,1.0,True,0.434,3,True,left,0.08307,1.4322,1.4914,0.0592,0.2239,0.8649,0.641,A,0.055
57,0.49841,0.1,1,0.40703,0.3738,0.73099,57,2.54186,0.06,0.03323,0.53163,5,2D1U,1.0,True,0.21,4,False,left,-0.2492,0.3853,0.9772,0.592,1.8109,2.1194,0.3085,A,0.055
58,0.49841,0.1,2,0.3738,0.33227,0.53994,58,2.69139,0.9,0.44856,0.94697,5,lapse_rate,2.0,True,0.167,0,False,right,0.08307,1.4668,1.5243,0.0575,0.3077,0.9495,0.6418,A,0.055
59,0.49841,0.1,1,0.34888,0.25751,0.41534,59,2.46711,0.9,0.44856,0.94697,5,lapse_rate,1.0,True,0.76,0,False,left,-0.2492,0.3257,1.3337,1.0079,1.8506,2.1585,0.3079,A,0.055
60,0.49841,0.1,1,0.40703,0.29074,0.4901,60,2.01855,-0.34,-0.16614,0.33227,5,1D2U,2.0,True,0.326,3,True,right,0.08307,0.381,0.7736,0.3926,1.1983,1.8405,0.6422,A,0.055
61,0.49841,1.2,2,0.23259,0.35719,0.81406,61,2.43388,0.06,0.03323,0.53163,5,2D1U,2.0,True,0.432,4,False,right,-0.2492,1.4318,1.4902,0.0585,0.3322,0.6394,0.3072,A,0.055
62,0.49841,1.2,1,0.42364,0.22428,0.53163,62,2.02684,-0.3,-0.14952,0.34888,5,1D2U,2.0,True,0.408,4,True,right,0.08307,0.402,0.8101,0.4081,1.2768,1.9183,0.6414,A,0.055
63,0.49841,0.1,1,0.39872,0.30735,0.55655,63,2.26774,0.02,0.00831,0.50671,5,2D1U,2.0,False,0.6,5,True,right,-0.2492,0.3763,0.9436,0.5672,1.6011,1.9094,0.3083,A,0.055
64,0.49841,0.1,1,0.31566,0.30735,0.71438,64,2.78277,0.9,0.44856,0.94697,5,lapse_rate,2.0,False,0.433,0,False,right,0.08307,0.2866,1.2947,1.0081,1.9459,2.5874,0.6415,A,0.055
65,0.49841,0.1,1,0.21598,0.42364,0.51502,65,2.00193,-0.3,-0.14952,0.34888,5,1D2U,2.0,True,0.592,4,True,right,-0.2492,0.1897,0.5972,0.4076,1.2145,1.5219,0.3074,A,0.055
66,0.49841,1.2,2,0.43195,0.33227,0.68946,66,2.48372,0.06,0.03323,0.53163,5,2D1U,2.0,True,0.441,6,True,right,0.08307,1.6763,1.7346,0.0584,0.3671,1.0092,0.6421,A,0.055
67,0.49841,0.1,1,0.29074,0.3738,0.65623,67,1.86902,-0.9,-0.44856,0.04984,5,lapse_rate,1.0,False,0.851,0,False,left,-0.2492,0.2673,0.376,0.1087,1.1346,1.4425,0.3079,A,0.055
68,0.49841,1.2,2,0.23259,0.27412,0.65623,68,2.03515,-0.26,-0.13291,0.3738,5,1D2U,2.0,False,0.499,4,False,right,0.08307,1.4412,1.4999,0.0587,0.1664,0.8086,0.6422,A,0.055
69,0.49841,0.1,1,0.20767,0.44026,0.54825,69,2.22622,0.06,0.03323,0.53163,5,2D1U,2.0,False,0.508,6,True,right,-0.2492,0.1859,0.7777,0.5918,1.4269,1.7355,0.3086,A,0.055
70,0.49841,0.1,2,0.20767,0.34888,0.7393,70,1.8441,-0.9,-0.44856,0.04984,5,lapse_rate,1.0,True,1.238,0,False,left,0.08307,1.5019,1.5606,0.0587,0.1439,0.7862,0.6424,A,0.055
71,0.49841,0.1,2,0.40703,0.39042,0.52333,71,2.16807,-0.3,-0.14952,0.34888,5,1D2U,2.0,False,0.782,5,True,right,-0.2492,1.316,1.3735,0.0575,0.5082,0.8167,0.3085,A,0.055
72,0.49841,1.2,1,0.31566,0.20767,0.65623,72,2.22622,0.1,0.04984,0.54825,5,2D1U,2.0,False,1.219,6,False,right,0.08307,0.2869,0.895,0.6081,1.4873,2.1287,0.6414,A,0.055
73,0.49841,0.1,1,0.39042,0.33227,0.76422,73,2.03516,-0.9,-0.44856,0.04984,5,lapse_rate,2.0,True,1.107,0,False,right,-0.2492,0.364,0.473,0.1091,1.3394,1.6468,0.3074,A,0.055
74,0.49841,1.2,2,0.32396,0.35719,0.59809,74,2.35082,0.14,0.06645,0.57317,5,2D1U,1.0,False,0.999,6,False,left,0.08307,1.4736,1.5324,0.0588,0.2578,0.8983,0.6405,A,0.055
75,0.49841,0.1,1,0.39872,0.31566,0.7393,75,2.00193,-0.9,-0.44856,0.04984,5,lapse_rate,2.0,True,0.792,0,False,right,-0.2492,0.3726,0.4817,0.109,1.3234,1.6319,0.3085,A,0.055
76,0.49841,0.1,2,0.3655,0.26582,0.8556,76,2.3176,-0.34,-0.16614,0.33227,5,1D2U,1.0,True,3.126,5,False,left,0.08307,1.7788,1.836,0.0571,0.3029,0.9439,0.641,A,0.055
77,0.49841,0.1,2,0.23259,0.32396,0.88882,77,2.27605,-0.34,-0.16614,0.33227,5,1D2U,2.0,False,1.995,5,False,right,-0.2492,1.5091,1.5677,0.0586,0.3346,0.6426,0.308,A,0.055
78,0.49841,1.2,1,0.23259,0.2409,0.49841,78,2.06009,0.18,0.09137,0.58978,5,2D1U,1.0,True,1.942,6,False,left,0.08307,0.2046,0.8551,0.6505,1.2881,1.9293,0.6411,A,0.055
79,0.49841,0.1,2,0.32396,0.34888,0.60639,79,1.82748,-0.9,-0.44856,0.04984,5,lapse_rate,1.0,True,0.365,0,False,left,-0.2492,1.3136,1.3718,0.0582,0.4209,0.7302,0.3093,A,0.055
80,0.49841,1.2,2,0.39042,0.34058,0.71438,80,2.25114,-0.38,-0.19106,0.30735,5,1D2U,2.0,False,1.089,5,False,right,0.08307,1.6568,1.7147,0.0579,0.3238,0.9648,0.6409,A,0.055
81,0.49841,1.2,2,0.2492,0.28243,0.74761,81,2.72462,0.9,0.44856,0.94697,5,lapse_rate,2.0,True,0.195,0,False,right,-0.2492,1.3797,1.4389,0.0592,0.3469,0.6552,0.3083,A,0.055
82,0.49841,0.1,1,0.19936,0.26582,0.52333,82,2.0767,0.18,0.09137,0.58978,5,2D1U,2.0,False,0.828,6,False,right,0.08307,0.1719,0.8212,0.6494,1.2796,1.9213,0.6417,A,0.055
83,0.49841,0.1,2,0.23259,0.22428,0.89713,83,2.79938,0.9,0.44856,0.94697,5,lapse_rate,2.0,True,0.417,0,False,right,-0.2492,1.5183,1.5763,0.058,0.335,0.6433,0.3082,A,0.055
84,0.49841,0.1,1,0.20767,0.26582,0.59809,84,2.17638,0.22,0.10799,0.60639,5,2D1U,1.0,True,0.622,6,False,left,0.08307,0.1814,0.8484,0.667,1.3812,2.0235,0.6424,A,0.055
85,0.49841,1.2,2,0.42364,0.3738,0.8556,85,2.44219,-0.42,-0.20767,0.29074,5,1D2U,1.0,True,1.285,5,False,left,-0.2492,1.6683,1.7265,0.0582,0.5262,0.8342,0.308,A,0.055
86,0.49841,1.2,1,0.30735,0.44856,0.72269,86,2.26775,-0.42,-0.20767,0.29074,5,1D2U,2.0,True,0.475,5,False,right,0.08307,0.2813,0.6316,0.3503,1.2894,1.9312,0.6418,A,0.055
87,0.49841,0.1,1,0.41534,0.3738,0.58978,87,2.48372,0.22,0.10799,0.60639,5,2D1U,1.0,True,0.38,6,False,left,-0.2492,0.3928,1.0602,0.6674,1.7512,2.061,0.3098,A,0.055
88,0.49841,1.2,1,0.25751,0.28243,0.73099,88,1.81918,-0.9,-0.44856,0.04984,5,lapse_rate,2.0,True,0.351,0,False,right,0.08307,0.2363,0.3446,0.1084,1.0117,1.6522,0.6405,A,0.055
89,0.49841,0.1,2,0.33227,0.39042,0.6147,89,2.42558,0.18,0.09137,0.58978,5,2D1U,1.0,False,0.407,7,True,left,-0.2492,1.331,1.3895,0.0585,0.4325,0.7399,0.3074,A,0.055
90,0.49841,1.2,1,0.39042,0.20767,0.58147,90,1.98532,-0.38,-0.19106,0.30735,5,1D2U,2.0,True,14.055,6,True,right,0.08307,0.3682,0.7336,0.3654,1.2514,1.8929,0.6415,A,0.055
91,0.49841,0.1,1,0.34058,0.3655,0.84729,91,2.10162,-0.9,-0.44856,0.04984,5,lapse_rate,2.0,True,0.326,0,False,right,-0.2492,0.3193,0.4276,0.1083,1.3777,1.6851,0.3075,A,0.055
92,0.49841,1.2,2,0.21598,0.34058,0.64793,92,1.75274,-0.9,-0.44856,0.04984,5,lapse_rate,2.0,False,0.617,0,False,right,0.08307,1.4143,1.4735,0.0592,0.1472,0.7896,0.6424,A,0.055
93,0.49841,1.2,2,0.38211,0.33227,0.45687,93,1.97701,-0.38,-0.19106,0.30735,5,1D2U,2.0,False,1.069,6,True,right,-0.2492,1.2231,1.2814,0.0584,0.4807,0.7897,0.309,A,0.055
94,0.49841,0.1,2,0.32396,0.27412,0.66454,94,2.36742,0.22,0.10799,0.60639,5,2D1U,1.0,False,0.43,8,True,left,0.08307,1.5457,1.6026,0.0569,0.2606,0.9028,0.6422,A,0.055
95,0.49841,0.1,1,0.20767,0.22428,0.68946,95,1.91056,-0.42,-0.20767,0.29074,5,1D2U,2.0,True,0.259,7,True,right,-0.2492,0.1821,0.5324,0.3503,1.3238,1.6325,0.3087,A,0.055
96,0.49841,1.2,1,0.22428,0.39872,0.63131,96,2.69969,0.9,0.44856,0.94697,5,lapse_rate,1.0,True,0.208,0,False,left,0.08307,0.2012,1.2098,1.0086,1.7767,2.4171,0.6404,A,0.055
97,0.49841,1.2,1,0.22428,0.19936,0.88882,97,2.44218,0.26,0.13291,0.63131,5,2D1U,1.0,True,0.434,8,False,left,-0.2492,0.198,0.8902,0.6922,1.8818,2.1893,0.3075,A,0.055
98,0.49841,0.1,2,0.3655,0.20767,0.57317,98,2.59172,0.9,0.44856,0.94697,5,lapse_rate,2.0,True,0.299,0,False,right,0.08307,1.4937,1.552,0.0583,0.3025,0.9446,0.6422,A,0.055
99,0.49841,1.2,2,0.21598,0.27412,0.81406,99,2.09331,-0.42,-0.20767,0.29074,5,1D2U,1.0,True,0.45,7,True,left,-0.2492,1.4178,1.4763,0.0585,0.3184,0.6265,0.3081,A,0.055
100,0.49841,0.1,2,0.26582,0.28243,0.70607,100,2.38404,0.26,0.13291,0.63131,5,2D1U,2.0,True,0.214,8,False,right,0.08307,1.5217,1.5807,0.059,0.1967,0.8388,0.6421,A,0.055
101,0.49841,0.1,2,0.33227,0.2492,0.49841,101,2.18468,0.22,0.10799,0.60639,5,2D1U,2.0,True,0.416,9,True,right,-0.2492,1.2196,1.2779,0.0583,0.4359,0.7447,0.3088,A,0.055
102,0.49841,1.2,2,0.31566,0.42364,0.50671,102,2.05177,-0.38,-0.19106,0.30735,5,1D2U,1.0,True,0.533,8,True,left,0.08307,1.379,1.438,0.059,0.2537,0.8951,0.6415,A,0.055
103,0.49841,0.1,2,0.35719,0.3738,0.43195,103,1.71119,-0.9,-0.44856,0.04984,5,lapse_rate,1.0,True,1.707,0,False,left,-0.2492,1.1713,1.2299,0.0586,0.455,0.762,0.307,A,0.055
104,0.49841,1.2,1,0.2492,0.30735,0.4901,104,2.15145,0.22,0.10799,0.60639,5,2D1U,2.0,False,0.792,9,True,right,0.08307,0.2259,0.8932,0.6672,1.3176,1.9604,0.6428,A,0.055
105,0.49841,0.1,2,0.27412,0.28243,0.84729,105,2.2096,-0.38,-0.19106,0.30735,5,1D2U,1.0,True,0.46,8,True,left,-0.2492,1.5097,1.5682,0.0585,0.377,0.6849,0.3079,A,0.055
106,0.49841,1.2,2,0.32396,0.34058,0.75591,106,2.86583,0.9,0.44856,0.94697,5,lapse_rate,2.0,True,0.402,0,False,right,0.08307,1.6312,1.6891,0.0579,0.2546,0.8966,0.642,A,0.055
107,0.49841,0.1,2,0.39042,0.22428,0.45687,107,2.20129,0.26,0.13291,0.63131,5,2D1U,2.0,True,0.399,10,True,right,-0.2492,1.2376,1.2946,0.057,0.4953,0.8031,0.3077,A,0.055
108,0.49841,1.2,2,0.2409,0.41534,0.46518,108,1.9521,-0.34,-0.16614,0.33227,5,1D2U,2.0,False,0.467,8,False,right,0.08307,1.2584,1.3167,0.0583,0.1743,0.8169,0.6426,A,0.055
109,0.49841,0.1,1,0.20767,0.42364,0.50671,109,2.5834,0.9,0.44856,0.94697,5,lapse_rate,1.0,True,0.286,0,False,left,-0.2492,0.1848,1.193,1.0082,1.801,2.1093,0.3083,A,0.055
110,0.49841,1.2,1,0.21598,0.38211,0.89713,110,2.62494,0.26,0.13291,0.63131,5,2D1U,1.0,True,0.316,10,True,left,0.08307,0.1886,0.8793,0.6907,1.7137,2.3542,0.6406,A,0.055
111,0.49841,0.1,1,0.23259,0.3655,0.62301,111,2.02686,-0.38,-0.19106,0.30735,5,1D2U,2.0,True,0.494,9,True,right,-0.2492,0.2069,0.5742,0.3674,1.2985,1.6076,0.3091,A,0.055
112,0.49841,1.2,2,0.3655,0.41534,0.88882,112,3.11504,0.9,0.44856,0.94697,5,lapse_rate,2.0,True,0.126,0,False,right,0.08307,1.8063,1.8651,0.0588,0.2992,0.9408,0.6416,A,0.055
113,0.49841,0.1,2,0.31566,0.34058,0.69777,113,2.15977,-0.38,-0.19106,0.30735,5,1D2U,1.0,True,0.242,9,True,left,-0.2492,1.3985,1.456,0.0575,0.4144,0.7226,0.3082,A,0.055
114,0.49841,1.2,1,0.40703,0.41534,0.78083,114,2.708,0.22,0.10799,0.60639,5,2D1U,1.0,True,0.566,11,True,left,0.08307,0.382,1.0478,0.6658,1.7646,2.4068,0.6422,A,0.055
115,0.49841,1.2,1,0.20767,0.26582,0.53163,115,1.55337,-0.9,-0.44856,0.04984,5,lapse_rate,2.0,True,0.498,0,False,right,-0.2492,0.1802,0.2889,0.1087,0.9221,1.2308,0.3087,A,0.055
116,0.49841,1.2,2,0.29074,0.19936,0.8639,116,2.18468,-0.34,-0.16614,0.33227,5,1D2U,2.0,False,0.527,10,True,right,0.08307,1.7069,1.7641,0.0572,0.2234,0.8646,0.6412,A,0.055
117,0.49841,0.1,2,0.3738,0.30735,0.51502,117,2.30097,0.22,0.10799,0.60639,5,2D1U,1.0,False,0.384,11,True,left,-0.2492,1.2711,1.3302,0.0591,0.471,0.7794,0.3085,A,0.055
118,0.49841,0.1,2,0.27412,0.42364,0.79745,118,2.94059,0.9,0.44856,0.94697,5,lapse_rate,2.0,True,0.631,0,False,right,0.08307,1.6262,1.684,0.0578,0.2095,0.851,0.6415,A,0.055
119,0.49841,0.1,1,0.26582,0.32396,0.78083,119,2.81599,0.9,0.44856,0.94697,5,lapse_rate,1.0,True,0.344,0,False,left,-0.2492,0.2398,1.2488,1.009,2.1325,2.4397,0.3072,A,0.055
120,0.49841,0.1,1,0.3655,0.28243,0.6147,120,2.06839,-0.38,-0.19106,0.30735,5,1D2U,2.0,True,0.359,11,True,right,0.08307,0.3385,0.7051,0.3666,1.2543,1.8967,0.6424,A,0.055
121,0.49841,1.2,1,0.38211,0.40703,0.53994,121,2.4588,0.26,0.13291,0.63131,5,2D1U,2.0,False,0.575,12,True,right,-0.2492,0.3572,1.0498,0.6926,1.6917,2.0005,0.3088,A,0.055
122,0.49841,1.2,1,0.21598,0.39872,0.49841,122,1.91887,-0.38,-0.19106,0.30735,5,1D2U,1.0,False,0.44,11,True,left,0.08307,0.1925,0.5597,0.3672,0.9925,1.634,0.6416,A,0.055
123,0.49841,0.1,2,0.3738,0.39872,0.68115,123,2.60001,0.3,0.14952,0.64793,5,2D1U,2.0,True,0.343,12,False,right,-0.2492,1.4445,1.5032,0.0586,0.478,0.7864,0.3084,A,0.055
124,0.49841,0.1,1,0.44026,0.39042,0.8639,124,3.13996,0.9,0.44856,0.94697,5,lapse_rate,1.0,True,0.252,0,False,left,0.08307,0.4169,1.4247,1.0078,2.2253,2.8675,0.6422,A,0.055
125,0.49841,1.2,1,0.42364,0.31566,0.55655,125,2.74123,0.9,0.44856,0.94697,5,lapse_rate,1.0,True,0.334,0,False,left,-0.2492,0.4002,1.4088,1.0086,2.0668,2.3756,0.3089,A,0.055
126,0.49841,0.1,2,0.38211,0.34058,0.54825,126,2.06009,-0.42,-0.20767,0.29074,5,1D2U,1.0,True,0.35,11,False,left,0.08307,1.4843,1.5416,0.0572,0.3165,0.9592,0.6427,A,0.055
127,0.49841,1.2,1,0.23259,0.32396,0.89713,127,2.60002,0.3,0.14952,0.64793,5,2D1U,2.0,False,0.496,12,False,right,-0.2492,0.2104,0.919,0.7086,1.9189,2.2269,0.308,A,0.055
128,0.49841,1.2,1,0.25751,0.29904,0.63962,128,2.36743,0.34,0.16614,0.67285,5,2D1U,2.0,False,2.755,12,False,right,0.08307,0.2322,0.9649,0.7326,1.5394,2.1813,0.6419,A,0.055
129,0.49841,1.2,2,0.2492,0.30735,0.49841,129,1.60321,-0.9,-0.44856,0.04984,5,lapse_rate,2.0,False,0.858,0,False,right,-0.2492,1.1311,1.1935,0.0624,0.3481,0.6572,0.3091,A,0.055
130,0.49841,0.1,1,0.34888,0.22428,0.46518,130,1.82749,-0.42,-0.20767,0.29074,5,1D2U,2.0,True,1.317,11,False,right,0.08307,0.3276,0.6773,0.3498,1.0779,1.7184,0.6406,A,0.055
131,0.49841,1.2,1,0.3655,0.23259,0.84729,131,2.89076,0.9,0.44856,0.94697,5,lapse_rate,1.0,True,0.993,0,False,left,-0.2492,0.3459,1.3554,1.0095,2.305,2.613,0.308,A,0.055
132,0.49841,0.1,1,0.21598,0.3655,0.64793,132,2.03517,-0.38,-0.19106,0.30735,5,1D2U,2.0,True,0.428,12,True,right,0.08307,0.1909,0.5573,0.3664,1.1409,1.7826,0.6417,A,0.055
133,0.49841,1.2,2,0.21598,0.39872,0.74761,133,2.55018,0.38,0.19106,0.68946,5,2D1U,1.0,False,1.2,12,False,left,-0.2492,1.3468,1.4054,0.0586,0.3142,0.6231,0.309,A,0.055
134,0.49841,1.2,1,0.39042,0.44856,0.74761,134,2.39235,-0.38,-0.19106,0.30735,5,1D2U,1.0,False,0.742,12,True,left,0.08307,0.3664,0.7328,0.3663,1.4162,2.0576,0.6414,A,0.055
135,0.49841,1.2,2,0.28243,0.22428,0.66454,135,2.61663,0.9,0.44856,0.94697,5,lapse_rate,2.0,True,3.24,0,False,right,-0.2492,1.3358,1.3938,0.058,0.3852,0.6945,0.3093,A,0.055
136,0.49841,0.1,2,0.42364,0.3655,0.88052,136,2.87414,0.42,0.20767,0.70607,5,2D1U,1.0,False,0.912,12,False,left,0.08307,1.8549,1.9133,0.0584,0.3547,0.9958,0.6411,A,0.055
137,0.49841,0.1,2,0.3738,0.21598,0.77253,137,2.15146,-0.42,-0.20767,0.29074,5,1D2U,2.0,False,7.637,13,True,right,-0.2492,1.5286,1.5873,0.0587,0.4704,0.7801,0.3097,A,0.055
138,0.49841,1.2,2,0.30735,0.22428,0.58978,138,1.66966,-0.9,-0.44856,0.04984,5,lapse_rate,1.0,True,0.833,0,False,left,0.08307,1.4484,1.5056,0.0572,0.2397,0.8817,0.642,A,0.055
139,0.49841,1.2,1,0.44026,0.21598,0.8639,139,2.74954,0.46,0.23259,0.73099,5,2D1U,1.0,True,1.966,12,False,left,-0.2492,0.4188,1.2112,0.7924,2.1781,2.4854,0.3073,A,0.055
140,0.49841,0.1,2,0.30735,0.29904,0.62301,140,2.67478,0.9,0.44856,0.94697,5,lapse_rate,2.0,True,0.611,0,False,right,0.08307,1.4825,1.5404,0.0579,0.2405,0.8821,0.6415,A,0.055
141,0.49841,1.2,2,0.29074,0.43195,0.71438,141,2.66647,0.46,0.23259,0.73099,5,2D1U,2.0,True,0.204,12,False,right,-0.2492,1.3871,1.4455,0.0584,0.3878,0.6964,0.3086,A,0.055
142,0.49841,0.1,2,0.34058,0.29904,0.72269,142,2.13484,-0.46,-0.23259,0.27412,5,1D2U,1.0,True,0.366,13,False,left,0.08307,1.6149,1.6733,0.0585,0.2722,0.9137,0.6415,A,0.055
143,0.49841,0.1,2,0.38211,0.20767,0.55655,143,1.91886,-0.46,-0.23259,0.27412,5,1D2U,1.0,True,0.866,13,False,left,-0.2492,1.3274,1.3861,0.0587,0.4858,0.7935,0.3077,A,0.055
144,0.49841,0.1,1,0.42364,0.41534,0.68946,144,2.07669,-0.9,-0.44856,0.04984,5,lapse_rate,2.0,True,0.409,0,False,right,0.08307,0.4027,0.5112,0.1085,1.1354,1.7772,0.6418,A,0.055
145,0.49841,1.2,1,0.29904,0.21598,0.78083,145,2.50033,0.42,0.20767,0.70607,5,2D1U,1.0,True,1.727,13,True,left,-0.2492,0.2734,1.0401,0.7667,1.9239,2.2324,0.3085,A,0.055
146,0.49841,0.1,2,0.35719,0.34058,0.58147,146,1.82749,-0.9,-0.44856,0.04984,5,lapse_rate,1.0,True,0.562,0,False,left,0.08307,1.49,1.5478,0.0578,0.2896,0.9314,0.6419,A,0.055
147,0.49841,1.2,1,0.43195,0.2409,0.8639,147,2.3259,-0.42,-0.20767,0.29074,5,1D2U,2.0,True,0.507,14,True,right,-0.2492,0.4038,0.7542,0.3504,1.721,2.0296,0.3086,A,0.055
148,0.49841,0.1,2,0.3738,0.31566,0.71438,148,2.60832,0.42,0.20767,0.70607,5,2D1U,2.0,True,0.24,13,True,right,0.08307,1.6384,1.6967,0.0583,0.3052,0.9471,0.6419,A,0.055
149,0.49841,0.1,1,0.42364,0.42364,0.4901,149,2.78276,0.9,0.44856,0.94697,5,lapse_rate,1.0,True,0.557,0,False,left,-0.2492,0.4024,1.4103,1.0079,2.0025,2.3104,0.3079,A,0.055
150,0.49841,0.1,1,0.33227,0.25751,0.66454,150,2.04347,-0.42,-0.20767,0.29074,5,1D2U,2.0,True,0.668,14,True,right,0.08307,0.3067,0.6557,0.349,1.2557,1.8985,0.6428,A,0.055
151,0.49841,1.2,1,0.26582,0.3738,0.40703,151,2.23452,0.38,0.19106,0.68946,5,2D1U,2.0,False,0.633,13,False,right,-0.2492,0.2447,0.9948,0.7501,1.5022,1.8109,0.3088,A,0.055
152,0.49841,1.2,1,0.3738,0.26582,0.63962,152,2.48372,0.42,0.20767,0.70607,5,2D1U,2.0,False,0.569,14,True,right,0.08307,0.3488,1.1165,0.7677,1.6912,2.3323,0.641,A,0.055
153,0.49841,0.1,1,0.38211,0.2409,0.4901,153,1.91887,-0.38,-0.19106,0.30735,5,1D2U,1.0,False,4.289,14,False,left,-0.2492,0.3547,0.7215,0.3668,1.3126,1.6207,0.3081,A,0.055
154,0.49841,1.2,2,0.20767,0.28243,0.46518,154,1.50353,-0.9,-0.44856,0.04984,5,lapse_rate,1.0,True,1.729,0,False,left,0.08307,1.225,1.2835,0.0585,0.1419,0.7829,0.641,A,0.055
155,0.49841,0.1,2,0.35719,0.32396,0.6147,155,2.52525,0.46,0.23259,0.73099,5,2D1U,2.0,True,0.267,14,False,right,-0.2492,1.3604,1.4193,0.0589,0.4606,0.7693,0.3087,A,0.055
156,0.49841,1.2,2,0.25751,0.39042,0.57317,156,2.01025,-0.42,-0.20767,0.29074,5,1D2U,1.0,True,0.597,15,True,left,0.08307,1.379,1.4379,0.0588,0.1881,0.8295,0.6414,A,0.055
157,0.49841,1.2,1,0.22428,0.39872,0.72269,157,1.89394,-0.9,-0.44856,0.04984,5,lapse_rate,2.0,True,0.114,0,False,right,-0.2492,0.1985,0.3063,0.1078,1.1319,1.4399,0.308,A,0.055
158,0.49841,1.2,2,0.32396,0.3738,0.69777,158,2.62493,0.46,0.23259,0.73099,5,2D1U,2.0,True,0.114,14,False,right,0.08307,1.5775,1.636,0.0585,0.261,0.9034,0.6424,A,0.055
159,0.49841,1.2,2,0.39042,0.28243,0.42364,159,1.64474,-0.9,-0.44856,0.04984,5,lapse_rate,2.0,False,0.851,0,False,right,-0.2492,1.1993,1.2576,0.0583,0.4901,0.7988,0.3087,A,0.055
160,0.49841,0.1,2,0.23259,0.42364,0.79745,160,2.24283,-0.42,-0.20767,0.29074,5,1D2U,1.0,True,0.861,15,True,left,0.08307,1.5808,1.6388,0.058,0.1642,0.8082,0.644,A,0.055
161,0.49841,0.1,1,0.38211,0.20767,0.59809,161,2.39235,0.42,0.20767,0.70607,5,2D1U,2.0,False,0.158,15,True,right,-0.2492,0.3551,1.1218,0.7667,1.8217,2.1303,0.3086,A,0.055
162,0.49841,1.2,1,0.42364,0.25751,0.65623,162,2.14314,-0.38,-0.19106,0.30735,5,1D2U,1.0,False,0.175,16,True,left,0.08307,0.3958,0.7623,0.3665,1.354,1.9957,0.6417,A,0.055
163,0.49841,1.2,2,0.20767,0.41534,0.78083,163,1.95209,-0.9,-0.44856,0.04984,5,lapse_rate,1.0,True,0.283,0,False,left,-0.2492,1.3755,1.4337,0.0582,0.3086,0.6169,0.3083,A,0.055
164,0.49841,1.2,1,0.34888,0.2409,0.43195,164,2.25113,0.46,0.23259,0.73099,5,2D1U,2.0,False,0.396,16,True,right,0.08307,0.3208,1.1122,0.7914,1.479,2.1206,0.6416,A,0.055
165,0.49841,0.1,2,0.41534,0.33227,0.83068,165,2.36744,-0.42,-0.20767,0.29074,5,1D2U,1.0,True,0.362,17,True,left,-0.2492,1.6339,1.6924,0.0585,0.5172,0.826,0.3088,A,0.055
166,0.49841,1.2,1,0.30735,0.34888,0.40703,166,1.61151,-0.9,-0.44856,0.04984,5,lapse_rate,1.0,False,0.492,0,False,left,0.08307,0.2804,0.3887,0.1084,0.7303,1.3719,0.6416,A,0.055
167,0.49841,0.1,2,0.21598,0.28243,0.77253,167,2.06009,-0.42,-0.20767,0.29074,5,1D2U,1.0,True,0.725,17,True,left,-0.2492,1.3698,1.4279,0.0581,0.3113,0.6196,0.3083,A,0.055
168,0.49841,1.2,2,0.41534,0.44856,0.68946,168,2.35912,-0.38,-0.19106,0.30735,5,1D2U,1.0,True,0.312,18,True,left,0.08307,1.6584,1.7166,0.0582,0.35,0.9917,0.6418,A,0.055
169,0.49841,1.2,2,0.44026,0.29904,0.71438,169,2.6997,0.5,0.2492,0.74761,5,2D1U,2.0,True,0.367,16,False,right,-0.2492,1.5384,1.5965,0.0581,0.5381,0.8466,0.3086,A,0.055
170,0.49841,0.1,1,0.39042,0.20767,0.50671,170,1.91056,-0.38,-0.19106,0.30735,5,1D2U,2.0,True,0.233,18,True,right,0.08307,0.3617,0.7284,0.3667,1.1696,1.8112,0.6416,A,0.055
171,0.49841,0.1,1,0.44026,0.27412,0.48179,171,2.44219,0.5,0.2492,0.74761,5,2D1U,1.0,True,0.55,16,False,left,-0.2492,0.4161,1.2243,0.8082,1.8069,2.115,0.3081,A,0.055
172,0.49841,1.2,2,0.27412,0.25751,0.83898,172,2.20129,-0.34,-0.16614,0.33227,5,1D2U,1.0,True,1.163,18,False,left,0.08307,1.6694,1.7273,0.058,0.2109,0.8527,0.6418,A,0.055
173,0.49841,1.2,2,0.28243,0.31566,0.88882,173,2.71631,0.46,0.23259,0.73099,5,2D1U,1.0,False,0.584,17,True,left,-0.2492,1.5555,1.6136,0.0581,0.3803,0.6885,0.3082,A,0.055
174,0.49841,0.1,1,0.21598,0.29074,0.57317,174,2.32591,0.5,0.2492,0.74761,5,2D1U,2.0,False,0.156,18,True,right,0.08307,0.1897,0.9982,0.8085,1.5065,2.1481,0.6416,A,0.055
175,0.49841,0.1,1,0.42364,0.27412,0.65623,175,2.18467,-0.34,-0.16614,0.33227,5,1D2U,2.0,True,0.308,18,False,right,-0.2492,0.3977,0.7893,0.3916,1.5479,1.856,0.3081,A,0.055
176,0.49841,1.2,1,0.29074,0.2409,0.88052,176,2.6831,0.54,0.27412,0.77253,5,2D1U,2.0,False,0.173,18,False,right,0.08307,0.2619,1.0952,0.8333,1.9119,2.5536,0.6417,A,0.055
177,0.49841,1.2,1,0.44856,0.2409,0.78914,177,2.76615,0.58,0.29074,0.78914,5,2D1U,1.0,True,0.261,18,False,left,-0.2492,0.4233,1.2733,0.8499,2.165,2.4734,0.3083,A,0.055
178,0.49841,0.1,1,0.25751,0.21598,0.56486,178,1.88564,-0.3,-0.14952,0.34888,5,1D2U,2.0,True,0.251,18,False,right,0.08307,0.2302,0.6385,0.4084,1.1387,1.7801,0.6414,A,0.055
179,0.49841,0.1,2,0.21598,0.2492,0.81406,179,2.56679,0.58,0.29074,0.78914,5,2D1U,2.0,True,0.317,18,False,right,-0.2492,1.4172,1.4755,0.0584,0.3172,0.6258,0.3086,A,0.055
180,0.49841,1.2,1,0.30735,0.30735,0.56486,180,2.02685,-0.3,-0.14952,0.34888,5,1D2U,2.0,True,0.343,18,False,right,0.08307,0.2777,0.6857,0.408,1.186,1.8275,0.6415,A,0.055
181,0.49841,1.2,1,0.34058,0.3655,0.83898,181,2.816,0.54,0.27412,0.77253,5,2D1U,1.0,True,0.108,19,True,left,-0.2492,0.3124,1.1455,0.833,2.0872,2.3958,0.3086,A,0.055
182,0.49841,0.1,1,0.20767,0.32396,0.40703,182,1.81087,-0.26,-0.13291,0.3738,5,1D2U,2.0,True,0.11,18,False,right,0.08307,0.1853,0.6183,0.433,0.96,1.6017,0.6417,A,0.055
183,0.49841,0.1,1,0.43195,0.40703,0.8639,183,2.57509,-0.26,-0.13291,0.3738,5,1D2U,2.0,True,0.625,18,False,right,-0.2492,0.4087,0.8418,0.4331,1.8085,2.1171,0.3086,A,0.055
184,0.49841,1.2,1,0.2492,0.26582,0.78083,184,2.56679,0.54,0.27412,0.77253,5,2D1U,1.0,True,0.107,19,True,left,0.08307,0.2257,1.059,0.8332,1.7758,2.4172,0.6415,A,0.055
185,0.49841,1.2,2,0.39042,0.39872,0.63131,185,2.66647,0.5,0.2492,0.74761,5,2D1U,2.0,True,2.623,19,False,right,-0.2492,1.4048,1.4631,0.0582,0.4882,0.7966,0.3084,A,0.055
186,0.49841,0.1,2,0.28243,0.38211,0.68946,186,2.24283,-0.22,-0.10799,0.39042,5,1D2U,1.0,True,0.314,18,False,left,0.08307,1.5204,1.5779,0.0576,0.2122,0.8527,0.6405,A,0.055
187,0.49841,0.1,2,0.29904,0.21598,0.69777,187,2.10162,-0.22,-0.10799,0.39042,5,1D2U,2.0,False,1.033,18,False,right,-0.2492,1.3785,1.4367,0.0581,0.395,0.7034,0.3084,A,0.055
188,0.49841,1.2,2,0.31566,0.41534,0.63131,188,2.23452,-0.26,-0.13291,0.3738,5,1D2U,1.0,True,6.258,19,True,left,0.08307,1.4973,1.5556,0.0583,0.2473,0.8888,0.6415,A,0.055
189,0.49841,1.2,1,0.29904,0.39042,0.82237,189,2.75785,0.5,0.2492,0.74761,5,2D1U,1.0,True,0.675,19,False,left,-0.2492,0.2764,1.0847,0.8083,2.0095,2.3182,0.3086,A,0.055
190,0.49841,0.1,1,0.33227,0.40703,0.56486,190,2.17637,-0.26,-0.13291,0.3738,5,1D2U,1.0,False,0.819,19,True,left,0.08307,0.3087,0.7421,0.4333,1.242,1.8836,0.6417,A,0.055
191,0.49841,0.1,1,0.3738,0.38211,0.55655,191,2.54186,0.46,0.23259,0.73099,5,2D1U,2.0,False,0.75,19,False,right,-0.2492,0.3446,1.1359,0.7913,1.7946,2.103,0.3084,A,0.055
192,0.49841,1.2,1,0.29904,0.39872,0.66454,192,2.60832,0.5,0.2492,0.74761,5,2D1U,2.0,False,1.25,20,True,right,0.08307,0.2724,1.0805,0.8081,1.6804,2.3225,0.6422,A,0.055
193,0.49841,1.2,2,0.40703,0.3655,0.53994,193,2.15976,-0.3,-0.14952,0.34888,5,1D2U,1.0,True,0.567,19,False,left,-0.2492,1.3343,1.3927,0.0584,0.5094,0.8178,0.3084,A,0.055
194,0.49841,0.1,2,0.34058,0.3738,0.4901,194,2.47542,0.54,0.27412,0.77253,5,2D1U,1.0,False,1.091,20,False,left,0.08307,1.3851,1.4435,0.0584,0.2769,0.9185,0.6415,A,0.055
195,0.49841,0.1,2,0.38211,0.26582,0.8639,195,2.79938,0.58,0.29074,0.78914,5,2D1U,2.0,True,0.558,20,False,right,-0.2492,1.6361,1.6944,0.0584,0.4859,0.7944,0.3085,A,0.055
196,0.49841,1.2,1,0.3655,0.28243,0.43195,196,1.92717,-0.3,-0.14952,0.34888,5,1D2U,2.0,True,1.915,19,False,right,0.08307,0.3391,0.7473,0.4082,1.1138,1.7554,0.6417,A,0.055
197,0.49841,1.2,2,0.44856,0.2492,0.46518,197,2.45049,0.58,0.29074,0.78914,5,2D1U,2.0,True,0.915,20,False,right,-0.2492,1.2963,1.355,0.0587,0.5461,0.8545,0.3084,A,0.055
198,0.49841,0.1,2,0.38211,0.29904,0.50671,198,2.4588,0.54,0.27412,0.77253,5,2D1U,2.0,True,0.391,21,True,right,0.08307,1.4424,1.5009,0.0585,0.3177,0.959,0.6413,A,0.055
199,0.49841,0.1,1,0.21598,0.41534,0.58978,199,2.09331,-0.26,-0.13291,0.3738,5,1D2U,2.0,True,0.503,20,True,right,-0.2492,0.1894,0.6228,0.4334,1.3145,1.6227,0.3082,A,0.055
200,0.49841,1.2,2,0.28243,0.2409,0.82237,200,2.61664,0.54,0.27412,0.77253,5,2D1U,2.0,True,0.31,21,True,right,0.08307,1.6543,1.7125,0.0583,0.2124,0.8542,0.6418,A,0.055
201,0.49841,1.2,1,0.42364,0.26582,0.48179,201,2.41727,0.5,0.2492,0.74761,5,2D1U,1.0,True,0.515,21,False,left,-0.2492,0.3958,1.2046,0.8089,1.7873,2.0956,0.3083,A,0.055
202,0.49841,0.1,1,0.23259,0.23259,0.72269,202,2.06008,-0.26,-0.13291,0.3738,5,1D2U,2.0,True,0.6,20,True,right,0.08307,0.2077,0.6407,0.433,1.299,1.9407,0.6416,A,0.055
203,0.49841,0.1,2,0.35719,0.27412,0.56486,203,2.085,-0.22,-0.10799,0.39042,5,1D2U,1.0,True,1.34,20,False,left,-0.2492,1.3035,1.362,0.0584,0.4533,0.7618,0.3085,A,0.055
204,0.49841,1.2,1,0.39042,0.26582,0.66454,204,2.20961,-0.22,-0.10799,0.39042,5,1D2U,2.0,True,1.194,20,False,right,0.08307,0.364,0.8143,0.4503,1.4143,2.0557,0.6414,A,0.055
205,0.49841,1.2,1,0.28243,0.2492,0.68946,205,2.46711,0.5,0.2492,0.74761,5,2D1U,1.0,True,0.599,21,False,left,-0.2492,0.2602,1.0679,0.8077,1.86,2.1679,0.3079,A,0.055
206,0.49841,0.1,1,0.34888,0.3738,0.47348,206,2.42556,0.46,0.23259,0.73099,5,2D1U,2.0,False,0.349,21,False,right,0.08307,0.3239,1.1141,0.7903,1.5228,2.1646,0.6418,A,0.055
207,0.49841,0.1,1,0.26582,0.41534,0.78914,207,2.37574,-0.18,-0.09137,0.40703,5,1D2U,2.0,True,0.508,20,False,right,-0.2492,0.244,0.7108,0.4668,1.6028,1.9117,0.3089,A,0.055
208,0.49841,1.2,1,0.2492,0.42364,0.50671,208,2.08499,-0.18,-0.09137,0.40703,5,1D2U,2.0,True,0.67,20,False,right,0.08307,0.2256,0.6917,0.4661,1.1335,1.7749,0.6414,A,0.055
209,0.49841,1.2,1,0.42364,0.42364,0.59809,209,2.37573,-0.14,-0.06645,0.43195,5,1D2U,2.0,True,0.474,20,False,right,-0.2492,0.3981,0.8902,0.4921,1.5903,1.8985,0.3082,A,0.055
210,0.49841,0.1,2,0.26582,0.29074,0.7393,210,2.22622,-0.14,-0.06645,0.43195,5,1D2U,1.0,True,1.122,20,False,left,0.08307,1.5558,1.6143,0.0585,0.1974,0.8388,0.6414,A,0.055
211,0.49841,0.1,1,0.27412,0.26582,0.76422,211,2.55018,0.5,0.2492,0.74761,5,2D1U,1.0,True,0.209,22,True,left,-0.2492,0.2467,1.0551,0.8084,1.9217,2.23,0.3082,A,0.055
212,0.49841,1.2,2,0.29904,0.38211,0.47348,212,2.40065,0.5,0.2492,0.74761,5,2D1U,2.0,True,0.3,22,True,right,0.08307,1.3195,1.3777,0.0582,0.2276,0.8696,0.642,A,0.055
213,0.49841,1.2,1,0.28243,0.40703,0.44856,213,2.36742,0.46,0.23259,0.73099,5,2D1U,2.0,False,0.108,23,True,right,-0.2492,0.2585,1.05,0.7915,1.6002,1.9085,0.3083,A,0.055
214,0.49841,0.1,1,0.28243,0.25751,0.56486,214,2.05177,-0.1,-0.04984,0.44856,5,1D2U,1.0,False,0.161,20,False,left,0.08307,0.26,0.768,0.508,1.2683,1.9098,0.6415,A,0.055
215,0.49841,0.1,1,0.30735,0.43195,0.89713,215,2.56679,-0.14,-0.06645,0.43195,5,1D2U,1.0,False,0.295,21,True,left,-0.2492,0.2867,0.7776,0.4909,1.7776,2.0865,0.3089,A,0.055
216,0.49841,1.2,2,0.43195,0.44856,0.68115,216,2.80768,0.5,0.2492,0.74761,5,2D1U,2.0,True,0.11,24,True,right,0.08307,1.6657,1.7245,0.0587,0.3659,1.0083,0.6424,A,0.055
217,0.49841,1.2,2,0.35719,0.39872,0.40703,217,2.40896,0.5,0.2492,0.74761,5,2D1U,2.0,True,0.254,24,True,right,-0.2492,1.1456,1.2053,0.0597,0.4546,0.7636,0.309,A,0.055
218,0.49841,0.1,1,0.33227,0.25751,0.72269,218,2.54187,0.46,0.23259,0.73099,5,2D1U,1.0,True,0.33,25,True,left,0.08307,0.3108,1.1027,0.7919,1.7608,2.4023,0.6415,A,0.055
219,0.49841,0.1,2,0.2409,0.31566,0.56486,219,2.35082,0.46,0.23259,0.73099,5,2D1U,2.0,True,0.183,25,True,right,-0.2492,1.1948,1.2533,0.0585,0.345,0.653,0.3081,A,0.055
220,0.49841,1.2,2,0.32396,0.39872,0.40703,220,2.03515,-0.18,-0.09137,0.40703,5,1D2U,1.0,True,0.757,21,False,left,0.08307,1.2837,1.3418,0.0581,0.2585,0.8995,0.641,A,0.055
221,0.49841,1.2,1,0.43195,0.23259,0.82237,221,2.39235,-0.18,-0.09137,0.40703,5,1D2U,2.0,True,0.371,21,False,right,-0.2492,0.4038,0.8695,0.4657,1.7944,2.1031,0.3087,A,0.055
222,0.49841,0.1,1,0.2492,0.42364,0.59809,222,2.20129,-0.14,-0.06645,0.43195,5,1D2U,2.0,True,0.11,22,True,right,0.08307,0.2257,0.7177,0.492,1.2515,1.8922,0.6407,A,0.055
223,0.49841,0.1,2,0.43195,0.38211,0.70607,223,2.72461,0.42,0.20767,0.70607,5,2D1U,2.0,True,0.489,25,False,right,-0.2492,1.5217,1.5795,0.0579,0.5293,0.8383,0.3089,A,0.055
224,0.49841,1.2,1,0.25751,0.34058,0.62301,224,2.15146,-0.14,-0.06645,0.43195,5,1D2U,1.0,False,0.313,22,True,left,0.08307,0.2299,0.7214,0.4916,1.2795,1.9212,0.6417,A,0.055
225,0.49841,1.2,2,0.31566,0.21598,0.77253,225,2.50865,0.42,0.20767,0.70607,5,2D1U,2.0,True,1.008,25,False,right,-0.2492,1.4762,1.5341,0.0579,0.4183,0.7264,0.3081,A,0.055
226,0.49841,0.1,2,0.38211,0.34058,0.58978,226,2.21791,-0.18,-0.09137,0.40703,5,1D2U,1.0,True,0.971,23,True,left,0.08307,1.523,1.5805,0.0575,0.3146,0.9563,0.6417,A,0.055
227,0.49841,0.1,2,0.30735,0.34888,0.47348,227,2.31758,0.38,0.19106,0.68946,5,2D1U,2.0,True,0.183,25,False,right,-0.2492,1.1662,1.223,0.0568,0.407,0.7151,0.3081,A,0.055
228,0.49841,1.2,2,0.30735,0.29904,0.8639,228,2.37573,-0.18,-0.09137,0.40703,5,1D2U,1.0,True,0.617,23,True,left,0.08307,1.7254,1.7837,0.0582,0.2415,0.8838,0.6423,A,0.055
229,0.49841,1.2,1,0.25751,0.26582,0.76422,229,2.47542,0.38,0.19106,0.68946,5,2D1U,1.0,True,0.219,25,False,left,-0.2492,0.2313,0.9822,0.751,1.8485,2.1562,0.3077,A,0.055
230,0.49841,0.1,1,0.44026,0.35719,0.88052,230,2.60833,-0.14,-0.06645,0.43195,5,1D2U,1.0,False,0.57,24,True,left,0.08307,0.4181,0.9106,0.4925,1.7269,2.3679,0.641,A,0.055
231,0.49841,0.1,2,0.22428,0.43195,0.56486,231,2.39235,0.34,0.16614,0.67285,5,2D1U,1.0,False,0.227,25,False,left,-0.2492,1.1735,1.2322,0.0587,0.3243,0.6332,0.309,A,0.055
232,0.49841,1.2,2,0.41534,0.44856,0.6147,232,2.38404,-0.18,-0.09137,0.40703,5,1D2U,2.0,False,1.565,25,True,right,0.08307,1.5811,1.6396,0.0585,0.348,0.9884,0.6404,A,0.055
233,0.49841,1.2,2,0.25751,0.2409,0.67285,233,2.06009,-0.22,-0.10799,0.39042,5,1D2U,2.0,False,0.498,25,False,right,-0.2492,1.3163,1.3741,0.0578,0.3577,0.6661,0.3085,A,0.055
234,0.49841,0.1,1,0.20767,0.33227,0.59809,234,2.01024,-0.26,-0.13291,0.3738,5,1D2U,2.0,True,5.524,25,False,right,0.08307,0.1853,0.6189,0.4336,1.1524,1.794,0.6415,A,0.055
235,0.49841,0.1,2,0.27412,0.35719,0.67285,235,2.49203,0.38,0.19106,0.68946,5,2D1U,2.0,True,0.387,26,True,right,-0.2492,1.3325,1.3906,0.0581,0.3734,0.6819,0.3084,A,0.055
236,0.49841,1.2,1,0.42364,0.39042,0.44856,236,2.13483,-0.26,-0.13291,0.3738,5,1D2U,2.0,True,0.267,25,False,right,0.08307,0.3967,0.8297,0.4331,1.2131,1.855,0.642,A,0.055
237,0.49841,1.2,2,0.43195,0.26582,0.57317,237,2.45881,0.38,0.19106,0.68946,5,2D1U,2.0,True,0.375,26,True,right,-0.2492,1.3898,1.448,0.0582,0.5312,0.8398,0.3085,A,0.055
238,0.49841,0.1,2,0.31566,0.22428,0.83898,238,2.55018,0.34,0.16614,0.67285,5,2D1U,2.0,True,0.483,27,True,right,0.08307,1.7046,1.7629,0.0583,0.2465,0.8879,0.6414,A,0.055
239,0.49841,0.1,2,0.19936,0.39872,0.51502,239,2.00193,-0.22,-0.10799,0.39042,5,1D2U,2.0,False,0.206,26,True,right,-0.2492,1.1027,1.161,0.0582,0.3032,0.6118,0.3086,A,0.055
240,0.49841,1.2,1,0.34888,0.32396,0.87221,240,2.41726,-0.26,-0.13291,0.3738,5,1D2U,2.0,True,0.535,27,True,right,0.08307,0.328,0.7616,0.4336,1.5712,2.2109,0.6397,A,0.055
241,0.49841,1.2,1,0.35719,0.35719,0.73099,241,2.61663,0.34,0.16614,0.67285,5,2D1U,1.0,True,0.195,27,True,left,-0.2492,0.3308,1.0628,0.732,1.8959,2.2054,0.3095,A,0.055
242,0.49841,0.1,2,0.31566,0.25751,0.78083,242,2.50034,0.3,0.14952,0.64793,5,2D1U,2.0,True,0.376,27,False,right,0.08307,1.6467,1.7045,0.0578,0.2466,0.8874,0.6409,A,0.055
243,0.49841,0.1,1,0.22428,0.29904,0.88882,243,2.28435,-0.26,-0.13291,0.3738,5,1D2U,2.0,True,0.156,27,True,right,-0.2492,0.1981,0.6305,0.4324,1.6228,1.9313,0.3085,A,0.055
244,0.49841,1.2,1,0.21598,0.21598,0.6147,244,1.93549,-0.22,-0.10799,0.39042,5,1D2U,2.0,True,0.184,28,True,right,0.08307,0.1904,0.642,0.4517,1.1902,1.8324,0.6421,A,0.055
245,0.49841,1.2,1,0.20767,0.29074,0.59809,245,1.98533,-0.22,-0.10799,0.39042,5,1D2U,2.0,True,0.156,28,True,right,-0.2492,0.1797,0.6294,0.4497,1.3295,1.6378,0.3083,A,0.055
246,0.49841,0.1,1,0.33227,0.44856,0.53994,246,2.46711,0.3,0.14952,0.64793,5,2D1U,2.0,False,0.11,27,False,right,0.08307,0.3068,1.0153,0.7085,1.4898,2.1318,0.6421,A,0.055
247,0.49841,0.1,1,0.39872,0.42364,0.52333,247,2.25113,-0.18,-0.09137,0.40703,5,1D2U,2.0,True,0.634,28,False,right,-0.2492,0.3733,0.84,0.4667,1.4654,1.7736,0.3082,A,0.055
248,0.49841,1.2,1,0.20767,0.29074,0.78914,248,2.45881,0.34,0.16614,0.67285,5,2D1U,1.0,True,0.208,28,True,left,0.08307,0.1863,0.9194,0.7331,1.6438,2.2863,0.6425,A,0.055
249,0.49841,1.2,2,0.23259,0.31566,0.77253,249,2.22622,-0.18,-0.09137,0.40703,5,1D2U,2.0,False,0.41,28,False,right,-0.2492,1.3919,1.4502,0.0583,0.3332,0.6412,0.308,A,0.055
250,0.49841,0.1,1,0.19936,0.32396,0.77253,250,2.18468,-0.22,-0.10799,0.39042,5,1D2U,1.0,False,0.356,29,True,left,0.08307,0.1697,0.6199,0.4502,1.3286,1.9701,0.6416,A,0.055
251,0.49841,0.1,2,0.23259,0.39042,0.51502,251,2.30929,0.34,0.16614,0.67285,5,2D1U,1.0,False,2.092,28,True,left,-0.2492,1.135,1.1939,0.0589,0.3355,0.6438,0.3083,A,0.055
252,0.49841,1.2,1,0.21598,0.25751,0.79745,252,2.14315,-0.26,-0.13291,0.3738,5,1D2U,2.0,True,0.397,29,False,right,0.08307,0.1887,0.6222,0.4335,1.3554,1.9973,0.642,A,0.055
253,0.49841,1.2,1,0.26582,0.26582,0.58978,253,2.30929,0.38,0.19106,0.68946,5,2D1U,2.0,False,0.333,28,False,right,-0.2492,0.2451,0.994,0.7489,1.686,1.995,0.3091,A,0.055
254,0.49841,0.1,2,0.28243,0.34888,0.4901,254,2.32589,0.42,0.20767,0.70607,5,2D1U,2.0,True,0.142,28,False,right,0.08307,1.3244,1.3819,0.0576,0.2152,0.8564,0.6412,A,0.055
255,0.49841,0.1,2,0.39872,0.33227,0.67285,255,2.27605,-0.26,-0.13291,0.3738,5,1D2U,2.0,False,0.111,29,False,right,-0.2492,1.4576,1.5155,0.0579,0.4986,0.8068,0.3082,A,0.055
256,0.49841,1.2,2,0.35719,0.26582,0.42364,256,2.25113,0.42,0.20767,0.70607,5,2D1U,2.0,True,0.221,28,False,right,0.08307,1.3317,1.3899,0.0582,0.2902,0.9323,0.6421,A,0.055
257,0.49841,1.2,1,0.44856,0.22428,0.58978,257,2.45049,0.38,0.19106,0.68946,5,2D1U,2.0,False,1.25,29,True,right,-0.2492,0.4268,1.1777,0.7509,1.8691,2.1777,0.3086,A,0.055
258,0.49841,0.1,1,0.39042,0.2409,0.63131,258,2.46711,0.42,0.20767,0.70607,5,2D1U,1.0,True,2.66,30,True,left,0.08307,0.3698,1.1354,0.7657,1.7022,2.3445,0.6423,A,0.055
259,0.49841,0.1,1,0.22428,0.34058,0.89713,259,2.30928,-0.3,-0.14952,0.34888,5,1D2U,2.0,True,0.459,29,False,right,-0.2492,0.2028,0.6112,0.4084,1.6113,1.919,0.3078,A,0.055
260,0.49841,1.2,2,0.33227,0.44856,0.80575,260,2.43387,-0.3,-0.14952,0.34888,5,1D2U,2.0,False,1.401,29,False,right,0.08307,1.6932,1.7518,0.0587,0.2676,0.9102,0.6426,A,0.055
261,0.49841,1.2,2,0.2409,0.39042,0.74761,261,2.20961,-0.34,-0.16614,0.33227,5,1D2U,1.0,True,7.059,29,False,left,-0.2492,1.3721,1.4305,0.0584,0.3386,0.6478,0.3092,A,0.055
262,0.49841,0.1,2,0.44026,0.43195,0.67285,262,2.74954,0.42,0.20767,0.70607,5,2D1U,2.0,True,0.375,30,True,right,0.08307,1.6654,1.7235,0.0581,0.3733,1.0155,0.6422,A,0.055
263,0.49841,0.1,2,0.38211,0.31566,0.52333,263,2.40897,0.38,0.19106,0.68946,5,2D1U,2.0,True,0.334,31,True,right,-0.2492,1.2941,1.3526,0.0586,0.486,0.794,0.308,A,0.055
264,0.49841,1.2,1,0.2492,0.33227,0.8556,264,2.62494,0.38,0.19106,0.68946,5,2D1U,2.0,False,3.188,31,True,right,0.08307,0.2208,0.9712,0.7503,1.7627,2.4045,0.6419,A,0.055
265,0.49841,1.2,2,0.29904,0.30735,0.83068,265,2.26775,-0.34,-0.16614,0.33227,5,1D2U,1.0,True,0.343,29,False,left,-0.2492,1.5148,1.5739,0.0591,0.3981,0.7071,0.3091,A,0.055
266,0.49841,0.1,2,0.34888,0.42364,0.87221,266,2.49202,-0.3,-0.14952,0.34888,5,1D2U,1.0,True,0.308,30,True,left,0.08307,1.7737,1.832,0.0582,0.2827,0.9241,0.6414,A,0.055
267,0.49841,0.1,1,0.21598,0.38211,0.55655,267,2.35912,0.42,0.20767,0.70607,5,2D1U,1.0,True,0.392,32,True,left,-0.2492,0.1895,0.9571,0.7676,1.6148,1.9231,0.3084,A,0.055
268,0.49841,1.2,1,0.38211,0.34058,0.58978,268,2.51695,0.42,0.20767,0.70607,5,2D1U,2.0,False,0.197,32,True,right,0.08307,0.3601,1.1269,0.7668,1.6519,2.2926,0.6407,A,0.055
269,0.49841,1.2,1,0.29074,0.31566,0.8639,269,2.6997,0.46,0.23259,0.73099,5,2D1U,1.0,True,4.299,32,False,left,-0.2492,0.266,1.0569,0.791,2.0241,2.3323,0.3081,A,0.055
270,0.49841,0.1,1,0.23259,0.3655,0.53163,270,2.35912,0.46,0.23259,0.73099,5,2D1U,1.0,True,0.834,32,False,left,0.08307,0.2072,0.9988,0.7916,1.465,2.1079,0.6429,A,0.055
271,0.49841,0.1,1,0.41534,0.41534,0.68946,271,2.36743,-0.3,-0.14952,0.34888,5,1D2U,2.0,True,0.4,30,True,right,-0.2492,0.3886,0.7962,0.4076,1.5879,1.8956,0.3076,A,0.055
272,0.49841,1.2,2,0.29904,0.38211,0.44026,272,2.32589,0.42,0.20767,0.70607,5,2D1U,2.0,True,0.572,33,True,right,0.08307,1.2886,1.3471,0.0585,0.2299,0.8715,0.6416,A,0.055
273,0.49841,1.2,2,0.30735,0.23259,0.73099,273,2.14314,-0.26,-0.13291,0.3738,5,1D2U,2.0,False,0.53,30,False,right,-0.2492,1.4233,1.4811,0.0578,0.4067,0.7141,0.3075,A,0.055
274,0.49841,0.1,2,0.27412,0.2409,0.73099,274,2.45049,0.42,0.20767,0.70607,5,2D1U,2.0,True,0.283,33,True,right,0.08307,1.5617,1.62,0.0583,0.2124,0.8525,0.6401,A,0.055
275,0.49841,0.1,1,0.38211,0.39872,0.53163,275,2.50033,0.38,0.19106,0.68946,5,2D1U,2.0,False,0.113,33,False,right,-0.2492,0.3604,1.1118,0.7513,1.7439,2.053,0.3091,A,0.055
276,0.49841,1.2,1,0.34058,0.27412,0.65623,276,2.47541,0.42,0.20767,0.70607,5,2D1U,1.0,True,0.274,34,True,left,0.08307,0.3145,1.0815,0.7671,1.6728,2.3154,0.6426,A,0.055
277,0.49841,1.2,1,0.28243,0.20767,0.48179,277,1.81918,-0.3,-0.14952,0.34888,5,1D2U,2.0,True,0.613,31,True,right,-0.2492,0.2604,0.6699,0.4096,1.2523,1.5605,0.3082,A,0.055
278,0.49841,0.1,1,0.32396,0.25751,0.62301,278,2.40896,0.42,0.20767,0.70607,5,2D1U,1.0,True,0.233,34,True,left,0.08307,0.2986,1.0652,0.7666,1.6239,2.2652,0.6413,A,0.055
279,0.49841,0.1,2,0.29074,0.40703,0.77253,279,2.31759,-0.3,-0.14952,0.34888,5,1D2U,1.0,True,0.274,31,True,left,-0.2492,1.4512,1.5095,0.0583,0.3934,0.7016,0.3082,A,0.055
280,0.49841,1.2,1,0.31566,0.19936,0.43195,280,1.81918,-0.26,-0.13291,0.3738,5,1D2U,2.0,True,0.327,32,True,right,0.08307,0.2955,0.7275,0.4319,1.094,1.7357,0.6417,A,0.055
281,0.49841,1.2,1,0.3655,0.33227,0.66454,281,2.55018,0.38,0.19106,0.68946,5,2D1U,1.0,True,0.542,35,True,left,-0.2492,0.3396,1.0898,0.7502,1.8565,2.1651,0.3086,A,0.055
282,0.49841,0.1,2,0.27412,0.35719,0.50671,282,2.01023,-0.26,-0.13291,0.3738,5,1D2U,1.0,True,2.441,32,True,left,0.08307,1.3311,1.3897,0.0586,0.2065,0.8489,0.6424,A,0.055
283,0.49841,0.1,2,0.31566,0.29904,0.69777,283,2.2013,-0.22,-0.10799,0.39042,5,1D2U,1.0,True,5.257,32,False,left,-0.2492,1.4004,1.4579,0.0576,0.4179,0.7256,0.3077,A,0.055
284,0.49841,1.2,1,0.2492,0.2492,0.63131,284,2.31758,0.38,0.19106,0.68946,5,2D1U,2.0,False,0.652,35,True,right,0.08307,0.2277,0.9781,0.7504,1.5449,2.1856,0.6407,A,0.055
285,0.49841,1.2,1,0.38211,0.32396,0.57317,285,2.16807,-0.22,-0.10799,0.39042,5,1D2U,2.0,True,0.701,32,False,right,-0.2492,0.3552,0.805,0.4498,1.4808,1.7886,0.3078,A,0.055
286,0.49841,0.1,2,0.29904,0.26582,0.68946,286,2.4588,0.42,0.20767,0.70607,5,2D1U,2.0,True,0.291,36,True,right,0.08307,1.5445,1.6027,0.0582,0.2355,0.8777,0.6422,A,0.055
287,0.49841,0.1,1,0.2409,0.2409,0.81406,287,2.50034,0.42,0.20767,0.70607,5,2D1U,1.0,True,0.218,36,True,left,-0.2492,0.2178,0.9845,0.7667,1.9014,2.2096,0.3083,A,0.055
288,0.49841,1.2,2,0.20767,0.43195,0.65623,288,2.20129,-0.18,-0.09137,0.40703,5,1D2U,2.0,False,0.38,32,False,right,0.08307,1.4186,1.477,0.0584,0.1433,0.7852,0.6419,A,0.055
289,0.49841,1.2,2,0.40703,0.44026,0.63131,289,2.36743,-0.22,-0.10799,0.39042,5,1D2U,1.0,True,0.276,33,True,left,-0.2492,1.4241,1.4812,0.0571,0.5062,0.815,0.3088,A,0.055
290,0.49841,0.1,1,0.43195,0.26582,0.75591,290,2.34251,-0.22,-0.10799,0.39042,5,1D2U,2.0,True,0.213,33,True,right,0.08307,0.4049,0.8555,0.4506,1.5482,2.1879,0.6397,A,0.055
291,0.49841,0.1,2,0.29904,0.29904,0.41534,291,2.20129,0.38,0.19106,0.68946,5,2D1U,2.0,True,0.114,37,True,right,-0.2492,1.0975,1.1549,0.0574,0.3967,0.705,0.3083,A,0.055
292,0.49841,1.2,2,0.30735,0.2492,0.71438,292,2.4588,0.38,0.19106,0.68946,5,2D1U,1.0,False,0.326,37,True,left,0.08307,1.5715,1.6295,0.058,0.2378,0.8788,0.641,A,0.055
293,0.49841,1.2,1,0.19936,0.35719,0.71438,293,2.17637,-0.18,-0.09137,0.40703,5,1D2U,2.0,True,1.912,34,True,right,-0.2492,0.1721,0.6388,0.4667,1.4567,1.7641,0.3073,A,0.055
294,0.49841,0.1,2,0.29904,0.34058,0.8639,294,2.708,0.42,0.20767,0.70607,5,2D1U,2.0,True,1.133,38,True,right,0.08307,1.7199,1.7787,0.0588,0.2369,0.8787,0.6418,A,0.055
295,0.49841,0.1,2,0.35719,0.3738,0.82237,295,2.4588,-0.18,-0.09137,0.40703,5,1D2U,1.0,True,0.401,34,True,left,-0.2492,1.5645,1.6226,0.0581,0.4561,0.7643,0.3082,A,0.055
296,0.49841,1.2,1,0.29904,0.3655,0.78083,296,2.64985,0.42,0.20767,0.70607,5,2D1U,1.0,True,0.867,38,True,left,0.08307,0.2726,1.0399,0.7674,1.7567,2.3975,0.6408,A,0.055
297,0.49841,1.2,2,0.29074,0.2409,0.51502,297,1.97702,-0.14,-0.06645,0.43195,5,1D2U,2.0,False,0.406,34,False,right,-0.2492,1.189,1.248,0.059,0.3892,0.6967,0.3075,A,0.055
298,0.49841,0.1,2,0.38211,0.3655,0.68946,298,2.34251,-0.18,-0.09137,0.40703,5,1D2U,2.0,False,0.913,35,True,right,0.08307,1.6265,1.6843,0.0577,0.3188,0.9594,0.6407,A,0.055
299,0.49841,0.1,1,0.44026,0.2492,0.45687,299,2.03516,-0.22,-0.10799,0.39042,5,1D2U,1.0,False,0.7,35,False,left,-0.2492,0.415,0.8645,0.4495,1.4231,1.7314,0.3083,A,0.055
300,0.49841,1.2,2,0.44026,0.41534,0.40703,300,2.4505,0.38,0.19106,0.68946,5,2D1U,2.0,True,7.396,39,True,right,0.08307,1.3963,1.4557,0.0594,0.3716,1.0133,0.6417,A,0.055
301,0.49841,1.2,2,0.33227,0.26582,0.69777,301,2.16807,-0.26,-0.13291,0.3738,5,1D2U,2.0,False,0.911,35,False,right,-0.2492,1.4121,1.4705,0.0584,0.429,0.7366,0.3076,A,0.055
302,0.49841,0.1,2,0.2409,0.21598,0.63131,302,1.93548,-0.3,-0.14952,0.34888,5,1D2U,2.0,False,1.059,35,False,right,0.08307,1.4208,1.4791,0.0583,0.1712,0.8132,0.642,A,0.055
303,0.49841,0.1,2,0.38211,0.31566,0.44856,303,1.97701,-0.34,-0.16614,0.33227,5,1D2U,1.0,True,0.601,35,False,left,-0.2492,1.2176,1.2765,0.0589,0.4855,0.7923,0.3068,A,0.055
304,0.49841,1.2,2,0.28243,0.2409,0.52333,304,2.23453,0.38,0.19106,0.68946,5,2D1U,2.0,True,0.291,39,True,right,0.08307,1.3571,1.4164,0.0593,0.216,0.8576,0.6415,A,0.055
305,0.49841,1.2,1,0.3738,0.28243,0.54825,305,2.37574,0.34,0.16614,0.67285,5,2D1U,2.0,False,0.241,39,False,right,-0.2492,0.3487,1.0823,0.7336,1.732,2.0401,0.3081,A,0.055
306,0.49841,0.1,1,0.30735,0.31566,0.7393,306,2.19299,-0.34,-0.16614,0.33227,5,1D2U,2.0,True,0.641,35,False,right,0.08307,0.2819,0.6739,0.392,1.3483,1.9905,0.6422,A,0.055
307,0.49841,0.1,2,0.39872,0.22428,0.56486,307,2.37573,0.38,0.19106,0.68946,5,2D1U,2.0,True,0.4,40,True,right,-0.2492,1.3459,1.4045,0.0586,0.4963,0.8042,0.3079,A,0.055
308,0.49841,1.2,2,0.19936,0.29904,0.41534,308,2.10161,0.38,0.19106,0.68946,5,2D1U,2.0,True,0.281,40,True,right,0.08307,1.169,1.2272,0.0583,0.1358,0.7767,0.6409,A,0.055
309,0.49841,1.2,2,0.34058,0.39042,0.83898,309,2.41727,-0.3,-0.14952,0.34888,5,1D2U,2.0,False,0.28,36,True,right,-0.2492,1.5689,1.6271,0.0582,0.444,0.7522,0.3081,A,0.055
310,0.49841,0.1,1,0.39042,0.26582,0.58978,310,2.41728,0.34,0.16614,0.67285,5,2D1U,2.0,False,1.267,41,True,right,0.08307,0.369,1.1025,0.7336,1.6276,2.2692,0.6416,A,0.055
311,0.49841,0.1,2,0.19936,0.28243,0.51502,311,2.18468,0.38,0.19106,0.68946,5,2D1U,2.0,True,0.333,42,True,right,-0.2492,1.095,1.1534,0.0585,0.295,0.6031,0.3081,A,0.055
312,0.49841,1.2,1,0.44856,0.44026,0.84729,312,2.92398,0.38,0.19106,0.68946,5,2D1U,1.0,True,0.625,42,True,left,0.08307,0.4275,1.1766,0.7492,1.9604,2.6017,0.6414,A,0.055
313,0.49841,1.2,1,0.34888,0.29904,0.88882,313,2.36742,-0.34,-0.16614,0.33227,5,1D2U,2.0,True,1.008,37,True,right,-0.2492,0.3205,0.712,0.3915,1.7037,2.0126,0.3089,A,0.055
314,0.49841,0.1,1,0.32396,0.31566,0.63962,314,2.10992,-0.34,-0.16614,0.33227,5,1D2U,1.0,False,0.473,37,True,left,0.08307,0.3017,0.6916,0.3899,1.2673,1.9087,0.6414,A,0.055
315,0.49841,0.1,2,0.21598,0.29074,0.47348,315,2.15146,0.34,0.16614,0.67285,5,2D1U,2.0,True,0.495,43,True,right,-0.2492,1.0718,1.1309,0.0591,0.3127,0.6211,0.3084,A,0.055
316,0.49841,1.2,1,0.28243,0.27412,0.46518,316,1.82749,-0.38,-0.19106,0.30735,5,1D2U,2.0,True,0.416,37,False,right,0.08307,0.2556,0.6236,0.368,1.0226,1.6639,0.6413,A,0.055
317,0.49841,1.2,2,0.35719,0.22428,0.79745,317,2.55018,0.34,0.16614,0.67285,5,2D1U,2.0,True,0.392,43,True,right,-0.2492,1.5443,1.6028,0.0585,0.4612,0.7694,0.3081,A,0.055
318,0.49841,0.1,2,0.2409,0.3738,0.4901,318,1.91056,-0.38,-0.19106,0.30735,5,1D2U,2.0,False,0.342,37,False,right,0.08307,1.2857,1.3444,0.0587,0.1778,0.8192,0.6414,A,0.055
319,0.49841,0.1,2,0.2409,0.32396,0.52333,319,1.87734,-0.42,-0.20767,0.29074,5,1D2U,2.0,False,0.326,37,False,right,-0.2492,1.1516,1.2092,0.0576,0.3421,0.6507,0.3086,A,0.055
320,0.49841,1.2,1,0.30735,0.41534,0.83068,320,2.3259,-0.46,-0.23259,0.27412,5,1D2U,2.0,True,0.17,37,False,right,0.08307,0.2808,0.6139,0.3331,1.3805,2.0221,0.6415,A,0.055
321,0.49841,1.2,1,0.2492,0.25751,0.46518,321,2.11823,0.3,0.14952,0.64793,5,2D1U,2.0,False,0.172,43,False,right,-0.2492,0.2232,0.9314,0.7083,1.4984,1.8059,0.3074,A,0.055
322,0.49841,0.1,1,0.31566,0.25751,0.50671,322,1.85241,-0.46,-0.23259,0.27412,5,1D2U,2.0,True,0.179,37,False,right,0.08307,0.2897,0.6235,0.3338,1.0646,1.7063,0.6416,A,0.055
323,0.49841,0.1,1,0.28243,0.39042,0.49841,323,1.96041,-0.42,-0.20767,0.29074,5,1D2U,1.0,False,0.625,38,True,left,-0.2492,0.2552,0.6045,0.3494,1.2043,1.5129,0.3087,A,0.055
324,0.49841,1.2,1,0.29074,0.3655,0.43195,324,1.86072,-0.46,-0.23259,0.27412,5,1D2U,2.0,True,0.375,39,True,right,0.08307,0.2676,0.6016,0.334,0.9682,1.6095,0.6413,A,0.055
325,0.49841,1.2,1,0.23259,0.21598,0.81406,325,2.43389,0.34,0.16614,0.67285,5,2D1U,1.0,True,0.756,44,True,left,-0.2492,0.2045,0.9383,0.7339,1.8544,2.1628,0.3084,A,0.055
326,0.49841,0.1,2,0.44856,0.26582,0.8639,326,2.74954,0.34,0.16614,0.67285,5,2D1U,2.0,True,0.453,44,True,right,0.08307,1.8714,1.9302,0.0587,0.3876,1.0298,0.6422,A,0.055
327,0.49841,0.1,1,0.30735,0.25751,0.57317,327,2.28437,0.3,0.14952,0.64793,5,2D1U,1.0,True,0.331,45,True,left,-0.2492,0.2867,0.9949,0.7082,1.6709,1.9782,0.3074,A,0.055
328,0.49841,1.2,2,0.39872,0.2409,0.75591,328,2.16806,-0.46,-0.23259,0.27412,5,1D2U,1.0,True,0.656,39,True,left,0.08307,1.7049,1.7629,0.058,0.3291,0.9704,0.6413,A,0.055
329,0.49841,1.2,1,0.31566,0.31566,0.48179,329,1.90226,-0.42,-0.20767,0.29074,5,1D2U,2.0,True,0.597,40,True,right,-0.2492,0.2881,0.6385,0.3504,1.2214,1.5303,0.3089,A,0.055
330,0.49841,0.1,1,0.2409,0.38211,0.43195,330,1.84411,-0.42,-0.20767,0.29074,5,1D2U,2.0,True,0.779,40,True,right,0.08307,0.2144,0.5635,0.3491,0.9306,1.5715,0.6409,A,0.055
331,0.49841,0.1,1,0.23259,0.21598,0.75591,331,2.35082,0.3,0.14952,0.64793,5,2D1U,1.0,True,2.697,45,True,left,-0.2492,0.2038,0.9122,0.7084,1.7701,2.0798,0.3097,A,0.055
332,0.49841,1.2,2,0.44856,0.23259,0.87221,332,2.35912,-0.38,-0.19106,0.30735,5,1D2U,1.0,True,0.335,40,False,left,0.08307,1.873,1.9319,0.0589,0.3808,1.0231,0.6423,A,0.055
333,0.49841,1.2,1,0.28243,0.40703,0.72269,333,2.21791,-0.38,-0.19106,0.30735,5,1D2U,2.0,True,0.295,40,False,right,-0.2492,0.2566,0.623,0.3663,1.4479,1.7579,0.31,A,0.055
334,0.49841,0.1,2,0.30735,0.26582,0.60639,334,2.30928,0.26,0.13291,0.63131,5,2D1U,2.0,True,0.325,45,False,right,0.08307,1.4682,1.527,0.0587,0.2429,0.8845,0.6416,A,0.055
335,0.49841,0.1,1,0.23259,0.34058,0.84729,335,2.25114,-0.34,-0.16614,0.33227,5,1D2U,1.0,False,0.367,40,False,left,-0.2492,0.2069,0.5982,0.3913,1.5494,1.8564,0.307,A,0.055
336,0.49841,1.2,2,0.44026,0.28243,0.43195,336,2.28436,0.26,0.13291,0.63131,5,2D1U,2.0,True,0.417,45,False,right,0.08307,1.4271,1.4854,0.0583,0.3767,1.0182,0.6415,A,0.055
337,0.49841,1.2,2,0.40703,0.2409,0.84729,337,2.30098,-0.38,-0.19106,0.30735,5,1D2U,2.0,False,1.026,41,True,right,-0.2492,1.6441,1.7026,0.0585,0.5116,0.8201,0.3085,A,0.055
338,0.49841,0.1,1,0.2492,0.31566,0.49841,338,1.85242,-0.42,-0.20767,0.29074,5,1D2U,2.0,True,0.248,41,False,right,0.08307,0.2246,0.5748,0.3502,1.0085,1.6501,0.6417,A,0.055
339,0.49841,0.1,2,0.44026,0.21598,0.74761,339,2.50865,0.22,0.10799,0.60639,5,2D1U,2.0,True,0.484,45,False,right,-0.2492,1.5719,1.6308,0.0588,0.5387,0.8468,0.3082,A,0.055
340,0.49841,1.2,1,0.44026,0.21598,0.44026,340,1.88565,-0.42,-0.20767,0.29074,5,1D2U,2.0,True,0.537,41,False,right,0.08307,0.4148,0.765,0.3502,1.1402,1.7819,0.6417,A,0.055
341,0.49841,1.2,2,0.39872,0.26582,0.7393,341,2.50864,0.22,0.10799,0.60639,5,2D1U,1.0,False,0.378,45,False,left,-0.2492,1.5222,1.5804,0.0582,0.4981,0.8058,0.3077,A,0.055
342,0.49841,0.1,2,0.25751,0.25751,0.44856,342,1.76934,-0.38,-0.19106,0.30735,5,1D2U,1.0,True,0.725,42,True,left,0.08307,1.2561,1.3149,0.0588,0.1894,0.8316,0.6422,A,0.055
343,0.49841,0.1,1,0.41534,0.32396,0.52333,343,2.39235,0.26,0.13291,0.63131,5,2D1U,1.0,True,0.45,46,True,left,-0.2492,0.3909,1.0824,0.6915,1.7077,2.016,0.3083,A,0.055
344,0.49841,1.2,1,0.38211,0.26582,0.62301,344,2.0767,-0.38,-0.19106,0.30735,5,1D2U,2.0,True,0.387,42,True,right,0.08307,0.3568,0.7241,0.3673,1.2816,1.9235,0.6419,A,0.055
345,0.49841,1.2,2,0.38211,0.23259,0.78914,345,2.53356,0.26,0.13291,0.63131,5,2D1U,1.0,False,0.573,46,True,left,-0.2492,1.5569,1.6154,0.0586,0.481,0.7903,0.3093,A,0.055
346,0.49841,0.1,2,0.39042,0.3738,0.44026,346,2.35082,0.3,0.14952,0.64793,5,2D1U,2.0,True,0.363,46,False,right,0.08307,1.379,1.4368,0.0579,0.3211,0.9618,0.6406,A,0.055
347,0.49841,0.1,1,0.27412,0.35719,0.39872,347,1.86071,-0.34,-0.16614,0.33227,5,1D2U,2.0,True,0.667,42,False,right,-0.2492,0.2469,0.639,0.3921,1.1391,1.4469,0.3078,A,0.055
348,0.49841,1.2,2,0.23259,0.35719,0.78083,348,2.51695,0.3,0.14952,0.64793,5,2D1U,2.0,True,0.426,46,False,right,0.08307,1.5618,1.6199,0.0581,0.1611,0.8031,0.642,A,0.055
349,0.49841,1.2,1,0.26582,0.28243,0.42364,349,1.80257,-0.34,-0.16614,0.33227,5,1D2U,2.0,True,0.821,42,False,right,-0.2492,0.2399,0.6315,0.3915,1.1558,1.4651,0.3094,A,0.055
350,0.49841,0.1,1,0.30735,0.3655,0.81406,350,2.61663,0.26,0.13291,0.63131,5,2D1U,2.0,False,1.125,47,True,right,0.08307,0.2854,0.9758,0.6904,1.7267,2.3681,0.6414,A,0.055
351,0.49841,0.1,2,0.39872,0.22428,0.84729,351,2.31758,-0.3,-0.14952,0.34888,5,1D2U,1.0,True,0.688,42,False,left,-0.2492,1.6372,1.6951,0.0579,0.5026,0.8112,0.3086,A,0.055
352,0.49841,1.2,2,0.22428,0.29074,0.42364,352,2.085,0.3,0.14952,0.64793,5,2D1U,2.0,True,0.495,48,True,right,0.08307,1.2038,1.2618,0.0581,0.1621,0.8038,0.6416,A,0.055
353,0.49841,1.2,1,0.42364,0.3738,0.43195,353,2.07668,-0.3,-0.14952,0.34888,5,1D2U,2.0,True,0.326,42,False,right,-0.2492,0.3988,0.807,0.4082,1.3402,1.6485,0.3083,A,0.055
354,0.49841,0.1,2,0.42364,0.20767,0.6147,354,2.39235,0.3,0.14952,0.64793,5,2D1U,2.0,True,0.384,48,True,right,0.08307,1.59,1.6473,0.0573,0.3557,0.9974,0.6416,A,0.055
355,0.49841,0.1,1,0.25751,0.27412,0.49841,355,2.15976,0.26,0.13291,0.63131,5,2D1U,1.0,True,0.489,49,True,left,-0.2492,0.2301,0.9216,0.6915,1.5217,1.8301,0.3084,A,0.055
356,0.49841,1.2,2,0.31566,0.43195,0.81406,356,2.69139,0.26,0.13291,0.63131,5,2D1U,2.0,True,0.449,49,True,right,0.08307,1.6833,1.7418,0.0585,0.2504,0.8914,0.6409,A,0.055
357,0.49841,1.2,2,0.30735,0.34058,0.79745,357,2.55018,0.22,0.10799,0.60639,5,2D1U,2.0,True,0.359,49,False,right,-0.2492,1.4885,1.5467,0.0582,0.4046,0.713,0.3084,A,0.055
358,0.49841,0.1,1,0.33227,0.32396,0.67285,358,2.20129,-0.26,-0.13291,0.3738,5,1D2U,2.0,True,0.275,42,False,right,0.08307,0.3038,0.7373,0.4335,1.3455,1.9878,0.6423,A,0.055
359,0.49841,0.1,2,0.32396,0.39042,0.65623,359,2.47541,0.22,0.10799,0.60639,5,2D1U,2.0,True,0.156,49,False,right,-0.2492,1.3641,1.4219,0.0578,0.4224,0.731,0.3086,A,0.055
360,0.49841,1.2,1,0.21598,0.21598,0.69777,360,2.00194,-0.26,-0.13291,0.3738,5,1D2U,2.0,True,0.472,42,False,right,0.08307,0.1922,0.625,0.4328,1.2592,1.8992,0.64,A,0.055
361,0.49841,1.2,1,0.44026,0.43195,0.80575,361,2.56679,-0.22,-0.10799,0.39042,5,1D2U,2.0,True,0.787,42,False,right,-0.2492,0.4112,0.8621,0.4509,1.7693,2.0784,0.3091,A,0.055
362,0.49841,0.1,1,0.34058,0.34888,0.44856,362,2.22621,0.18,0.09137,0.58978,5,2D1U,1.0,True,1.303,49,False,left,0.08307,0.3137,0.9635,0.6498,1.3466,1.9884,0.6417,A,0.055
363,0.49841,0.1,2,0.25751,0.3738,0.75591,363,2.27605,-0.22,-0.10799,0.39042,5,1D2U,1.0,True,0.649,42,False,left,-0.2492,1.3984,1.4565,0.0581,0.3564,0.6651,0.3087,A,0.055
364,0.49841,1.2,2,0.25751,0.26582,0.76422,364,2.19299,-0.18,-0.09137,0.40703,5,1D2U,1.0,True,0.295,42,False,left,0.08307,1.5741,1.6324,0.0583,0.1908,0.8324,0.6416,A,0.055
365,0.49841,1.2,2,0.31566,0.42364,0.67285,365,2.50034,0.18,0.09137,0.58978,5,2D1U,2.0,True,0.392,49,False,right,-0.2492,1.374,1.4324,0.0584,0.4155,0.7241,0.3086,A,0.055
366,0.49841,0.1,1,0.34058,0.34888,0.88882,366,2.48372,-0.18,-0.09137,0.40703,5,1D2U,2.0,True,1.151,42,False,right,0.08307,0.3176,0.7842,0.4666,1.6099,2.2509,0.641,A,0.055
367,0.49841,0.1,1,0.40703,0.3655,0.4901,367,2.19299,-0.14,-0.06645,0.43195,5,1D2U,1.0,False,0.46,42,False,left,-0.2492,0.3844,0.877,0.4926,1.468,1.7767,0.3087,A,0.055
368,0.49841,1.2,1,0.44026,0.21598,0.68115,368,2.40897,0.14,0.06645,0.57317,5,2D1U,1.0,True,0.386,49,False,left,0.08307,0.4129,1.0461,0.6332,1.6635,2.305,0.6415,A,0.055
369,0.49841,1.2,1,0.21598,0.28243,0.44026,369,1.84411,-0.18,-0.09137,0.40703,5,1D2U,2.0,True,0.501,43,True,right,-0.2492,0.1892,0.6566,0.4674,1.1971,1.5049,0.3077,A,0.055
370,0.49841,0.1,1,0.44856,0.43195,0.83898,370,2.62493,-0.18,-0.09137,0.40703,5,1D2U,2.0,True,0.282,43,True,right,0.08307,0.4238,0.8905,0.4667,1.6649,2.3063,0.6414,A,0.055
371,0.49841,0.1,2,0.22428,0.29904,0.87221,371,2.32589,-0.14,-0.06645,0.43195,5,1D2U,1.0,True,0.491,44,True,left,-0.2492,1.4871,1.5454,0.0583,0.3268,0.6346,0.3078,A,0.055
372,0.49841,1.2,2,0.44856,0.39042,0.47348,372,2.24282,-0.14,-0.06645,0.43195,5,1D2U,2.0,False,0.438,44,True,right,0.08307,1.471,1.5296,0.0586,0.3792,1.0217,0.6425,A,0.055
373,0.49841,1.2,2,0.27412,0.35719,0.41534,373,2.11823,0.14,0.06645,0.57317,5,2D1U,2.0,True,0.391,49,False,right,-0.2492,1.0783,1.136,0.0577,0.3778,0.6867,0.309,A,0.055
374,0.49841,0.1,1,0.38211,0.42364,0.76422,374,2.47541,-0.18,-0.09137,0.40703,5,1D2U,1.0,False,0.505,45,True,left,0.08307,0.362,0.8285,0.4665,1.5287,2.1705,0.6419,A,0.055
375,0.49841,0.1,1,0.39042,0.39872,0.68115,375,2.51695,0.1,0.04984,0.54825,5,2D1U,1.0,True,0.208,49,False,left,-0.2492,0.3651,0.974,0.6089,1.7573,2.0649,0.3076,A,0.055
376,0.49841,1.2,1,0.38211,0.2492,0.83068,376,2.50865,0.1,0.04984,0.54825,5,2D1U,1.0,True,0.469,49,False,left,0.08307,0.3555,0.9645,0.609,1.7318,2.3723,0.6405,A,0.055
377,0.49841,1.2,1,0.34058,0.32396,0.88882,377,2.44219,-0.22,-0.10799,0.39042,5,1D2U,2.0,True,0.422,45,False,right,-0.2492,0.3172,0.7667,0.4495,1.7584,2.0669,0.3085,A,0.055
378,0.49841,0.1,1,0.39042,0.39872,0.78083,378,2.60001,0.06,0.03323,0.53163,5,2D1U,2.0,False,0.791,49,False,right,0.08307,0.3661,0.9578,0.5917,1.6741,2.3155,0.6413,A,0.055
379,0.49841,0.1,1,0.34058,0.21598,0.45687,379,1.90226,-0.22,-0.10799,0.39042,5,1D2U,2.0,True,0.45,45,False,right,-0.2492,0.3181,0.7679,0.4498,1.3264,1.6348,0.3084,A,0.055
380,0.49841,1.2,2,0.26582,0.31566,0.45687,380,2.08501,0.1,0.04984,0.54825,5,2D1U,2.0,True,0.426,50,True,right,0.08307,1.2714,1.3304,0.059,0.1965,0.8383,0.6419,A,0.055
381,0.49841,1.2,1,0.41534,0.40703,0.62301,381,2.35082,-0.18,-0.09137,0.40703,5,1D2U,2.0,True,0.273,46,True,right,-0.2492,0.3883,0.8553,0.467,1.5802,1.8887,0.3085,A,0.055
382,0.49841,0.1,2,0.31566,0.3738,0.75591,382,2.35081,-0.18,-0.09137,0.40703,5,1D2U,2.0,False,1.324,46,True,right,0.08307,1.6205,1.679,0.0585,0.2455,0.8869,0.6415,A,0.055
383,0.49841,0.1,1,0.23259,0.3655,0.57317,383,2.21792,0.1,0.04984,0.54825,5,2D1U,1.0,True,0.169,50,True,left,-0.2492,0.2105,0.8186,0.6081,1.4936,1.8018,0.3082,A,0.055
384,0.49841,1.2,1,0.33227,0.22428,0.8556,384,2.30098,-0.22,-0.10799,0.39042,5,1D2U,2.0,True,0.438,47,True,right,0.08307,0.3057,0.7564,0.4508,1.5481,2.1892,0.6412,A,0.055
385,0.49841,1.2,2,0.32396,0.31566,0.58978,385,2.11823,-0.22,-0.10799,0.39042,5,1D2U,1.0,True,1.025,47,True,left,-0.2492,1.3024,1.3607,0.0583,0.4275,0.736,0.3085,A,0.055
386,0.49841,0.1,2,0.34058,0.26582,0.84729,386,2.48373,0.06,0.03323,0.53163,5,2D1U,2.0,True,0.366,51,True,right,0.08307,1.7402,1.7988,0.0586,0.2741,0.9156,0.6416,A,0.055
387,0.49841,0.1,2,0.23259,0.42364,0.77253,387,2.4588,0.06,0.03323,0.53163,5,2D1U,1.0,False,0.333,51,True,left,-0.2492,1.3906,1.4489,0.0583,0.3327,0.6405,0.3078,A,0.055
388,0.49841,1.2,1,0.3738,0.44856,0.68115,388,2.40895,-0.18,-0.09137,0.40703,5,1D2U,2.0,True,0.517,48,True,right,0.08307,0.3476,0.8149,0.4673,1.4312,2.0734,0.6421,A,0.055
389,0.49841,1.2,2,0.29074,0.41534,0.83068,389,2.4422,-0.18,-0.09137,0.40703,5,1D2U,2.0,False,0.758,48,True,right,-0.2492,1.5039,1.5629,0.0591,0.3876,0.6962,0.3086,A,0.055
390,0.49841,0.1,1,0.3738,0.32396,0.71438,390,2.30097,-0.22,-0.10799,0.39042,5,1D2U,2.0,True,0.242,49,True,right,0.08307,0.3498,0.7995,0.4496,1.4497,2.0913,0.6416,A,0.055
391,0.49841,0.1,1,0.32396,0.3738,0.44026,391,2.18468,0.1,0.04984,0.54825,5,2D1U,2.0,False,0.524,52,True,right,-0.2492,0.2973,0.9057,0.6084,1.4483,1.7556,0.3074,A,0.055
392,0.49841,1.2,2,0.29074,0.42364,0.89713,392,2.68309,0.14,0.06645,0.57317,5,2D1U,2.0,True,0.155,52,False,right,0.08307,1.7422,1.8004,0.0582,0.2261,0.8672,0.6411,A,0.055
393,0.49841,1.2,2,0.21598,0.41534,0.83898,393,2.35913,-0.22,-0.10799,0.39042,5,1D2U,1.0,True,0.401,49,True,left,-0.2492,1.4431,1.5017,0.0587,0.3184,0.6268,0.3083,A,0.055
394,0.49841,0.1,2,0.34058,0.2409,0.47348,394,1.9604,-0.18,-0.09137,0.40703,5,1D2U,2.0,False,0.358,50,True,right,0.08307,1.3697,1.4281,0.0584,0.2787,0.9205,0.6417,A,0.055
395,0.49841,0.1,1,0.33227,0.30735,0.70607,395,2.23452,-0.22,-0.10799,0.39042,5,1D2U,2.0,True,0.471,51,True,right,-0.2492,0.3086,0.7583,0.4498,1.5671,1.8748,0.3078,A,0.055
396,0.49841,1.2,1,0.32396,0.34888,0.66454,396,2.40896,0.14,0.06645,0.57317,5,2D1U,2.0,False,0.351,52,False,right,0.08307,0.2961,0.9298,0.6336,1.5304,2.172,0.6416,A,0.055
397,0.49841,1.2,2,0.32396,0.39042,0.44026,397,2.24283,0.18,0.09137,0.58978,5,2D1U,1.0,False,0.358,52,False,left,-0.2492,1.1449,1.2045,0.0596,0.4206,0.7284,0.3078,A,0.055
398,0.49841,0.1,1,0.40703,0.33227,0.8556,398,2.48373,-0.22,-0.10799,0.39042,5,1D2U,2.0,True,0.336,51,True,right,0.08307,0.3845,0.8346,0.4502,1.6257,2.2683,0.6425,A,0.055
399,0.49841,0.1,2,0.41534,0.44026,0.48179,399,2.44219,0.22,0.10799,0.60639,5,2D1U,2.0,True,0.364,52,False,right,-0.2492,1.2845,1.3418,0.0574,0.5168,0.8254,0.3087,A,0.055
400,0.49841,1.2,2,0.3738,0.38211,0.41534,400,2.07669,-0.18,-0.09137,0.40703,5,1D2U,1.0,True,1.468,52,True,left,0.08307,1.3396,1.3969,0.0574,0.3062,0.9488,0.6425,A,0.055
401,0.49841,1.2,2,0.21598,0.34888,0.77253,401,2.44219,0.22,0.10799,0.60639,5,2D1U,2.0,True,0.457,52,False,right,-0.2492,1.373,1.4315,0.0585,0.3149,0.6222,0.3073,A,0.055
402,0.49841,0.1,1,0.42364,0.27412,0.70607,402,2.49202,0.18,0.09137,0.58978,5,2D1U,1.0,True,0.456,53,True,left,0.08307,0.3958,1.0462,0.6504,1.6877,2.3298,0.6421,A,0.055
403,0.49841,0.1,2,0.25751,0.29074,0.69777,403,2.15146,-0.18,-0.09137,0.40703,5,1D2U,2.0,False,0.934,52,True,right,-0.2492,1.3379,1.3959,0.058,0.3543,0.6632,0.3088,A,0.055
404,0.49841,1.2,2,0.21598,0.23259,0.59809,404,1.93549,-0.22,-0.10799,0.39042,5,1D2U,1.0,True,0.41,53,True,left,0.08307,1.3646,1.4217,0.0571,0.1466,0.7886,0.6421,A,0.055
405,0.49841,1.2,2,0.19936,0.2409,0.44026,405,1.96871,0.18,0.09137,0.58978,5,2D1U,1.0,False,0.384,53,True,left,-0.2492,1.0292,1.0864,0.0572,0.3031,0.6123,0.3092,A,0.055
406,0.49841,0.1,1,0.34058,0.28243,0.47348,406,2.20129,0.22,0.10799,0.60639,5,2D1U,1.0,True,0.425,54,True,left,0.08307,0.3137,0.9813,0.6676,1.3884,2.0305,0.6421,A,0.055
407,0.49841,0.1,2,0.20767,0.34058,0.88052,407,2.3176,-0.22,-0.10799,0.39042,5,1D2U,1.0,True,0.275,53,True,left,-0.2492,1.477,1.5355,0.0585,0.3104,0.6189,0.3086,A,0.055
408,0.49841,1.2,1,0.30735,0.44026,0.80575,408,2.65816,0.22,0.10799,0.60639,5,2D1U,2.0,False,0.526,54,True,right,0.08307,0.2843,0.9512,0.6669,1.6936,2.3346,0.6411,A,0.055
409,0.49841,1.2,2,0.25751,0.25751,0.63962,409,2.28436,0.26,0.13291,0.63131,5,2D1U,1.0,False,0.437,54,False,left,-0.2492,1.2819,1.3399,0.0579,0.3566,0.6659,0.3093,A,0.055
410,0.49841,0.1,1,0.42364,0.20767,0.89713,410,2.67478,0.3,0.14952,0.64793,5,2D1U,1.0,True,0.414,54,False,left,0.08307,0.3951,1.1032,0.7081,1.9369,2.5786,0.6417,A,0.055
411,0.49841,0.1,2,0.25751,0.27412,0.63962,411,2.07669,-0.18,-0.09137,0.40703,5,1D2U,2.0,False,0.511,54,True,right,-0.2492,1.2827,1.3409,0.0582,0.3577,0.6659,0.3082,A,0.055
412,0.49841,1.2,2,0.44856,0.20767,0.83898,412,2.38404,-0.22,-0.10799,0.39042,5,1D2U,2.0,False,0.484,55,True,right,0.08307,1.8433,1.9013,0.0581,0.3844,1.0263,0.6419,A,0.055
413,0.49841,1.2,2,0.44026,0.30735,0.53994,413,2.15976,-0.26,-0.13291,0.3738,5,1D2U,2.0,False,1.701,55,False,right,-0.2492,1.3655,1.4249,0.0594,0.5408,0.8491,0.3083,A,0.055
414,0.49841,0.1,1,0.3655,0.27412,0.63131,414,2.11822,-0.3,-0.14952,0.34888,5,1D2U,2.0,True,0.225,55,False,right,0.08307,0.3431,0.751,0.4079,1.3173,1.9598,0.6425,A,0.055
415,0.49841,0.1,1,0.35719,0.20767,0.4901,415,2.2013,0.3,0.14952,0.64793,5,2D1U,2.0,False,0.871,54,False,right,-0.2492,0.3325,1.0408,0.7083,1.633,1.9413,0.3083,A,0.055
416,0.49841,1.2,2,0.29904,0.35719,0.40703,416,2.23452,0.34,0.16614,0.67285,5,2D1U,2.0,True,0.556,54,False,right,0.08307,1.2559,1.3144,0.0585,0.231,0.8726,0.6417,A,0.055
417,0.49841,1.2,2,0.44026,0.26582,0.59809,417,2.15146,-0.3,-0.14952,0.34888,5,1D2U,2.0,False,0.962,55,False,right,-0.2492,1.4231,1.4811,0.0579,0.5394,0.848,0.3086,A,0.055
418,0.49841,0.1,2,0.43195,0.20767,0.82237,418,2.63325,0.34,0.16614,0.67285,5,2D1U,2.0,True,0.808,54,False,right,0.08307,1.8103,1.8691,0.0587,0.3686,1.011,0.6424,A,0.055
419,0.49841,0.1,2,0.41534,0.21598,0.71438,419,2.17638,-0.34,-0.16614,0.33227,5,1D2U,1.0,True,0.461,55,False,left,-0.2492,1.5124,1.5709,0.0586,0.5122,0.8207,0.3086,A,0.055
420,0.49841,1.2,1,0.42364,0.26582,0.49841,420,2.33421,0.3,0.14952,0.64793,5,2D1U,2.0,False,0.497,55,True,right,0.08307,0.3974,1.1068,0.7094,1.5392,2.181,0.6418,A,0.055
421,0.49841,1.2,1,0.41534,0.39042,0.68115,421,2.65817,0.34,0.16614,0.67285,5,2D1U,2.0,False,1.273,56,True,right,-0.2492,0.3891,1.1224,0.7333,1.9064,2.2142,0.3078,A,0.055
422,0.49841,0.1,1,0.34888,0.34058,0.78083,422,2.30097,-0.34,-0.16614,0.33227,5,1D2U,2.0,True,0.259,55,False,right,0.08307,0.3263,0.7183,0.392,1.4353,2.0762,0.6409,A,0.055
423,0.49841,0.1,2,0.19936,0.34058,0.66454,423,2.39235,0.38,0.19106,0.68946,5,2D1U,2.0,True,0.397,56,False,right,-0.2492,1.2451,1.3034,0.0582,0.2946,0.6035,0.3089,A,0.055
424,0.49841,1.2,1,0.44856,0.38211,0.89713,424,2.91567,0.38,0.19106,0.68946,5,2D1U,1.0,True,0.406,56,False,left,0.08307,0.4242,1.1746,0.7504,2.007,2.6496,0.6425,A,0.055
425,0.49841,1.2,2,0.26582,0.28243,0.81406,425,2.2096,-0.3,-0.14952,0.34888,5,1D2U,2.0,False,0.559,56,True,right,-0.2492,1.4657,1.5235,0.0578,0.365,0.6736,0.3086,A,0.055
426,0.49841,0.1,1,0.44026,0.31566,0.62301,426,2.55019,0.34,0.16614,0.67285,5,2D1U,1.0,True,0.634,57,True,left,0.08307,0.4174,1.1508,0.7334,1.7096,2.3508,0.6412,A,0.055
427,0.49841,0.1,1,0.23259,0.30735,0.53163,427,2.24283,0.34,0.16614,0.67285,5,2D1U,1.0,True,0.267,57,True,left,-0.2492,0.2058,0.9395,0.7336,1.5724,1.8805,0.3081,A,0.055
428,0.49841,1.2,2,0.23259,0.35719,0.8639,428,2.28436,-0.34,-0.16614,0.33227,5,1D2U,2.0,False,0.389,57,True,right,0.08307,1.6462,1.7051,0.0589,0.1624,0.8039,0.6416,A,0.055
429,0.49841,1.2,1,0.34058,0.34888,0.73099,429,2.22621,-0.38,-0.19106,0.30735,5,1D2U,1.0,False,0.456,57,False,left,-0.2492,0.3182,0.6854,0.3671,1.5183,1.8263,0.308,A,0.055
430,0.49841,0.1,1,0.31566,0.22428,0.58978,430,2.27606,0.3,0.14952,0.64793,5,2D1U,1.0,True,0.343,57,False,left,0.08307,0.2923,1.001,0.7087,1.5268,2.1678,0.6411,A,0.055
431,0.49841,0.1,2,0.29074,0.32396,0.53163,431,1.93548,-0.42,-0.20767,0.29074,5,1D2U,1.0,True,0.601,57,False,left,-0.2492,1.2067,1.2649,0.0582,0.3896,0.6995,0.3099,A,0.055
432,0.49841,1.2,2,0.26582,0.35719,0.56486,432,1.97702,-0.42,-0.20767,0.29074,5,1D2U,2.0,False,0.425,57,False,right,0.08307,1.3851,1.4434,0.0583,0.2019,0.8444,0.6424,A,0.055
433,0.49841,1.2,2,0.30735,0.42364,0.82237,433,2.6997,0.3,0.14952,0.64793,5,2D1U,2.0,True,0.32,57,False,right,-0.2492,1.5122,1.5704,0.0582,0.4036,0.7119,0.3083,A,0.055
434,0.49841,0.1,1,0.25751,0.21598,0.68946,434,1.93548,-0.46,-0.23259,0.27412,5,1D2U,2.0,True,0.568,57,False,right,0.08307,0.2292,0.5626,0.3335,1.1873,1.8291,0.6418,A,0.055
435,0.49841,0.1,2,0.26582,0.20767,0.47348,435,1.7195,-0.46,-0.23259,0.27412,5,1D2U,2.0,False,0.854,57,False,right,-0.2492,1.1215,1.1797,0.0582,0.3633,0.6714,0.3082,A,0.055
436,0.49841,1.2,1,0.39042,0.30735,0.51502,436,2.34251,0.26,0.13291,0.63131,5,2D1U,1.0,True,0.425,57,False,left,0.08307,0.3696,1.0616,0.692,1.5118,2.1534,0.6416,A,0.055
437,0.49841,1.2,1,0.30735,0.40703,0.57317,437,2.41727,0.26,0.13291,0.63131,5,2D1U,2.0,False,0.36,57,False,right,-0.2492,0.2821,0.9737,0.6916,1.6485,1.9573,0.3088,A,0.055
438,0.49841,0.1,1,0.32396,0.27412,0.45687,438,2.20129,0.3,0.14952,0.64793,5,2D1U,1.0,True,1.15,58,True,left,0.08307,0.2977,1.0064,0.7086,1.3976,2.0395,0.6418,A,0.055
439,0.49841,0.1,2,0.42364,0.34058,0.64793,439,2.15976,-0.5,-0.2492,0.2492,5,1D2U,1.0,True,0.825,57,False,left,-0.2492,1.4592,1.5174,0.0582,0.5258,0.8338,0.3081,A,0.055
440,0.49841,1.2,2,0.30735,0.39042,0.41534,440,1.86072,-0.5,-0.2492,0.2492,5,1D2U,1.0,True,0.617,57,False,left,0.08307,1.2702,1.3296,0.0595,0.2366,0.8787,0.6421,A,0.055
441,0.49841,1.2,2,0.42364,0.25751,0.66454,441,2.49203,0.3,0.14952,0.64793,5,2D1U,1.0,False,0.991,58,True,left,-0.2492,1.4857,1.5441,0.0584,0.5274,0.836,0.3085,A,0.055
442,0.49841,0.1,2,0.35719,0.40703,0.64793,442,2.18468,-0.46,-0.23259,0.27412,5,1D2U,1.0,True,0.726,58,True,left,0.08307,1.5573,1.6158,0.0585,0.2906,0.9321,0.6415,A,0.055
443,0.49841,0.1,1,0.34888,0.41534,0.77253,443,2.30928,-0.46,-0.23259,0.27412,5,1D2U,2.0,True,0.42,58,True,right,-0.2492,0.3216,0.6543,0.3327,1.5292,1.8381,0.3089,A,0.055
444,0.49841,1.2,2,0.39872,0.33227,0.60639,444,2.50864,0.34,0.16614,0.67285,5,2D1U,2.0,True,0.449,58,False,right,0.08307,1.5596,1.618,0.0584,0.3347,0.9764,0.6417,A,0.055
445,0.49841,1.2,2,0.34058,0.38211,0.79745,445,2.30929,-0.42,-0.20767,0.29074,5,1D2U,2.0,False,1.485,58,False,right,-0.2492,1.522,1.5802,0.0582,0.4388,0.7472,0.3084,A,0.055
446,0.49841,0.1,1,0.26582,0.33227,0.88052,446,2.25114,-0.46,-0.23259,0.27412,5,1D2U,2.0,True,0.331,59,True,right,0.08307,0.238,0.5712,0.3332,1.388,2.0297,0.6417,A,0.055
447,0.49841,0.1,2,0.34058,0.35719,0.75591,447,2.62494,0.34,0.16614,0.67285,5,2D1U,2.0,True,0.848,58,False,right,-0.2492,1.4783,1.5365,0.0582,0.4368,0.7449,0.3081,A,0.055
448,0.49841,1.2,1,0.33227,0.39042,0.72269,448,2.21791,-0.46,-0.23259,0.27412,5,1D2U,1.0,False,1.242,59,True,left,0.08307,0.3107,0.6438,0.3331,1.302,1.9439,0.6418,A,0.055
449,0.49841,1.2,1,0.21598,0.23259,0.79745,449,2.39236,0.3,0.14952,0.64793,5,2D1U,1.0,True,0.348,59,True,left,-0.2492,0.1885,0.8971,0.7086,1.7971,2.1052,0.3081,A,0.055
450,0.49841,0.1,1,0.23259,0.39042,0.74761,450,2.11823,-0.5,-0.2492,0.2492,5,1D2U,2.0,True,0.292,59,False,right,0.08307,0.2079,0.5164,0.3086,1.1997,1.8415,0.6419,A,0.055
451,0.49841,0.1,1,0.2492,0.41534,0.55655,451,2.36743,0.3,0.14952,0.64793,5,2D1U,2.0,False,0.466,59,True,right,-0.2492,0.2205,0.9286,0.7081,1.5869,1.8953,0.3084,A,0.055
452,0.49841,1.2,1,0.23259,0.29904,0.53163,452,1.81087,-0.5,-0.2492,0.2492,5,1D2U,2.0,True,0.567,59,False,right,0.08307,0.2028,0.511,0.3082,0.9781,1.6194,0.6413,A,0.055
453,0.49841,1.2,1,0.31566,0.32396,0.81406,453,2.62494,0.34,0.16614,0.67285,5,2D1U,2.0,False,0.779,60,True,right,-0.2492,0.2868,1.0198,0.7331,1.9365,2.2454,0.309,A,0.055
454,0.49841,0.1,2,0.22428,0.38211,0.7393,454,2.53356,0.38,0.19106,0.68946,5,2D1U,2.0,True,0.197,60,False,right,0.08307,1.5147,1.5731,0.0584,0.1563,0.7978,0.6415,A,0.055
455,0.49841,0.1,1,0.22428,0.25751,0.8556,455,2.52526,0.38,0.19106,0.68946,5,2D1U,1.0,True,0.25,60,False,left,-0.2492,0.202,0.9521,0.7501,1.9101,2.2186,0.3085,A,0.055
456,0.49841,1.2,1,0.27412,0.39872,0.41534,456,2.25944,0.34,0.16614,0.67285,5,2D1U,1.0,True,0.351,61,True,left,0.08307,0.2508,0.9846,0.7338,1.3343,1.976,0.6417,A,0.055
457,0.49841,1.2,1,0.33227,0.39872,0.82237,457,2.32589,-0.46,-0.23259,0.27412,5,1D2U,2.0,True,0.176,60,True,right,-0.2492,0.3061,0.6393,0.3331,1.5643,1.8726,0.3083,A,0.055
458,0.49841,0.1,2,0.44856,0.2409,0.88052,458,2.34251,-0.46,-0.23259,0.27412,5,1D2U,1.0,True,0.579,60,True,left,0.08307,1.8844,1.9434,0.059,0.384,1.0264,0.6424,A,0.055
459,0.49841,0.1,1,0.2492,0.38211,0.41534,459,1.8358,-0.42,-0.20767,0.29074,5,1D2U,2.0,True,0.3,60,False,right,-0.2492,0.2274,0.5769,0.3495,1.0933,1.4022,0.3089,A,0.055
460,0.49841,1.2,1,0.33227,0.44856,0.57317,460,2.52526,0.34,0.16614,0.67285,5,2D1U,2.0,False,0.35,61,True,right,0.08307,0.3047,1.0382,0.7335,1.5465,2.1877,0.6413,A,0.055
461,0.49841,1.2,1,0.27412,0.2492,0.80575,461,2.51694,0.38,0.19106,0.68946,5,2D1U,1.0,True,0.821,62,True,left,-0.2492,0.2521,1.002,0.75,1.9107,2.2189,0.3082,A,0.055
462,0.49841,0.1,2,0.34058,0.27412,0.55655,462,1.9604,-0.42,-0.20767,0.29074,5,1D2U,1.0,True,0.683,60,False,left,0.08307,1.4523,1.5107,0.0584,0.2775,0.9192,0.6417,A,0.055
463,0.49841,0.1,2,0.20767,0.38211,0.88052,463,2.27606,-0.38,-0.19106,0.30735,5,1D2U,1.0,True,0.453,60,False,left,-0.2492,1.4714,1.5297,0.0583,0.3046,0.613,0.3085,A,0.055
464,0.49841,1.2,2,0.29904,0.26582,0.82237,464,2.19299,-0.38,-0.19106,0.30735,5,1D2U,1.0,True,0.492,60,False,left,0.08307,1.6718,1.7301,0.0584,0.2305,0.8722,0.6417,A,0.055
465,0.49841,1.2,1,0.23259,0.22428,0.57317,465,2.21791,0.38,0.19106,0.68946,5,2D1U,1.0,True,0.507,62,True,left,-0.2492,0.2061,0.9559,0.7498,1.6307,1.9394,0.3087,A,0.055
466,0.49841,0.1,1,0.2409,0.34058,0.71438,466,2.46712,0.34,0.16614,0.67285,5,2D1U,1.0,True,1.053,63,True,left,0.08307,0.2134,0.9466,0.7332,1.5973,2.2381,0.6408,A,0.055
467,0.49841,0.1,1,0.44856,0.27412,0.46518,467,2.01854,-0.34,-0.16614,0.33227,5,1D2U,1.0,False,0.517,60,False,left,-0.2492,0.4269,0.8186,0.3917,1.3853,1.693,0.3076,A,0.055
468,0.49841,1.2,1,0.30735,0.42364,0.79745,468,2.6997,0.34,0.16614,0.67285,5,2D1U,1.0,True,0.168,63,True,left,0.08307,0.282,1.0166,0.7346,1.7488,2.39,0.6412,A,0.055
469,0.49841,1.2,1,0.31566,0.39042,0.7393,469,2.25114,-0.38,-0.19106,0.30735,5,1D2U,2.0,True,0.351,61,True,right,-0.2492,0.2876,0.6549,0.3673,1.4966,1.8042,0.3076,A,0.055
470,0.49841,0.1,1,0.25751,0.29074,0.44856,470,2.14315,0.3,0.14952,0.64793,5,2D1U,2.0,False,1.083,63,False,right,0.08307,0.2279,0.9363,0.7084,1.3203,1.962,0.6417,A,0.055
471,0.49841,0.1,1,0.25751,0.25751,0.83898,471,2.52526,0.34,0.16614,0.67285,5,2D1U,1.0,True,0.533,64,True,left,-0.2492,0.232,0.9646,0.7326,1.9067,2.2166,0.3099,A,0.055
472,0.49841,1.2,2,0.44856,0.2409,0.4901,472,1.98532,-0.38,-0.19106,0.30735,5,1D2U,1.0,True,2.473,61,True,left,0.08307,1.4909,1.5503,0.0593,0.3818,1.0232,0.6414,A,0.055
473,0.49841,1.2,1,0.43195,0.23259,0.53994,473,2.37574,0.34,0.16614,0.67285,5,2D1U,2.0,False,0.332,64,True,right,-0.2492,0.4034,1.137,0.7336,1.7797,2.088,0.3083,A,0.055
474,0.49841,0.1,1,0.30735,0.23259,0.47348,474,1.8441,-0.34,-0.16614,0.33227,5,1D2U,2.0,True,0.388,62,True,right,0.08307,0.2786,0.6702,0.3917,1.0785,1.7206,0.6421,A,0.055
475,0.49841,0.1,1,0.41534,0.34058,0.51502,475,2.10162,-0.34,-0.16614,0.33227,5,1D2U,2.0,True,0.251,62,True,right,-0.2492,0.3886,0.7799,0.3912,1.397,1.7057,0.3087,A,0.055
476,0.49841,1.2,1,0.34888,0.39872,0.80575,476,2.74122,0.38,0.19106,0.68946,5,2D1U,1.0,True,0.55,64,False,left,0.08307,0.3214,1.0717,0.7502,1.8132,2.4553,0.6421,A,0.055
477,0.49841,1.2,1,0.28243,0.20767,0.78914,477,2.12653,-0.3,-0.14952,0.34888,5,1D2U,2.0,True,0.552,62,False,right,-0.2492,0.2599,0.6685,0.4086,1.5602,1.8696,0.3094,A,0.055
478,0.49841,0.1,1,0.21598,0.31566,0.65623,478,2.03516,-0.3,-0.14952,0.34888,5,1D2U,2.0,True,0.439,62,False,right,0.08307,0.1949,0.6031,0.4081,1.1956,1.8369,0.6412,A,0.055
479,0.49841,0.1,1,0.40703,0.26582,0.64793,479,2.50865,0.38,0.19106,0.68946,5,2D1U,2.0,False,0.445,64,False,right,-0.2492,0.3857,1.135,0.7493,1.8853,2.1939,0.3087,A,0.055
480,0.49841,1.2,1,0.31566,0.20767,0.46518,480,1.86072,-0.26,-0.13291,0.3738,5,1D2U,1.0,False,0.833,62,False,left,0.08307,0.294,0.7279,0.4339,1.1278,1.7698,0.642,A,0.055
481,0.49841,1.2,1,0.32396,0.29904,0.41534,481,2.24282,0.42,0.20767,0.70607,5,2D1U,2.0,False,0.646,64,False,right,-0.2492,0.2993,1.0657,0.7664,1.5825,1.8919,0.3094,A,0.055
482,0.49841,0.1,1,0.2409,0.20767,0.68946,482,2.36743,0.46,0.23259,0.73099,5,2D1U,1.0,True,0.414,64,False,left,0.08307,0.2188,1.0112,0.7925,1.6364,2.2772,0.6408,A,0.055
483,0.49841,0.1,2,0.28243,0.43195,0.58147,483,2.14314,-0.3,-0.14952,0.34888,5,1D2U,1.0,True,1.042,63,True,left,-0.2492,1.2489,1.307,0.0581,0.3827,0.6902,0.3075,A,0.055
484,0.49841,1.2,2,0.28243,0.38211,0.56486,484,2.4588,0.46,0.23259,0.73099,5,2D1U,2.0,True,0.367,64,False,right,0.08307,1.398,1.4566,0.0586,0.2146,0.8573,0.6427,A,0.055
485,0.49841,1.2,2,0.2409,0.31566,0.55655,485,1.9604,-0.3,-0.14952,0.34888,5,1D2U,2.0,False,0.807,63,True,right,-0.2492,1.182,1.2398,0.0578,0.3395,0.6479,0.3085,A,0.055
486,0.49841,0.1,1,0.39042,0.22428,0.44026,486,2.25944,0.42,0.20767,0.70607,5,2D1U,1.0,True,0.443,65,True,left,0.08307,0.369,1.1354,0.7664,1.5111,2.152,0.6409,A,0.055
487,0.49841,0.1,1,0.26582,0.25751,0.71438,487,2.06839,-0.34,-0.16614,0.33227,5,1D2U,2.0,True,0.32,63,False,right,-0.2492,0.2362,0.6282,0.392,1.4445,1.7534,0.309,A,0.055
488,0.49841,1.2,1,0.43195,0.44856,0.74761,488,2.4588,-0.34,-0.16614,0.33227,5,1D2U,1.0,False,0.467,63,False,left,0.08307,0.4094,0.8007,0.3912,1.4849,2.1258,0.6409,A,0.055
489,0.49841,1.2,1,0.42364,0.22428,0.45687,489,2.30927,0.42,0.20767,0.70607,5,2D1U,2.0,False,1.451,65,True,right,-0.2492,0.3962,1.163,0.7668,1.7221,2.0301,0.3081,A,0.055
490,0.49841,0.1,1,0.40703,0.34888,0.43195,490,1.99362,-0.38,-0.19106,0.30735,5,1D2U,1.0,False,1.381,63,False,left,0.08307,0.3778,0.7451,0.3674,1.1114,1.7536,0.6422,A,0.055
491,0.49841,0.1,1,0.29074,0.38211,0.84729,491,2.74954,0.46,0.23259,0.73099,5,2D1U,1.0,True,0.45,66,True,left,-0.2492,0.262,1.0538,0.7918,2.0032,2.3113,0.3081,A,0.055
492,0.49841,1.2,1,0.34888,0.41534,0.46518,492,2.01855,-0.42,-0.20767,0.29074,5,1D2U,1.0,False,0.441,63,False,left,0.08307,0.3217,0.6723,0.3506,1.0716,1.714,0.6424,A,0.055
493,0.49841,1.2,2,0.22428,0.22428,0.63962,493,1.86071,-0.46,-0.23259,0.27412,5,1D2U,1.0,True,0.456,63,False,left,-0.2492,1.2514,1.3102,0.0588,0.3262,0.6345,0.3083,A,0.055
494,0.49841,0.1,1,0.40703,0.3738,0.65623,494,2.66646,0.46,0.23259,0.73099,5,2D1U,1.0,True,0.164,66,True,left,0.08307,0.3809,1.1731,0.7922,1.7647,2.4058,0.6411,A,0.055
495,0.49841,0.1,1,0.26582,0.27412,0.78083,495,2.52525,0.42,0.20767,0.70607,5,2D1U,1.0,True,2.032,67,True,left,-0.2492,0.2367,1.0039,0.7671,1.8869,2.1954,0.3085,A,0.055
496,0.49841,1.2,1,0.30735,0.44026,0.42364,496,1.94378,-0.46,-0.23259,0.27412,5,1D2U,1.0,False,0.786,63,False,left,0.08307,0.2819,0.6161,0.3342,0.9734,1.6149,0.6415,A,0.055
497,0.49841,1.2,1,0.41534,0.42364,0.8639,497,2.45049,-0.5,-0.2492,0.2492,5,1D2U,1.0,False,0.615,63,False,left,-0.2492,0.3885,0.6974,0.3088,1.6639,1.9719,0.3079,A,0.055
498,0.49841,0.1,1,0.29904,0.40703,0.8639,498,2.77445,0.42,0.20767,0.70607,5,2D1U,1.0,True,0.386,67,True,left,0.08307,0.2732,1.0393,0.7661,1.839,2.4825,0.6435,A,0.055
499,0.49841,0.1,2,0.35719,0.35719,0.59809,499,2.04347,-0.54,-0.27412,0.23259,5,1D2U,1.0,True,0.481,63,False,left,-0.2492,1.3434,1.4018,0.0584,0.4603,0.7695,0.3091,A,0.055
500,0.49841,1.2,2,0.35719,0.25751,0.47348,500,2.27605,0.38,0.19106,0.68946,5,2D1U,2.0,True,1.051,67,False,right,0.08307,1.3814,1.4406,0.0592,0.2899,0.9317,0.6418,A,0.055
501,0.49841,1.2,1,0.42364,0.35719,0.70607,501,2.67477,0.38,0.19106,0.68946,5,2D1U,1.0,True,0.44,67,False,left,-0.2492,0.398,1.1484,0.7503,1.9572,2.2654,0.3083,A,0.055
502,0.49841,0.1,2,0.40703,0.41534,0.65623,502,2.2096,-0.54,-0.27412,0.23259,5,1D2U,1.0,True,0.567,63,False,left,0.08307,1.613,1.6705,0.0575,0.3373,0.9795,0.6422,A,0.055
503,0.49841,0.1,2,0.41534,0.39042,0.4901,503,2.46712,0.34,0.16614,0.67285,5,2D1U,2.0,True,0.355,67,False,right,-0.2492,1.2883,1.3471,0.0589,0.5141,0.8223,0.3083,A,0.055
504,0.49841,1.2,1,0.35719,0.43195,0.60639,504,2.56679,0.34,0.16614,0.67285,5,2D1U,1.0,True,0.316,67,False,left,0.08307,0.3368,1.0683,0.7315,1.6108,2.2515,0.6407,A,0.055
505,0.49841,1.2,1,0.34058,0.22428,0.76422,505,2.07669,-0.5,-0.2492,0.2492,5,1D2U,1.0,False,0.584,64,True,left,-0.2492,0.3122,0.621,0.3088,1.4866,1.795,0.3085,A,0.055
506,0.49841,0.1,2,0.3655,0.34058,0.8556,506,2.70802,0.3,0.14952,0.64793,5,2D1U,2.0,True,0.375,67,False,right,0.08307,1.772,1.8303,0.0583,0.2975,0.9386,0.641,A,0.055
507,0.49841,0.1,1,0.3738,0.44856,0.78083,507,2.33419,-0.54,-0.27412,0.23259,5,1D2U,2.0,True,0.657,65,True,right,-0.2492,0.3453,0.6369,0.2916,1.5202,1.8292,0.309,A,0.055
508,0.49841,1.2,1,0.39042,0.42364,0.8639,508,2.40896,-0.54,-0.27412,0.23259,5,1D2U,1.0,False,0.291,65,True,left,0.08307,0.3701,0.6617,0.2916,1.462,2.1025,0.6406,A,0.055
509,0.49841,1.2,2,0.35719,0.3738,0.82237,509,2.25944,-0.58,-0.29074,0.20767,5,1D2U,2.0,False,0.903,65,False,right,-0.2492,1.5652,1.6237,0.0585,0.4571,0.7651,0.308,A,0.055
510,0.49841,0.1,2,0.20767,0.3655,0.83898,510,2.55849,0.3,0.14952,0.64793,5,2D1U,2.0,True,0.451,67,False,right,0.08307,1.5994,1.6574,0.058,0.1414,0.7834,0.642,A,0.055
511,0.49841,0.1,1,0.34058,0.34888,0.40703,511,2.22621,0.26,0.13291,0.63131,5,2D1U,2.0,False,0.317,67,False,right,-0.2492,0.3184,1.0111,0.6927,1.5196,1.8272,0.3076,A,0.055
512,0.49841,1.2,1,0.31566,0.44026,0.58978,512,2.03517,-0.62,-0.30735,0.19106,5,1D2U,2.0,True,0.458,65,False,right,0.08307,0.2944,0.5453,0.2509,1.0702,1.711,0.6408,A,0.055
513,0.49841,1.2,1,0.32396,0.3738,0.62301,513,2.46711,0.3,0.14952,0.64793,5,2D1U,1.0,True,0.543,68,True,left,-0.2492,0.2987,1.0066,0.7079,1.732,2.0403,0.3083,A,0.055
514,0.49841,0.1,2,0.2409,0.2492,0.52333,514,1.7029,-0.62,-0.30735,0.19106,5,1D2U,1.0,True,0.781,65,False,left,0.08307,1.3143,1.3726,0.0583,0.1726,0.8149,0.6423,A,0.055
515,0.49841,0.1,2,0.39872,0.40703,0.64793,515,2.15976,-0.58,-0.29074,0.20767,5,1D2U,1.0,True,0.549,66,True,left,-0.2492,1.4342,1.4923,0.058,0.5011,0.8091,0.308,A,0.055
516,0.49841,1.2,2,0.34888,0.42364,0.39872,516,2.31758,0.3,0.14952,0.64793,5,2D1U,2.0,True,0.342,68,True,right,0.08307,1.2989,1.3572,0.0583,0.2823,0.9247,0.6424,A,0.055
517,0.49841,1.2,1,0.29904,0.21598,0.60639,517,2.25113,0.26,0.13291,0.63131,5,2D1U,2.0,False,0.375,69,True,right,-0.2492,0.2731,0.9651,0.692,1.6734,1.9816,0.3081,A,0.055
518,0.49841,0.1,2,0.30735,0.25751,0.71438,518,2.42558,0.3,0.14952,0.64793,5,2D1U,1.0,False,0.412,70,True,left,0.08307,1.5768,1.6344,0.0576,0.2425,0.8849,0.6424,A,0.055
519,0.49841,0.1,1,0.34058,0.41534,0.67285,519,2.13485,-0.58,-0.29074,0.20767,5,1D2U,1.0,False,0.285,66,True,left,-0.2492,0.3179,0.5841,0.2661,1.3603,1.6685,0.3082,A,0.055
520,0.49841,1.2,1,0.2409,0.40703,0.64793,520,1.98533,-0.62,-0.30735,0.19106,5,1D2U,1.0,False,0.296,67,True,left,0.08307,0.219,0.469,0.25,1.0526,1.6955,0.6429,A,0.055
521,0.49841,1.2,2,0.2409,0.44856,0.41534,521,1.76935,-0.66,-0.33227,0.16614,5,1D2U,2.0,False,2.329,67,False,right,-0.2492,1.0367,1.0953,0.0586,0.3372,0.645,0.3078,A,0.055
522,0.49841,0.1,2,0.29074,0.43195,0.76422,522,2.65817,0.34,0.16614,0.67285,5,2D1U,2.0,True,0.367,70,False,right,0.08307,1.6057,1.6644,0.0587,0.2222,0.8645,0.6423,A,0.055
523,0.49841,0.1,2,0.3738,0.40703,0.62301,523,2.5751,0.34,0.16614,0.67285,5,2D1U,2.0,True,0.396,70,False,right,-0.2492,1.3824,1.4408,0.0584,0.4738,0.7817,0.3079,A,0.055
524,0.49841,1.2,2,0.25751,0.44856,0.58147,524,1.93547,-0.7,-0.34888,0.14952,5,1D2U,1.0,True,0.431,67,False,left,0.08307,1.3944,1.4533,0.0589,0.1948,0.8361,0.6414,A,0.055
525,0.49841,1.2,1,0.39872,0.23259,0.78914,525,2.06838,-0.7,-0.34888,0.14952,5,1D2U,1.0,False,0.55,67,False,left,-0.2492,0.3748,0.5826,0.2078,1.4736,1.7822,0.3086,A,0.055
526,0.49841,0.1,1,0.3738,0.39872,0.60639,526,2.52525,0.3,0.14952,0.64793,5,2D1U,2.0,False,0.302,71,True,right,0.08307,0.3479,1.0562,0.7083,1.598,2.2407,0.6428,A,0.055
527,0.49841,0.1,2,0.29074,0.43195,0.88052,527,2.77447,0.34,0.16614,0.67285,5,2D1U,2.0,True,0.487,72,True,right,-0.2492,1.5558,1.6131,0.0573,0.3887,0.6967,0.308,A,0.055
528,0.49841,1.2,2,0.35719,0.30735,0.83898,528,2.13484,-0.74,-0.3738,0.13291,5,1D2U,1.0,True,0.924,67,False,left,0.08307,1.746,1.8047,0.0587,0.2881,0.9299,0.6418,A,0.055
529,0.49841,1.2,2,0.32396,0.39872,0.70607,529,2.06007,-0.74,-0.3738,0.13291,5,1D2U,1.0,True,0.584,67,False,left,-0.2492,1.4195,1.4776,0.0581,0.4277,0.7366,0.3089,A,0.055
530,0.49841,0.1,2,0.44856,0.32396,0.71438,530,2.13483,-0.7,-0.34888,0.14952,5,1D2U,1.0,True,0.577,68,True,left,0.08307,1.7183,1.7763,0.058,0.3849,1.0271,0.6422,A,0.055
531,0.49841,0.1,1,0.38211,0.23259,0.68946,531,2.47542,0.34,0.16614,0.67285,5,2D1U,2.0,False,1.656,72,True,right,-0.2492,0.3537,1.0871,0.7335,1.8787,2.1872,0.3085,A,0.055
532,0.49841,1.2,1,0.21598,0.23259,0.43195,532,1.52845,-0.7,-0.34888,0.14952,5,1D2U,1.0,False,0.578,68,True,left,0.08307,0.1892,0.3981,0.209,0.7645,1.4062,0.6417,A,0.055
533,0.49841,1.2,2,0.30735,0.28243,0.58147,533,2.35912,0.38,0.19106,0.68946,5,2D1U,1.0,False,2.133,72,False,left,-0.2492,1.2763,1.335,0.0587,0.4098,0.7176,0.3078,A,0.055
534,0.49841,0.1,2,0.33227,0.19936,0.41534,534,1.57829,-0.74,-0.3738,0.13291,5,1D2U,1.0,True,0.625,69,True,left,0.08307,1.302,1.3597,0.0576,0.2676,0.9095,0.6419,A,0.055
535,0.49841,0.1,2,0.2409,0.28243,0.80575,535,1.9604,-0.74,-0.3738,0.13291,5,1D2U,1.0,True,0.784,69,True,left,-0.2492,1.4302,1.4889,0.0587,0.3383,0.6472,0.3089,A,0.055
536,0.49841,1.2,1,0.30735,0.32396,0.76422,536,2.04346,-0.7,-0.34888,0.14952,5,1D2U,2.0,True,2.468,70,True,right,0.08307,0.2846,0.4932,0.2086,1.1927,1.8351,0.6424,A,0.055
537,0.49841,1.2,1,0.27412,0.20767,0.45687,537,1.58659,-0.7,-0.34888,0.14952,5,1D2U,2.0,True,0.844,70,True,right,-0.2492,0.2458,0.4547,0.2089,1.0135,1.3211,0.3076,A,0.055
538,0.49841,0.1,1,0.43195,0.29074,0.47348,538,2.40065,0.42,0.20767,0.70607,5,2D1U,1.0,True,0.305,72,False,left,0.08307,0.4055,1.1724,0.7669,1.5801,2.2223,0.6422,A,0.055
539,0.49841,0.1,2,0.21598,0.30735,0.62301,539,2.35082,0.42,0.20767,0.70607,5,2D1U,2.0,True,0.451,72,False,right,-0.2492,1.2299,1.2872,0.0574,0.3203,0.6291,0.3088,A,0.055
540,0.49841,1.2,1,0.3655,0.44026,0.7393,540,2.73293,0.38,0.19106,0.68946,5,2D1U,2.0,False,0.316,73,True,right,0.08307,0.3385,1.0885,0.7499,1.7629,2.4049,0.642,A,0.055
541,0.49841,1.2,1,0.32396,0.33227,0.46518,541,1.78596,-0.66,-0.33227,0.16614,5,1D2U,2.0,True,0.287,70,False,right,-0.2492,0.3012,0.5264,0.2251,1.0936,1.4009,0.3073,A,0.055
542,0.49841,0.1,2,0.29074,0.31566,0.50671,542,1.77766,-0.66,-0.33227,0.16614,5,1D2U,1.0,True,0.428,70,False,left,0.08307,1.3516,1.4094,0.0578,0.2259,0.8677,0.6418,A,0.055
543,0.49841,0.1,1,0.39872,0.30735,0.68946,543,2.60001,0.42,0.20767,0.70607,5,2D1U,2.0,False,0.426,74,True,right,-0.2492,0.3709,1.1374,0.7665,1.9289,2.2375,0.3086,A,0.055
544,0.49841,1.2,2,0.27412,0.3738,0.57317,544,2.45049,0.46,0.23259,0.73099,5,2D1U,2.0,True,0.359,74,False,right,0.08307,1.4016,1.46,0.0584,0.2102,0.8518,0.6415,A,0.055
545,0.49841,1.2,1,0.34888,0.41534,0.8639,545,2.31759,-0.62,-0.30735,0.19106,5,1D2U,2.0,True,0.336,70,False,right,-0.2492,0.3237,0.5732,0.2495,1.5397,1.8482,0.3084,A,0.055
546,0.49841,0.1,2,0.29074,0.25751,0.6147,546,2.39235,0.46,0.23259,0.73099,5,2D1U,2.0,True,0.307,74,False,right,0.08307,1.462,1.5194,0.0574,0.2282,0.8696,0.6414,A,0.055
547,0.49841,0.1,1,0.35719,0.27412,0.63131,547,1.95209,-0.62,-0.30735,0.19106,5,1D2U,2.0,True,0.408,70,False,right,-0.2492,0.33,0.5796,0.2496,1.3124,1.6209,0.3085,A,0.055
548,0.49841,1.2,2,0.33227,0.41534,0.53163,548,2.48372,0.42,0.20767,0.70607,5,2D1U,2.0,True,0.28,75,True,right,0.08307,1.4134,1.4721,0.0587,0.2625,0.9049,0.6424,A,0.055
549,0.49841,1.2,1,0.35719,0.20767,0.57317,549,2.34251,0.42,0.20767,0.70607,5,2D1U,2.0,False,0.348,75,True,right,-0.2492,0.335,1.1018,0.7668,1.7761,2.0857,0.3096,A,0.055
550,0.49841,0.1,2,0.29904,0.39872,0.52333,550,1.92717,-0.58,-0.29074,0.20767,5,1D2U,1.0,True,0.51,70,False,left,0.08307,1.3729,1.4311,0.0582,0.2315,0.8726,0.6411,A,0.055
551,0.49841,0.1,2,0.32396,0.40703,0.88052,551,2.31759,-0.58,-0.29074,0.20767,5,1D2U,1.0,True,0.441,70,False,left,-0.2492,1.5905,1.6483,0.0578,0.4234,0.7315,0.3081,A,0.055
552,0.49841,1.2,2,0.3655,0.23259,0.54825,552,1.87734,-0.54,-0.27412,0.23259,5,1D2U,1.0,True,0.458,70,False,left,0.08307,1.4642,1.5215,0.0573,0.2966,0.939,0.6424,A,0.055
553,0.49841,1.2,2,0.35719,0.25751,0.54825,553,2.39235,0.46,0.23259,0.73099,5,2D1U,2.0,True,0.406,76,True,right,-0.2492,1.2931,1.3514,0.0583,0.4599,0.7683,0.3083,A,0.055
554,0.49841,0.1,1,0.34058,0.22428,0.7393,554,2.03516,-0.54,-0.27412,0.23259,5,1D2U,2.0,True,0.367,70,False,right,0.08307,0.3144,0.6063,0.2918,1.2815,1.9235,0.6419,A,0.055
555,0.49841,0.1,2,0.34888,0.34888,0.81406,555,2.74122,0.46,0.23259,0.73099,5,2D1U,2.0,True,0.362,76,True,right,-0.2492,1.5484,1.6069,0.0585,0.4484,0.7565,0.3081,A,0.055
556,0.49841,1.2,1,0.34888,0.43195,0.42364,556,2.40895,0.42,0.20767,0.70607,5,2D1U,2.0,False,0.307,77,True,right,0.08307,0.323,1.0889,0.7659,1.4462,2.0891,0.6429,A,0.055
557,0.49841,1.2,2,0.34888,0.29074,0.57317,557,2.44219,0.46,0.23259,0.73099,5,2D1U,2.0,True,0.365,78,True,right,-0.2492,1.3075,1.3657,0.0582,0.4489,0.7571,0.3082,A,0.055
558,0.49841,0.1,1,0.44856,0.3738,0.76422,558,2.33419,-0.5,-0.2492,0.2492,5,1D2U,2.0,True,0.527,70,False,right,0.08307,0.4277,0.7361,0.3085,1.436,2.0777,0.6417,A,0.055
559,0.49841,0.1,2,0.29074,0.2492,0.43195,559,2.20129,0.46,0.23259,0.73099,5,2D1U,2.0,True,0.41,78,True,right,-0.2492,1.1037,1.1618,0.0581,0.3865,0.6947,0.3081,A,0.055
560,0.49841,1.2,1,0.27412,0.27412,0.8556,560,2.60832,0.42,0.20767,0.70607,5,2D1U,2.0,False,0.484,79,True,right,0.08307,0.2517,1.0187,0.767,1.8105,2.452,0.6414,A,0.055
561,0.49841,1.2,1,0.27412,0.2409,0.60639,561,2.35081,0.46,0.23259,0.73099,5,2D1U,2.0,False,0.351,80,True,right,-0.2492,0.2492,1.0406,0.7914,1.7488,2.0578,0.309,A,0.055
562,0.49841,0.1,2,0.41534,0.39042,0.78914,562,2.34251,-0.5,-0.2492,0.2492,5,1D2U,1.0,True,1.978,70,False,left,0.08307,1.756,1.8146,0.0586,0.3479,0.9886,0.6407,A,0.055
563,0.49841,0.1,2,0.38211,0.31566,0.77253,563,2.71632,0.5,0.2492,0.74761,5,2D1U,2.0,True,0.45,80,False,right,-0.2492,1.5444,1.6036,0.0592,0.486,0.7944,0.3085,A,0.055
564,0.49841,1.2,1,0.41534,0.2492,0.40703,564,1.8441,-0.46,-0.23259,0.27412,5,1D2U,2.0,True,0.451,70,False,right,0.08307,0.3891,0.7231,0.334,1.0643,1.7061,0.6418,A,0.055
565,0.49841,1.2,1,0.2492,0.29904,0.78914,565,2.5834,0.5,0.2492,0.74761,5,2D1U,2.0,False,0.758,80,False,right,-0.2492,0.2218,1.0298,0.808,1.9214,2.23,0.3086,A,0.055
566,0.49841,0.1,2,0.34058,0.19936,0.75591,566,2.56679,0.54,0.27412,0.77253,5,2D1U,2.0,True,0.496,80,False,right,0.08307,1.6447,1.7037,0.0589,0.2699,0.9119,0.642,A,0.055
567,0.49841,0.1,1,0.32396,0.2492,0.56486,567,1.91055,-0.46,-0.23259,0.27412,5,1D2U,2.0,True,0.505,70,False,right,-0.2492,0.2984,0.6311,0.3327,1.2976,1.6061,0.3084,A,0.055
568,0.49841,1.2,1,0.42364,0.22428,0.40703,568,1.8441,-0.42,-0.20767,0.29074,5,1D2U,2.0,True,0.505,70,False,right,0.08307,0.4015,0.7513,0.3498,1.0936,1.7345,0.6409,A,0.055
569,0.49841,1.2,2,0.39042,0.39872,0.51502,569,2.5751,0.54,0.27412,0.77253,5,2D1U,2.0,True,0.392,80,False,right,-0.2492,1.2934,1.3525,0.0591,0.4943,0.8029,0.3086,A,0.055
570,0.49841,0.1,2,0.25751,0.3655,0.62301,570,2.03517,-0.42,-0.20767,0.29074,5,1D2U,1.0,True,0.517,70,False,left,0.08307,1.4374,1.4947,0.0573,0.1942,0.8365,0.6423,A,0.055
571,0.49841,0.1,2,0.26582,0.22428,0.78083,571,2.07669,-0.38,-0.19106,0.30735,5,1D2U,2.0,False,1.081,70,False,right,-0.2492,1.4302,1.4888,0.0586,0.3628,0.6713,0.3085,A,0.055
572,0.49841,1.2,1,0.21598,0.33227,0.42364,572,2.21791,0.5,0.2492,0.74761,5,2D1U,2.0,False,0.626,81,True,right,0.08307,0.1898,0.9985,0.8087,1.3562,1.9979,0.6416,A,0.055
573,0.49841,1.2,1,0.20767,0.35719,0.76422,573,2.11823,-0.42,-0.20767,0.29074,5,1D2U,1.0,False,0.418,71,True,left,-0.2492,0.1835,0.5344,0.351,1.401,1.7091,0.3081,A,0.055
574,0.49841,0.1,1,0.22428,0.23259,0.88882,574,2.11822,-0.46,-0.23259,0.27412,5,1D2U,2.0,True,0.277,71,False,right,0.08307,0.1972,0.5317,0.3345,1.3569,1.9978,0.641,A,0.055
575,0.49841,0.1,2,0.31566,0.33227,0.66454,575,2.085,-0.46,-0.23259,0.27412,5,1D2U,1.0,True,0.422,71,False,left,-0.2492,1.3623,1.4205,0.0581,0.412,0.7208,0.3088,A,0.055
576,0.49841,1.2,1,0.39042,0.32396,0.53994,576,2.52526,0.54,0.27412,0.77253,5,2D1U,2.0,False,0.283,82,True,right,0.08307,0.3684,1.2036,0.8351,1.6772,2.3186,0.6414,A,0.055
577,0.49841,1.2,2,0.28243,0.31566,0.76422,577,2.15146,-0.42,-0.20767,0.29074,5,1D2U,1.0,True,0.358,72,True,left,-0.2492,1.4322,1.4907,0.0585,0.3827,0.6903,0.3076,A,0.055
578,0.49841,0.1,1,0.20767,0.29074,0.78914,578,2.5751,0.58,0.29074,0.78914,5,2D1U,1.0,True,0.701,82,False,left,0.08307,0.1782,1.0294,0.8512,1.7538,2.3953,0.6415,A,0.055
579,0.49841,0.1,2,0.26582,0.21598,0.49841,579,1.76936,-0.42,-0.20767,0.29074,5,1D2U,1.0,True,0.451,72,True,left,-0.2492,1.1495,1.2084,0.0589,0.3671,0.6749,0.3078,A,0.055
580,0.49841,1.2,2,0.38211,0.39042,0.58978,580,2.64986,0.58,0.29074,0.78914,5,2D1U,2.0,True,0.256,82,False,right,0.08307,1.5213,1.5788,0.0574,0.3128,0.954,0.6412,A,0.055
581,0.49841,1.2,1,0.3655,0.40703,0.8639,581,2.90737,0.54,0.27412,0.77253,5,2D1U,1.0,True,0.292,83,True,left,-0.2492,0.3388,1.1725,0.8336,2.139,2.4472,0.3082,A,0.055
582,0.49841,0.1,1,0.2492,0.30735,0.68946,582,2.51695,0.54,0.27412,0.77253,5,2D1U,1.0,True,0.315,83,True,left,0.08307,0.2233,1.0562,0.8328,1.6814,2.323,0.6416,A,0.055
583,0.49841,0.1,2,0.21598,0.22428,0.63131,583,1.87733,-0.38,-0.19106,0.30735,5,1D2U,1.0,True,0.46,72,False,left,-0.2492,1.231,1.2896,0.0586,0.3153,0.6238,0.3085,A,0.055
584,0.49841,1.2,2,0.42364,0.34058,0.78914,584,2.35912,-0.38,-0.19106,0.30735,5,1D2U,2.0,False,0.642,72,False,right,0.08307,1.7685,1.8262,0.0577,0.3599,1.002,0.6421,A,0.055
585,0.49841,1.2,2,0.28243,0.21598,0.8556,585,2.14316,-0.42,-0.20767,0.29074,5,1D2U,1.0,True,0.632,73,True,left,-0.2492,1.5234,1.5824,0.059,0.3818,0.6899,0.308,A,0.055
586,0.49841,0.1,2,0.2409,0.35719,0.76422,586,2.60833,0.5,0.2492,0.74761,5,2D1U,2.0,True,0.339,83,False,right,0.08307,1.5602,1.6184,0.0582,0.1769,0.8185,0.6417,A,0.055
587,0.49841,0.1,2,0.40703,0.40703,0.81406,587,2.87414,0.5,0.2492,0.74761,5,2D1U,1.0,False,1.491,83,False,left,-0.2492,1.6071,1.6655,0.0585,0.5069,0.8155,0.3086,A,0.055
588,0.49841,1.2,1,0.23259,0.44856,0.7393,588,2.2096,-0.42,-0.20767,0.29074,5,1D2U,2.0,True,0.396,73,True,right,0.08307,0.2035,0.5535,0.35,1.2288,1.8706,0.6418,A,0.055
