,Unnamed: 0,standardDur,audNoise,order,preDur,postDur,isiDur,trial_num,total_audio_dur,delta_dur_percents,deltaDurS,testDurS,intensities,current_stair,responses,is_correct,response_rts,stair_num_reversal,stair_is_reversal,response_keys
0,0,0.5,0.1,2,0.4167,0.3167,0.4167,0,1.7001,-0.9,-0.45,0.05,5,2D1U,1.0,True,0.554,0,False,left
1,1,0.5,0.1,1,0.45,0.3333,0.55,1,1.8833,-0.9,-0.45,0.05,5,3D1U,2.0,True,0.418,0,False,right
2,2,0.5,0.1,2,0.3,0.4,0.7833,2,2.1166,-0.74,-0.3667,0.1333,5,2D1U,1.0,True,0.467,0,False,left
3,3,0.5,0.1,1,0.2833,0.2333,0.8333,3,1.8999,-0.9,-0.45,0.05,5,1D2U,2.0,True,0.333,0,False,right
4,4,0.5,0.1,1,0.4333,0.2333,0.4833,4,2.5499,0.8,0.4,0.9,5,lapse_rate,1.0,True,0.735,0,False,left
5,5,0.5,0.1,2,0.4167,0.2833,0.6833,5,1.9333,-0.9,-0.45,0.05,5,1D3U,1.0,True,1.081,0,False,left
6,6,0.5,0.1,1,0.3833,0.3167,0.4,6,1.7333,-0.74,-0.3667,0.1333,5,3D1U,2.0,True,0.425,0,False,right
7,7,0.5,0.1,1,0.2833,0.25,0.4833,7,1.7333,-0.58,-0.2833,0.2167,5,2D1U,2.0,True,1.343,0,False,right
8,8,0.5,0.1,1,0.3833,0.35,0.8,8,2.9333,0.8,0.4,0.9,5,lapse_rate,1.0,True,1.094,0,False,left
9,9,0.5,0.1,2,0.2333,0.3167,0.6167,9,1.8834,-0.58,-0.2833,0.2167,5,3D1U,1.0,True,0.658,0,False,left
10,10,0.5,0.1,1,0.2,0.4,0.8667,10,2.0167,-0.9,-0.45,0.05,5,1D3U,2.0,True,0.398,0,False,right
11,11,0.5,0.1,2,0.2833,0.4,0.45,11,1.6833,-0.9,-0.45,0.05,5,1D2U,1.0,True,0.592,0,False,left
12,12,0.5,0.1,1,0.3667,0.35,0.5833,12,1.9333,-0.74,-0.3667,0.1333,5,1D2U,2.0,True,0.417,0,False,right
13,13,0.5,0.1,2,0.3,0.3833,0.4333,13,1.6666,-0.9,-0.45,0.05,5,1D3U,1.0,True,0.692,0,False,left
14,14,0.5,0.1,2,0.2167,0.3667,0.4833,14,1.6667,-0.8,-0.4,0.1,5,lapse_rate,1.0,True,0.599,0,False,left
15,15,0.5,0.1,1,0.35,0.4333,0.5,15,2.0666,-0.42,-0.2167,0.2833,5,2D1U,2.0,True,1.399,0,False,right
16,16,0.5,0.1,1,0.2667,0.2167,0.5167,16,1.7834,-0.42,-0.2167,0.2833,5,3D1U,2.0,True,0.516,0,False,right
17,17,0.5,0.1,1,0.25,0.4167,0.4167,17,1.7167,-0.74,-0.3667,0.1333,5,1D2U,2.0,True,0.291,0,False,right
18,18,0.5,0.1,1,0.25,0.3,0.4167,18,1.8334,-0.26,-0.1333,0.3667,5,2D1U,2.0,True,0.892,0,False,right
19,19,0.5,0.1,1,0.3833,0.4,0.8333,19,3.0166,0.8,0.4,0.9,5,lapse_rate,1.0,True,0.974,0,False,left
20,20,0.5,0.1,2,0.2667,0.4,0.7333,20,2.2667,-0.26,-0.1333,0.3667,5,3D1U,1.0,True,0.575,0,False,left
21,21,0.5,0.1,1,0.2833,0.3333,0.8833,21,2.1332,-0.74,-0.3667,0.1333,5,1D3U,2.0,True,0.267,0,False,right
22,22,0.5,0.1,1,0.2333,0.25,0.4667,22,1.9,-0.1,-0.05,0.45,5,2D1U,1.0,False,0.542,0,False,left
23,23,0.5,0.1,2,0.2667,0.2167,0.5,23,1.9334,-0.1,-0.05,0.45,5,3D1U,1.0,True,1.875,0,False,left
24,24,0.5,0.1,1,0.3833,0.2833,0.5333,24,1.8332,-0.74,-0.3667,0.1333,5,1D3U,2.0,True,0.341,0,False,right
25,25,0.5,0.1,2,0.2167,0.2333,0.6333,25,1.8,-0.58,-0.2833,0.2167,5,1D2U,1.0,True,0.584,0,False,left
26,26,0.5,0.1,2,0.3167,0.4333,0.7667,26,2.1167,-0.8,-0.4,0.1,5,lapse_rate,1.0,True,0.66,0,False,left
27,27,0.5,0.1,2,0.2167,0.4333,0.7667,27,2.45,0.06,0.0333,0.5333,5,3D1U,1.0,False,0.617,0,False,left
28,28,0.5,0.1,2,0.35,0.3,0.6167,28,2.6667,0.8,0.4,0.9,5,lapse_rate,1.0,False,0.907,0,False,left
29,29,0.5,0.1,2,0.3333,0.2833,0.4833,29,1.8166,-0.58,-0.2833,0.2167,5,1D2U,1.0,True,0.708,0,False,left
30,30,0.5,0.1,2,0.2667,0.3167,0.5667,30,2.1001,-0.1,-0.05,0.45,5,2D1U,2.0,False,0.633,0,False,right
31,31,0.5,0.1,2,0.3167,0.2833,0.8,31,2.0333,-0.74,-0.3667,0.1333,5,1D3U,1.0,True,0.466,0,False,left
32,32,0.5,0.1,2,0.4,0.2667,0.8667,32,2.9334,0.8,0.4,0.9,5,lapse_rate,2.0,True,0.592,0,False,right
33,33,0.5,0.1,2,0.2667,0.3667,0.8667,33,2.6168,0.22,0.1167,0.6167,5,3D1U,1.0,False,0.459,0,False,left
34,34,0.5,0.1,1,0.3833,0.2667,0.5333,34,1.9,-0.58,-0.2833,0.2167,5,1D3U,2.0,True,0.358,0,False,right
35,35,0.5,0.1,2,0.3,0.4167,0.6,35,2.2334,-0.18,-0.0833,0.4167,5,2D1U,1.0,True,0.408,1,True,left
36,36,0.5,0.1,2,0.4333,0.3667,0.4167,36,2.0,-0.42,-0.2167,0.2833,5,1D2U,1.0,True,0.683,0,False,left
37,37,0.5,0.1,1,0.3167,0.3667,0.8167,37,2.2168,-0.58,-0.2833,0.2167,5,1D3U,2.0,True,0.441,0,False,right
38,38,0.5,0.1,2,0.3833,0.3,0.6667,38,2.2833,-0.14,-0.0667,0.4333,5,2D1U,2.0,False,0.624,2,True,right
39,39,0.5,0.1,2,0.2667,0.2667,0.9,39,2.2167,-0.42,-0.2167,0.2833,5,1D2U,1.0,True,0.691,0,False,left
40,40,0.5,0.1,2,0.4333,0.45,0.4667,40,1.95,-0.8,-0.4,0.1,5,lapse_rate,1.0,True,0.876,0,False,left
41,41,0.5,0.1,1,0.2667,0.35,0.6333,41,2.4333,0.38,0.1833,0.6833,5,3D1U,1.0,True,0.759,0,False,left
42,42,0.5,0.1,2,0.3,0.3167,0.7167,42,2.5167,0.38,0.1833,0.6833,5,3D1U,1.0,False,1.433,0,False,left
43,43,0.5,0.1,2,0.3167,0.2833,0.6833,43,2.6833,0.8,0.4,0.9,5,lapse_rate,2.0,True,0.334,0,False,right
44,44,0.5,0.1,1,0.2167,0.3333,0.5333,44,1.8,-0.58,-0.2833,0.2167,5,1D3U,2.0,True,0.558,0,False,right
45,45,0.5,0.1,1,0.4167,0.2333,0.4167,45,2.0,-0.14,-0.0667,0.4333,5,2D1U,1.0,False,0.932,2,True,left
46,46,0.5,0.1,1,0.2333,0.3667,0.65,46,2.1167,-0.26,-0.1333,0.3667,5,1D2U,1.0,False,0.451,0,False,left
47,47,0.5,0.1,1,0.25,0.3167,0.8,47,2.2834,-0.18,-0.0833,0.4167,5,2D1U,1.0,False,0.458,3,True,left
48,48,0.5,0.1,1,0.35,0.2333,0.5833,48,1.9999,-0.34,-0.1667,0.3333,5,1D2U,1.0,False,0.642,1,True,left
49,49,0.5,0.1,1,0.2333,0.25,0.55,49,2.3,0.54,0.2667,0.7667,5,3D1U,1.0,True,0.383,0,False,left
50,50,0.5,0.1,1,0.4333,0.3167,0.8833,50,2.2333,-0.8,-0.4,0.1,5,lapse_rate,1.0,False,0.492,0,False,left
51,51,0.5,0.1,2,0.2,0.2833,0.5667,51,1.8333,-0.42,-0.2167,0.2833,5,1D3U,1.0,True,0.576,0,False,left
52,52,0.5,0.1,1,0.2667,0.35,0.8333,52,2.3667,-0.18,-0.0833,0.4167,5,2D1U,2.0,True,0.616,3,True,right
53,53,0.5,0.1,1,0.3833,0.3167,0.8833,53,2.3666,-0.42,-0.2167,0.2833,5,1D2U,2.0,True,0.608,1,False,right
54,54,0.5,0.1,1,0.2167,0.3167,0.6333,54,1.7667,-0.8,-0.4,0.1,5,lapse_rate,1.0,False,0.741,0,False,left
55,55,0.5,0.1,1,0.2667,0.25,0.75,55,2.05,-0.42,-0.2167,0.2833,5,1D3U,2.0,True,0.849,0,False,right
56,56,0.5,0.1,1,0.2833,0.2833,0.45,56,2.2833,0.54,0.2667,0.7667,5,3D1U,1.0,True,0.691,0,False,left
57,57,0.5,0.1,2,0.4333,0.2167,0.8167,57,2.0667,-0.8,-0.4,0.1,5,lapse_rate,1.0,True,0.591,0,False,left
58,58,0.5,0.1,1,0.2333,0.2,0.5167,58,2.2167,0.54,0.2667,0.7667,5,3D1U,2.0,False,0.909,0,False,right
59,59,0.5,0.1,2,0.3333,0.3167,0.7,59,2.1333,-0.42,-0.2167,0.2833,5,1D3U,1.0,True,0.474,0,False,left
60,60,0.5,0.1,1,0.45,0.3333,0.85,60,2.4166,-0.42,-0.2167,0.2833,5,1D2U,2.0,True,0.425,1,False,right
61,61,0.5,0.1,2,0.4,0.2,0.5833,61,2.1166,-0.14,-0.0667,0.4333,5,2D1U,1.0,True,1.25,4,True,left
62,62,0.5,0.1,2,0.2667,0.4,0.55,62,2.5667,0.7,0.35,0.85,5,3D1U,2.0,True,0.532,0,False,right
63,63,0.5,0.1,1,0.3667,0.35,0.7333,63,2.2667,-0.38,-0.1833,0.3167,5,1D2U,2.0,True,0.457,2,True,right
64,64,0.5,0.1,1,0.2167,0.3333,0.8167,64,2.7667,0.8,0.4,0.9,5,lapse_rate,1.0,True,0.625,0,False,left
65,65,0.5,0.1,2,0.4167,0.4333,0.8167,65,2.5334,-0.26,-0.1333,0.3667,5,1D3U,1.0,True,0.443,0,False,left
66,66,0.5,0.1,1,0.3167,0.4,0.6167,66,2.2834,-0.1,-0.05,0.45,5,2D1U,1.0,False,0.407,4,False,left
67,67,0.5,0.1,1,0.25,0.25,0.5667,67,1.8834,-0.38,-0.1833,0.3167,5,1D2U,2.0,True,0.617,2,True,right
68,68,0.5,0.1,1,0.2667,0.3833,0.5667,68,2.5667,0.7,0.35,0.85,5,3D1U,1.0,True,0.383,0,False,left
69,69,0.5,0.1,2,0.25,0.25,0.8833,69,2.25,-0.26,-0.1333,0.3667,5,1D3U,1.0,True,0.557,0,False,left
70,70,0.5,0.1,2,0.3833,0.3333,0.65,70,2.3166,-0.1,-0.05,0.45,5,2D1U,1.0,True,0.526,4,False,left
71,71,0.5,0.1,1,0.45,0.4,0.8667,71,2.3167,-0.8,-0.4,0.1,5,lapse_rate,2.0,True,0.275,0,False,right
72,72,0.5,0.1,1,0.25,0.25,0.5,72,1.8333,-0.34,-0.1667,0.3333,5,1D2U,2.0,True,0.625,2,False,right
73,73,0.5,0.1,1,0.4333,0.3167,0.4833,73,2.2,-0.06,-0.0333,0.4667,5,2D1U,1.0,False,0.624,4,False,left
74,74,0.5,0.1,1,0.2167,0.2833,0.6667,74,2.5167,0.7,0.35,0.85,5,3D1U,2.0,False,2.499,0,False,right
75,75,0.5,0.1,2,0.3167,0.3167,0.6667,75,2.1668,-0.26,-0.1333,0.3667,5,1D3U,1.0,True,0.493,0,False,left
76,76,0.5,0.1,2,0.45,0.4,0.5833,76,2.4,-0.06,-0.0333,0.4667,5,2D1U,1.0,True,0.892,4,False,left
77,77,0.5,0.1,2,0.3667,0.3167,0.8833,77,2.5167,-0.1,-0.05,0.45,5,1D3U,2.0,False,0.734,0,False,right
78,78,0.5,0.1,1,0.25,0.4333,0.5333,78,2.0499,-0.34,-0.1667,0.3333,5,1D2U,2.0,True,1.858,2,False,right
79,79,0.5,0.1,1,0.4333,0.25,0.5667,79,2.6833,0.86,0.4333,0.9333,5,3D1U,1.0,True,0.324,0,False,left
80,80,0.5,0.1,1,0.3,0.3,0.4667,80,2.05,-0.02,-0.0167,0.4833,5,2D1U,2.0,True,0.59,4,False,right
81,81,0.5,0.1,2,0.4333,0.45,0.75,81,2.55,-0.18,-0.0833,0.4167,5,1D3U,2.0,False,0.883,1,True,right
82,82,0.5,0.1,1,0.4333,0.4,0.65,82,2.35,-0.26,-0.1333,0.3667,5,1D3U,2.0,True,0.35,1,False,right
83,83,0.5,0.1,2,0.4,0.3167,0.9,83,2.6334,0.02,0.0167,0.5167,5,2D1U,1.0,False,0.575,4,False,left
84,84,0.5,0.1,2,0.2167,0.2333,0.4833,84,1.9666,0.06,0.0333,0.5333,5,2D1U,2.0,True,1.417,4,False,right
85,85,0.5,0.1,2,0.4167,0.25,0.7167,85,2.2334,-0.3,-0.15,0.35,5,1D2U,1.0,True,0.499,2,False,left
86,86,0.5,0.1,2,0.4167,0.25,0.6,86,2.7,0.86,0.4333,0.9333,5,3D1U,2.0,True,0.534,0,False,right
87,87,0.5,0.1,1,0.2,0.2333,0.4167,87,1.7167,-0.26,-0.1333,0.3667,5,1D3U,1.0,False,2.383,1,False,left
88,88,0.5,0.1,2,0.25,0.3,0.4,88,2.3833,0.86,0.4333,0.9333,5,3D1U,1.0,False,0.567,0,False,left
89,89,0.5,0.1,2,0.3,0.3167,0.5667,89,2.0334,-0.3,-0.15,0.35,5,1D2U,1.0,True,0.543,2,False,left
90,90,0.5,0.1,1,0.35,0.4,0.9,90,2.5167,-0.26,-0.1333,0.3667,5,1D2U,1.0,False,0.857,2,False,left
91,91,0.5,0.1,2,0.4333,0.3167,0.6333,91,2.4166,0.06,0.0333,0.5333,5,2D1U,2.0,True,0.557,4,False,right
92,92,0.5,0.1,2,0.4167,0.2833,0.6667,92,2.2,-0.34,-0.1667,0.3333,5,1D3U,1.0,True,0.574,1,False,left
93,93,0.5,0.1,2,0.4167,0.45,0.6333,93,2.5167,0.02,0.0167,0.5167,5,2D1U,2.0,True,0.517,5,True,right
94,94,0.5,0.1,1,0.2667,0.2833,0.7,94,2.1,-0.3,-0.15,0.35,5,1D2U,2.0,True,1.099,3,True,right
95,95,0.5,0.1,2,0.4167,0.2167,0.4333,95,2.5167,0.9,0.45,0.95,5,3D1U,2.0,True,1.098,0,False,right
96,96,0.5,0.1,2,0.3167,0.2333,0.8167,96,2.8167,0.9,0.45,0.95,5,3D1U,2.0,True,0.466,0,False,right
97,97,0.5,0.1,2,0.45,0.4167,0.5667,97,2.4501,0.02,0.0167,0.5167,5,2D1U,1.0,False,1.951,5,True,left
98,98,0.5,0.1,1,0.3167,0.2833,0.7333,98,2.1666,-0.34,-0.1667,0.3333,5,1D3U,1.0,False,0.833,1,False,left
99,99,0.5,0.1,1,0.3667,0.25,0.45,99,2.5167,0.9,0.45,0.95,5,3D1U,1.0,True,1.034,0,False,left
100,100,0.5,0.1,1,0.4167,0.2333,0.7333,100,2.2333,-0.3,-0.15,0.35,5,1D2U,1.0,False,0.834,3,True,left
101,101,0.5,0.1,1,0.3833,0.3167,0.6667,101,2.4,0.06,0.0333,0.5333,5,2D1U,2.0,False,1.075,6,True,right
102,102,0.5,0.1,1,0.2,0.2833,0.9,102,2.4333,0.1,0.05,0.55,5,2D1U,1.0,True,0.65,6,False,left
103,103,0.5,0.1,1,0.3667,0.4,0.4833,103,2.0333,-0.42,-0.2167,0.2833,5,1D3U,2.0,True,0.568,1,False,right
104,104,0.5,0.1,2,0.2167,0.2167,0.6667,104,2.5168,0.82,0.4167,0.9167,5,3D1U,2.0,True,0.484,1,True,right
105,105,0.5,0.1,1,0.2833,0.35,0.9,105,2.95,0.82,0.4167,0.9167,5,3D1U,1.0,True,0.666,1,True,left
106,106,0.5,0.1,2,0.3833,0.3333,0.6333,106,2.1832,-0.34,-0.1667,0.3333,5,1D2U,1.0,True,0.65,3,False,left
107,107,0.5,0.1,2,0.3667,0.2833,0.6,107,2.3,0.1,0.05,0.55,5,2D1U,1.0,False,0.782,6,False,left
108,108,0.5,0.1,2,0.4333,0.3667,0.4833,108,2.7,0.82,0.4167,0.9167,5,3D1U,2.0,True,0.392,1,True,right
109,109,0.5,0.1,2,0.3333,0.2667,0.4333,109,1.8666,-0.34,-0.1667,0.3333,5,1D2U,1.0,True,0.934,3,False,left
110,110,0.5,0.1,1,0.3667,0.35,0.8667,110,2.4334,-0.3,-0.15,0.35,5,1D2U,1.0,False,0.983,4,True,left
111,111,0.5,0.1,1,0.3,0.2667,0.4667,111,1.8167,-0.42,-0.2167,0.2833,5,1D3U,1.0,False,2.633,1,False,left
112,112,0.5,0.1,1,0.2667,0.3333,0.5,112,1.9333,-0.34,-0.1667,0.3333,5,1D2U,2.0,True,0.525,5,True,right
113,113,0.5,0.1,2,0.2333,0.25,0.6333,113,1.8666,-0.5,-0.25,0.25,5,1D3U,1.0,True,0.683,1,False,left
114,114,0.5,0.1,1,0.4167,0.3333,0.8333,114,2.65,0.14,0.0667,0.5667,5,2D1U,1.0,True,0.466,6,False,left
115,115,0.5,0.1,2,0.35,0.25,0.8167,115,2.4834,0.14,0.0667,0.5667,5,2D1U,1.0,False,3.292,6,False,left
116,116,0.5,0.1,1,0.2667,0.3667,0.7333,116,2.7334,0.74,0.3667,0.8667,5,3D1U,1.0,True,0.441,1,False,left
117,117,0.5,0.1,2,0.4333,0.3833,0.6333,117,2.2832,-0.34,-0.1667,0.3333,5,1D2U,1.0,True,3.667,5,True,left
118,118,0.5,0.1,2,0.3,0.4167,0.5833,118,2.6667,0.74,0.3667,0.8667,5,3D1U,1.0,False,0.824,1,False,left
119,119,0.5,0.1,2,0.3,0.3167,0.9,119,2.2667,-0.5,-0.25,0.25,5,1D3U,1.0,True,0.573,1,False,left
120,120,0.5,0.1,1,0.2333,0.3333,0.65,120,2.2999,0.18,0.0833,0.5833,5,2D1U,1.0,True,0.401,6,False,left
121,121,0.5,0.1,2,0.3167,0.2167,0.7167,121,2.3334,0.18,0.0833,0.5833,5,2D1U,2.0,True,1.299,6,False,right
122,122,0.5,0.1,2,0.3333,0.3,0.7333,122,2.4333,0.14,0.0667,0.5667,5,2D1U,2.0,True,1.124,7,True,right
123,123,0.5,0.1,2,0.4,0.2333,0.45,123,1.8333,-0.5,-0.25,0.25,5,1D3U,1.0,True,0.625,1,False,left
124,124,0.5,0.1,2,0.3,0.3833,0.5,124,2.5666,0.78,0.3833,0.8833,5,3D1U,2.0,True,0.458,2,True,right
125,125,0.5,0.1,1,0.4167,0.2333,0.4667,125,2.5,0.78,0.3833,0.8833,5,3D1U,1.0,True,1.65,2,True,left
126,126,0.5,0.1,2,0.2167,0.3167,0.7667,126,2.1501,-0.3,-0.15,0.35,5,1D2U,1.0,True,0.566,6,True,left
127,127,0.5,0.1,2,0.4333,0.4333,0.4333,127,2.1499,-0.3,-0.15,0.35,5,1D2U,1.0,True,1.534,6,True,left
128,128,0.5,0.1,2,0.4333,0.4,0.8333,128,3.0499,0.78,0.3833,0.8833,5,3D1U,2.0,True,2.917,2,True,right
129,129,0.5,0.1,2,0.2333,0.4333,0.6333,129,2.6666,0.74,0.3667,0.8667,5,3D1U,2.0,True,3.916,3,True,right
130,130,0.5,0.1,2,0.3833,0.2333,0.7167,130,2.4,0.14,0.0667,0.5667,5,2D1U,1.0,False,0.682,7,True,left
131,131,0.5,0.1,1,0.3167,0.3,0.6333,131,2.0167,-0.46,-0.2333,0.2667,5,1D3U,1.0,False,0.558,2,True,left
132,132,0.5,0.1,2,0.3333,0.4167,0.7167,132,2.55,0.18,0.0833,0.5833,5,2D1U,1.0,False,0.758,8,True,left
133,133,0.5,0.1,2,0.3333,0.2,0.5667,133,2.2167,0.22,0.1167,0.6167,5,2D1U,2.0,True,0.85,8,False,right
134,134,0.5,0.1,1,0.4167,0.2,0.85,134,2.2167,-0.5,-0.25,0.25,5,1D3U,2.0,True,0.591,3,True,right
135,135,0.5,0.1,2,0.4,0.3167,0.5,135,2.5834,0.74,0.3667,0.8667,5,3D1U,2.0,True,0.499,3,True,right
136,136,0.5,0.1,2,0.3333,0.4,0.4667,136,2.0667,-0.26,-0.1333,0.3667,5,1D2U,1.0,True,0.717,6,False,left
137,137,0.5,0.1,1,0.4333,0.2333,0.7333,137,2.1499,-0.5,-0.25,0.25,5,1D3U,2.0,True,0.493,3,True,right
138,138,0.5,0.1,1,0.3833,0.3333,0.7167,138,2.55,0.22,0.1167,0.6167,5,2D1U,1.0,True,0.974,8,False,left
139,139,0.5,0.1,2,0.3167,0.35,0.4667,139,2.0001,-0.26,-0.1333,0.3667,5,1D2U,1.0,True,0.323,6,False,left
140,140,0.5,0.1,1,0.2667,0.3,0.8,140,2.25,-0.22,-0.1167,0.3833,5,1D2U,1.0,False,0.615,6,False,left
141,141,0.5,0.1,2,0.4333,0.3,0.6,141,2.7,0.74,0.3667,0.8667,5,3D1U,2.0,True,0.466,3,True,right
142,142,0.5,0.1,1,0.4167,0.3333,0.7833,142,2.2833,-0.5,-0.25,0.25,5,1D3U,2.0,True,0.5,3,True,right
143,143,0.5,0.1,1,0.4333,0.25,0.85,143,2.3,-0.46,-0.2333,0.2667,5,1D3U,2.0,True,0.467,4,True,right
144,144,0.5,0.1,2,0.25,0.2167,0.9,144,2.1334,-0.46,-0.2333,0.2667,5,1D3U,1.0,True,2.608,4,True,left
145,145,0.5,0.1,2,0.3667,0.4333,0.4333,145,2.1,-0.26,-0.1333,0.3667,5,1D2U,2.0,False,4.758,7,True,right
146,146,0.5,0.1,1,0.2833,0.2667,0.7333,146,2.6333,0.7,0.35,0.85,5,3D1U,1.0,True,0.491,3,False,left
147,147,0.5,0.1,1,0.25,0.2333,0.5667,147,1.8167,-0.46,-0.2333,0.2667,5,1D3U,2.0,True,0.516,4,True,right
148,148,0.5,0.1,2,0.3167,0.3333,0.6333,148,2.6333,0.7,0.35,0.85,5,3D1U,1.0,False,2.133,3,False,left
149,149,0.5,0.1,1,0.4,0.2333,0.4167,149,1.9,-0.3,-0.15,0.35,5,1D2U,1.0,False,3.017,7,False,left
150,150,0.5,0.1,1,0.2667,0.3,0.5667,150,1.9667,-0.34,-0.1667,0.3333,5,1D2U,2.0,True,1.117,7,False,right
151,151,0.5,0.1,1,0.2333,0.3667,0.4,151,1.8333,-0.34,-0.1667,0.3333,5,1D2U,2.0,True,2.042,7,False,right
152,152,0.5,0.1,2,0.2,0.2667,0.75,152,2.0,-0.42,-0.2167,0.2833,5,1D3U,1.0,True,0.442,4,False,left
153,153,0.5,0.1,1,0.45,0.3,0.6667,153,2.2,-0.42,-0.2167,0.2833,5,1D3U,2.0,True,0.408,4,False,right
