Unnamed: 0,standardDur,audNoise,order,preDur,postDur,isiDur,trial_num,totalDur,delta_dur_percents,deltaDurS,testDurS,intensities,current_stair,responses,is_correct,response_rts,stair_num_reversal,stair_is_reversal,response_keys,conflictDur,recordedOnsetVisualTest,recordedOffsetVisualTest,recordedDurVisualTest,recordedOnsetVisualStandard,recordedOffsetVisualStandard,recordedDurVisualStandard,modalityCue,VisualPSE
0,0.50114,1.2,2,0.30904,0.32574,0.46773,0,2.20502,0.2,0.10023,0.60137,5,2D1U,2.0,True,0.312,0,False,right,0.08352,1.307,1.7987,0.4917,0.3149,0.7902,0.4752,A,-0.105
1,0.50114,1.2,1,0.27563,0.33409,0.51784,1,2.58087,0.9,0.45103,0.95217,5,lapse_rate,1.0,True,0.992,0,False,left,-0.08352,0.3218,1.1633,0.8414,1.7718,2.0799,0.3081,A,-0.105
2,0.50114,1.2,2,0.39256,0.30904,0.69324,2,2.29689,-0.2,-0.10023,0.40091,5,1D2U,1.0,True,2.098,0,False,left,0.16705,1.6576,1.949,0.2914,0.3575,0.9154,0.5579,A,-0.105
3,0.50114,1.2,2,0.30068,0.23387,0.68489,3,2.32195,0.2,0.10023,0.60137,5,2D1U,2.0,True,2.533,0,False,right,-0.25057,1.3528,1.8447,0.4919,0.4778,0.6193,0.1416,A,-0.105
4,0.50114,1.2,1,0.26727,0.34245,0.56796,4,2.63099,0.9,0.45103,0.95217,5,lapse_rate,1.0,True,0.463,0,False,left,0.08352,0.3199,1.1614,0.8414,1.7366,2.212,0.4754,A,-0.105
5,0.50114,1.2,1,0.37585,0.44267,0.48444,5,2.20501,-0.2,-0.10023,0.40091,5,1D2U,2.0,True,0.356,0,False,right,-0.08352,0.4222,0.7142,0.2919,1.2894,1.5978,0.3084,A,-0.105
6,0.50114,0.1,1,0.23387,0.33409,0.79347,6,2.38041,0.04,0.0167,0.51784,5,2D1U,1.0,True,0.259,0,False,left,0.16705,0.2865,0.7031,0.4166,1.4615,2.0282,0.5667,A,-0.1
7,0.50114,0.1,1,0.37585,0.3508,0.44267,7,1.95444,-0.44,-0.21716,0.28398,5,lapse_rate,1.0,False,0.284,0,False,left,-0.25057,0.4233,0.6067,0.1833,1.2235,1.3733,0.1499,A,-0.1
8,0.50114,1.2,1,0.30904,0.30068,0.55125,8,2.61428,0.9,0.45103,0.95217,5,lapse_rate,1.0,True,0.3,0,False,left,0.08352,0.355,1.1964,0.8415,1.7549,2.2298,0.4749,A,-0.105
9,0.50114,0.1,1,0.3508,0.40091,0.61807,9,2.347,-0.04,-0.0167,0.47608,5,1D2U,2.0,True,0.196,0,False,right,-0.08352,0.3946,0.7702,0.3756,1.4786,1.7952,0.3166,A,-0.1
10,0.50114,0.1,1,0.28398,0.21716,0.85194,10,2.37206,0.04,0.0167,0.51784,5,2D1U,2.0,False,0.417,0,False,right,0.16705,0.3342,0.7507,0.4164,1.5676,2.1341,0.5665,A,-0.1
11,0.50114,0.1,1,0.31739,0.27563,0.58466,11,2.23843,0.12,0.05847,0.55961,5,2D1U,1.0,True,0.218,1,True,left,-0.25057,0.364,0.8223,0.4583,1.5808,1.7305,0.1497,A,-0.1
12,0.50114,0.1,2,0.21716,0.25892,0.51784,12,2.44723,0.9,0.45103,0.95217,5,lapse_rate,2.0,True,0.337,0,False,right,0.08352,1.2766,2.1274,0.8508,0.2273,0.7106,0.4833,A,-0.1
13,0.50114,1.2,2,0.42597,0.26727,0.80182,13,2.47228,-0.04,-0.0167,0.47608,5,1D2U,1.0,True,0.301,0,False,left,-0.08352,1.6716,2.0382,0.3666,0.5135,0.8215,0.308,A,-0.105
14,0.50114,1.2,2,0.21716,0.38421,0.46773,14,2.12985,0.12,0.05847,0.55961,5,2D1U,1.0,False,0.191,1,True,left,0.16705,1.2536,1.704,0.4504,0.179,0.7373,0.5582,A,-0.105
15,0.50114,0.1,2,0.20881,0.41762,0.8937,15,2.30525,-0.44,-0.21716,0.28398,5,lapse_rate,1.0,True,0.158,0,False,left,-0.25057,1.4711,1.6544,0.1833,0.3799,0.5298,0.1498,A,-0.1
16,0.50114,1.2,2,0.42597,0.41762,0.59302,16,2.49736,0.12,0.05847,0.55961,5,1D2U,2.0,True,0.183,0,False,right,0.08352,1.5461,1.9957,0.4497,0.4289,0.9037,0.4748,A,-0.105
17,0.50114,1.2,2,0.30904,0.31739,0.88535,17,2.61429,0.2,0.10023,0.60137,5,2D1U,2.0,True,0.154,1,False,right,-0.08352,1.6442,2.1362,0.4921,0.4034,0.7113,0.3079,A,-0.105
18,0.50114,1.2,1,0.25892,0.34245,0.5262,18,1.91269,-0.44,-0.21716,0.28398,5,lapse_rate,2.0,True,0.379,0,False,right,0.16705,0.311,0.4855,0.1745,0.9773,1.5354,0.558,A,-0.105
19,0.50114,0.1,2,0.22551,0.40926,0.69324,19,2.34699,0.04,0.0167,0.51784,5,1D2U,2.0,True,0.11,1,True,right,-0.25057,1.29,1.7069,0.4169,0.3987,0.5483,0.1496,A,-0.1
20,0.50114,0.1,1,0.28398,0.31739,0.88535,20,2.58923,0.2,0.10023,0.60137,5,2D1U,1.0,True,0.293,1,False,left,0.08352,0.3293,0.8287,0.4994,1.7211,2.2044,0.4834,A,-0.1
21,0.50114,0.1,2,0.38421,0.40926,0.44267,21,2.21336,-0.04,-0.0167,0.47608,5,1D2U,1.0,True,0.11,1,False,left,-0.08352,1.2817,1.6558,0.3741,0.4735,0.7898,0.3164,A,-0.1
22,0.50114,0.1,2,0.3675,0.33409,0.73501,22,2.22172,-0.44,-0.21716,0.28398,5,lapse_rate,1.0,True,0.324,0,False,left,0.16705,1.6824,1.8656,0.1832,0.3322,0.8986,0.5664,A,-0.1
23,0.50114,0.1,2,0.44267,0.34245,0.81853,23,2.6811,0.16,0.08352,0.57631,5,2D1U,2.0,True,0.111,2,True,right,-0.25057,1.6319,2.1063,0.4745,0.6148,0.7644,0.1496,A,-0.1
24,0.50114,1.2,1,0.30068,0.21716,0.67654,24,2.1716,-0.04,-0.0167,0.47608,5,1D2U,1.0,False,0.263,1,False,left,0.08352,0.3485,0.7149,0.3665,1.3985,1.8734,0.4749,A,-0.105
25,0.50114,0.1,1,0.45103,0.39256,0.57631,25,2.87321,0.9,0.45103,0.95217,5,lapse_rate,1.0,True,0.127,0,False,left,-0.08352,0.499,1.3493,0.8503,2.0157,2.332,0.3163,A,-0.1
26,0.50114,1.2,2,0.24222,0.45103,0.47608,26,2.24678,0.16,0.08352,0.57631,5,2D1U,2.0,True,0.113,2,True,right,0.16705,1.2933,1.7601,0.4668,0.2095,0.7682,0.5587,A,-0.105
27,0.50114,1.2,2,0.31739,0.23387,0.69324,27,2.18831,-0.12,-0.05847,0.44267,5,1D2U,2.0,False,0.295,1,False,right,-0.25057,1.3714,1.705,0.3336,0.4878,0.6297,0.1419,A,-0.105
28,0.50114,0.1,2,0.40091,0.23387,0.75171,28,2.17161,-0.44,-0.21716,0.28398,5,lapse_rate,1.0,True,0.317,0,False,left,0.08352,1.69,1.873,0.183,0.4065,0.8894,0.4829,A,-0.1
29,0.50114,1.2,1,0.31739,0.40091,0.46773,29,2.24678,0.12,0.05847,0.55961,5,2D1U,1.0,True,0.198,2,False,left,-0.08352,0.3691,0.8185,0.4494,1.3776,1.6855,0.308,A,-0.105
30,0.50114,1.2,2,0.34245,0.44267,0.70995,30,2.94838,0.9,0.45103,0.95217,5,lapse_rate,1.0,False,0.198,0,False,left,0.16705,1.623,2.4644,0.8414,0.306,0.8643,0.5583,A,-0.105
31,0.50114,0.1,2,0.40091,0.40926,0.47608,31,2.1883,-0.2,-0.10023,0.40091,5,1D2U,1.0,True,0.111,1,False,left,-0.25057,1.2524,1.5525,0.3001,0.5773,0.7275,0.1502,A,-0.1
32,0.50114,0.1,1,0.21716,0.32574,0.85194,32,2.45559,0.12,0.05847,0.55961,5,2D1U,2.0,False,0.179,2,False,right,0.08352,0.2653,0.7234,0.4581,1.5824,2.0655,0.4831,A,-0.1
33,0.50114,0.1,1,0.43432,0.20881,0.5262,33,2.07138,-0.2,-0.10023,0.40091,5,1D2U,1.0,False,0.25,1,False,left,-0.08352,0.482,0.7824,0.3003,1.3986,1.7154,0.3168,A,-0.1
34,0.50114,1.2,1,0.38421,0.37585,0.87699,34,2.42217,-0.44,-0.21716,0.28398,5,lapse_rate,2.0,True,0.241,0,False,right,0.16705,0.4301,0.6046,0.1746,1.4467,2.0051,0.5584,A,-0.105
35,0.50114,1.2,1,0.22551,0.21716,0.44267,35,1.67046,-0.44,-0.21716,0.28398,5,lapse_rate,1.0,False,0.257,0,False,left,-0.25057,0.2765,0.4511,0.1746,1.0672,1.2096,0.1424,A,-0.105
36,0.50114,0.1,1,0.42597,0.3675,0.59302,36,2.46394,0.16,0.08352,0.57631,5,2D1U,1.0,True,0.132,3,True,left,0.08352,0.4773,0.9531,0.4758,1.5531,2.0359,0.4828,A,-0.1
37,0.50114,1.2,2,0.20046,0.20046,0.76006,37,2.02127,-0.28,-0.14199,0.35915,5,1D2U,1.0,True,0.294,1,False,left,-0.08352,1.4058,1.6558,0.25,0.2892,0.5974,0.3081,A,-0.105
38,0.50114,1.2,1,0.3508,0.3675,0.87699,38,2.67274,0.16,0.08352,0.57631,5,2D1U,1.0,True,0.113,3,True,left,0.16705,0.3951,0.861,0.4659,1.7038,2.2617,0.558,A,-0.105
39,0.50114,1.2,2,0.35915,0.32574,0.81853,39,2.36371,-0.28,-0.14199,0.35915,5,1D2U,1.0,True,0.21,1,False,left,-0.25057,1.5392,1.7893,0.2501,0.531,0.6727,0.1417,A,-0.105
40,0.50114,1.2,2,0.39256,0.32574,0.80182,40,2.97343,0.9,0.45103,0.95217,5,lapse_rate,2.0,True,0.261,0,False,right,0.08352,1.7217,2.5633,0.8416,0.3968,0.8718,0.475,A,-0.105
41,0.50114,1.2,2,0.34245,0.20046,0.41762,41,2.02128,0.12,0.05847,0.55961,5,2D1U,2.0,True,0.23,4,True,right,-0.08352,1.2051,1.6557,0.4506,0.4306,0.7387,0.3081,A,-0.105
42,0.50114,0.1,1,0.35915,0.23387,0.7016,42,2.74793,0.9,0.45103,0.95217,5,lapse_rate,1.0,True,0.209,0,False,left,0.16705,0.4088,1.2593,0.8505,1.9255,2.4921,0.5666,A,-0.1
43,0.50114,0.1,2,0.25892,0.25057,0.47608,43,1.86256,-0.24,-0.11693,0.37585,5,1D2U,1.0,True,0.165,2,True,left,-0.25057,1.1084,1.3837,0.2753,0.4339,0.5836,0.1497,A,-0.1
44,0.50114,0.1,2,0.20881,0.35915,0.47608,44,1.92103,-0.24,-0.11693,0.37585,5,1D2U,2.0,False,0.206,2,True,right,0.08352,1.2227,1.4975,0.2748,0.2143,0.6977,0.4834,A,-0.1
45,0.50114,0.1,2,0.34245,0.24222,0.77677,45,2.42219,0.12,0.05847,0.55961,5,2D1U,2.0,True,0.25,4,True,right,-0.08352,1.5739,2.0323,0.4585,0.4324,0.7483,0.316,A,-0.1
46,0.50114,0.1,1,0.38421,0.25057,0.85194,46,2.27184,-0.44,-0.21716,0.28398,5,lapse_rate,2.0,True,0.253,0,False,right,0.16705,0.4335,0.6177,0.1842,1.4335,2.0009,0.5674,A,-0.1
47,0.50114,0.1,1,0.33409,0.26727,0.87699,47,2.93166,0.9,0.45103,0.95217,5,lapse_rate,1.0,True,0.133,0,False,left,-0.25057,0.3815,1.2315,0.8499,2.282,2.4318,0.1498,A,-0.1
48,0.50114,0.1,1,0.3675,0.24222,0.44267,48,2.09643,0.08,0.04176,0.5429,5,2D1U,2.0,False,0.262,4,False,right,0.08352,0.4176,0.8592,0.4416,1.3095,1.793,0.4834,A,-0.1
49,0.50114,1.2,2,0.42597,0.44267,0.88535,49,2.61428,-0.28,-0.14199,0.35915,5,1D2U,2.0,False,0.253,3,True,right,-0.08352,1.7557,2.0054,0.2498,0.5137,0.8216,0.3079,A,-0.105
50,0.50114,1.2,1,0.32574,0.3508,0.79347,50,2.25513,-0.44,-0.21716,0.28398,5,lapse_rate,2.0,True,0.228,0,False,right,0.16705,0.3732,0.548,0.1748,1.3064,1.8647,0.5584,A,-0.105
51,0.50114,1.2,2,0.35915,0.30904,0.50949,51,2.02127,-0.32,-0.15869,0.34245,5,1D2U,2.0,False,0.317,3,False,right,-0.25057,1.2291,1.4628,0.2337,0.5291,0.6707,0.1416,A,-0.105
52,0.50114,1.2,1,0.23387,0.43432,0.88535,52,2.61429,0.12,0.05847,0.55961,5,2D1U,2.0,False,0.117,5,True,right,0.08352,0.2821,0.732,0.4499,1.6236,2.0986,0.475,A,-0.105
53,0.50114,1.2,1,0.24222,0.40091,0.73501,53,2.19667,-0.36,-0.18375,0.31739,5,1D2U,1.0,False,0.122,3,False,left,-0.08352,0.2913,0.4996,0.2083,1.3245,1.6327,0.3082,A,-0.105
54,0.50114,0.1,2,0.3675,0.27563,0.64313,54,2.36371,0.16,0.08352,0.57631,5,2D1U,1.0,False,0.259,5,False,left,0.16705,1.591,2.0659,0.475,0.3325,0.8993,0.5668,A,-0.1
55,0.50114,1.2,2,0.38421,0.41762,0.55961,55,2.14656,-0.44,-0.21716,0.28398,5,lapse_rate,2.0,False,0.23,0,False,right,-0.25057,1.3106,1.4858,0.1752,0.5599,0.7016,0.1417,A,-0.105
56,0.50114,0.1,1,0.44267,0.38421,0.58466,56,2.51405,0.2,0.10023,0.60137,5,2D1U,1.0,True,0.133,5,False,left,0.08352,0.4889,0.9889,0.5,1.5806,2.0639,0.4834,A,-0.1
57,0.50114,1.2,1,0.43432,0.35915,0.76006,57,2.33865,-0.44,-0.21716,0.28398,5,lapse_rate,2.0,True,0.134,0,False,right,-0.08352,0.4791,0.6543,0.1751,1.5042,1.8125,0.3083,A,-0.105
58,0.50114,0.1,2,0.27563,0.30068,0.51784,58,1.89597,-0.4,-0.20046,0.30068,5,1D2U,1.0,True,0.323,3,False,left,0.16705,1.3709,1.571,0.2,0.2378,0.804,0.5662,A,-0.1
59,0.50114,0.1,2,0.39256,0.23387,0.64313,59,2.07138,-0.4,-0.20046,0.30068,5,1D2U,1.0,True,0.242,3,False,left,-0.25057,1.406,1.6061,0.2,0.564,0.7138,0.1498,A,-0.1
60,0.50114,1.2,1,0.37585,0.20881,0.55961,60,2.24678,0.2,0.10023,0.60137,5,2D1U,2.0,False,0.276,5,False,right,0.08352,0.4237,0.9155,0.4918,1.4821,1.9571,0.475,A,-0.105
61,0.50114,0.1,1,0.20881,0.24222,0.76841,61,2.00456,-0.44,-0.21716,0.28398,5,lapse_rate,2.0,True,0.214,0,False,right,-0.08352,0.254,0.4369,0.1829,1.2959,1.6118,0.3159,A,-0.1
62,0.50114,1.2,1,0.30068,0.31739,0.5262,62,2.26348,0.24,0.11693,0.61807,5,2D1U,1.0,True,0.258,5,False,left,0.16705,0.3475,0.8551,0.5076,1.3475,1.9059,0.5584,A,-0.105
63,0.50114,1.2,2,0.28398,0.27563,0.50114,63,1.87928,-0.36,-0.18375,0.31739,5,1D2U,1.0,True,0.212,4,True,left,-0.25057,1.154,1.3621,0.2081,0.4622,0.6039,0.1416,A,-0.105
64,0.50114,0.1,1,0.43432,0.42597,0.7183,64,3.0319,0.9,0.45103,0.95217,5,lapse_rate,1.0,True,0.113,0,False,left,0.08352,0.4784,1.3286,0.8502,2.0534,2.5372,0.4838,A,-0.1
65,0.50114,1.2,2,0.43432,0.39256,0.48444,65,2.12985,-0.36,-0.18375,0.31739,5,1D2U,1.0,True,0.166,4,True,left,-0.08352,1.3629,1.5713,0.2084,0.521,0.8295,0.3085,A,-0.105
66,0.50114,1.2,1,0.39256,0.38421,0.67654,66,2.90662,0.9,0.45103,0.95217,5,lapse_rate,1.0,True,0.227,0,False,left,0.16705,0.4448,1.2863,0.8415,1.9281,2.4863,0.5582,A,-0.105
67,0.50114,0.1,2,0.40926,0.44267,0.50949,67,2.48063,0.24,0.11693,0.61807,5,2D1U,2.0,True,0.475,5,False,right,-0.25057,1.2906,1.8071,0.5165,0.5821,0.7318,0.1496,A,-0.1
68,0.50114,0.1,2,0.40091,0.29233,0.61807,68,2.1549,-0.32,-0.15869,0.34245,5,1D2U,1.0,True,0.315,4,False,left,0.08352,1.5606,1.8033,0.2428,0.4114,0.8939,0.4825,A,-0.1
69,0.50114,1.2,2,0.31739,0.32574,0.55125,69,1.9795,-0.44,-0.21716,0.28398,5,lapse_rate,1.0,True,0.217,0,False,left,-0.08352,1.3124,1.4872,0.1748,0.4042,0.7128,0.3086,A,-0.105
70,0.50114,0.1,1,0.30068,0.24222,0.69324,70,2.33865,0.2,0.10023,0.60137,5,2D1U,1.0,True,0.265,6,True,left,0.16705,0.3456,0.8458,0.5001,1.5041,2.0713,0.5672,A,-0.1
71,0.50114,0.1,1,0.3508,0.43432,0.61807,71,2.24678,-0.32,-0.15869,0.34245,5,1D2U,2.0,True,0.111,4,False,right,-0.25057,0.399,0.6402,0.2412,1.4319,1.5819,0.15,A,-0.1
72,0.50114,1.2,2,0.24222,0.43432,0.87699,72,2.65604,0.2,0.10023,0.60137,5,2D1U,1.0,False,0.197,6,True,left,0.08352,1.647,2.1385,0.4916,0.247,0.7226,0.4756,A,-0.105
73,0.50114,1.2,1,0.23387,0.43432,0.48444,73,1.93775,-0.44,-0.21716,0.28398,5,lapse_rate,2.0,True,0.111,0,False,right,-0.08352,0.28,0.455,0.175,1.0297,1.3385,0.3088,A,-0.105
74,0.50114,1.2,1,0.40091,0.40091,0.47608,74,2.73121,0.9,0.45103,0.95217,5,lapse_rate,1.0,True,0.189,0,False,left,0.16705,0.4521,1.2942,0.8421,1.7359,2.2937,0.5578,A,-0.105
75,0.50114,1.2,2,0.26727,0.38421,0.55125,75,2.06302,-0.28,-0.14199,0.35915,5,1D2U,2.0,False,0.115,4,False,right,-0.25057,1.1798,1.43,0.2502,0.4381,0.5796,0.1415,A,-0.105
76,0.50114,1.2,2,0.30068,0.30904,0.50949,76,2.23842,0.24,0.11693,0.61807,5,2D1U,1.0,False,0.199,7,True,left,0.08352,1.341,1.8492,0.5082,0.3072,0.7823,0.475,A,-0.105
77,0.50114,1.2,2,0.40091,0.29233,0.63478,77,2.78133,0.9,0.45103,0.95217,5,lapse_rate,2.0,True,0.154,0,False,right,-0.08352,1.4846,2.3264,0.8418,0.4932,0.8011,0.308,A,-0.105
78,0.50114,1.2,2,0.33409,0.26727,0.72665,78,2.1716,-0.32,-0.15869,0.34245,5,1D2U,1.0,True,0.389,5,True,left,0.16705,1.6346,1.8674,0.2329,0.3011,0.8596,0.5585,A,-0.105
79,0.50114,0.1,1,0.38421,0.25892,0.86864,79,2.65604,0.28,0.14199,0.64313,5,2D1U,1.0,True,0.213,7,False,left,-0.25057,0.4342,0.9756,0.5414,2.0173,2.1671,0.1498,A,-0.1
80,0.50114,0.1,2,0.33409,0.42597,0.81853,80,3.0319,0.9,0.45103,0.95217,5,lapse_rate,2.0,True,0.122,0,False,right,0.08352,1.6894,2.5394,0.85,0.3391,0.8225,0.4834,A,-0.1
81,0.50114,0.1,2,0.42597,0.20881,0.59302,81,2.37207,0.28,0.14199,0.64313,5,2D1U,2.0,True,1.175,7,False,right,-0.08352,1.4721,2.0137,0.5416,0.5137,0.8304,0.3167,A,-0.1
82,0.50114,0.1,1,0.38421,0.40926,0.79347,82,2.43053,-0.32,-0.15869,0.34245,5,1D2U,2.0,True,0.199,5,True,right,0.16705,0.437,0.6784,0.2414,1.4367,2.0034,0.5667,A,-0.1
83,0.50114,0.1,1,0.3675,0.3675,0.49279,83,2.347,0.24,0.11693,0.61807,5,2D1U,1.0,True,0.11,8,True,left,-0.25057,0.42,0.9356,0.5156,1.6026,1.7526,0.15,A,-0.1
84,0.50114,1.2,2,0.24222,0.40091,0.8937,84,2.39712,-0.28,-0.14199,0.35915,5,1D2U,1.0,True,0.199,6,True,left,0.08352,1.6623,1.9124,0.2501,0.2456,0.7207,0.4752,A,-0.105
85,0.50114,0.1,2,0.25057,0.31739,0.42597,85,2.44724,0.9,0.45103,0.95217,5,lapse_rate,2.0,True,0.109,0,False,right,-0.08352,1.1344,1.9846,0.8502,0.3432,0.6591,0.316,A,-0.1
86,0.50114,1.2,1,0.22551,0.27563,0.77677,86,2.39712,0.24,0.11693,0.61807,5,2D1U,2.0,False,0.233,8,True,right,0.16705,0.278,0.7862,0.5083,1.528,2.0861,0.5581,A,-0.105
87,0.50114,1.2,2,0.33409,0.33409,0.87699,87,2.40546,-0.28,-0.14199,0.35915,5,1D2U,1.0,True,0.173,6,True,left,-0.25057,1.5743,1.8239,0.2496,0.5076,0.6488,0.1412,A,-0.105
88,0.50114,0.1,2,0.3675,0.24222,0.44267,88,1.83751,-0.44,-0.21716,0.28398,5,lapse_rate,1.0,True,0.34,0,False,left,0.08352,1.3526,1.5361,0.1834,0.3779,0.8605,0.4826,A,-0.1
89,0.50114,0.1,2,0.30904,0.44267,0.53455,89,2.07138,-0.44,-0.21716,0.28398,5,lapse_rate,1.0,True,0.282,0,False,left,-0.08352,1.3012,1.4846,0.1833,0.4019,0.7183,0.3165,A,-0.1
90,0.50114,1.2,1,0.45103,0.30068,0.66819,90,2.56417,0.28,0.14199,0.64313,5,2D1U,2.0,False,0.212,9,True,right,0.16705,0.498,1.0308,0.5328,1.6637,2.2224,0.5586,A,-0.105
91,0.50114,0.1,1,0.43432,0.21716,0.45938,91,1.98785,-0.24,-0.11693,0.37585,5,1D2U,1.0,False,0.244,6,False,left,-0.25057,0.4819,0.7573,0.2754,1.3901,1.5403,0.1502,A,-0.1
92,0.50114,0.1,2,0.41762,0.40091,0.7183,92,2.6978,0.32,0.15869,0.65983,5,2D1U,1.0,False,0.409,9,False,left,0.08352,1.6737,2.2321,0.5584,0.4245,0.9065,0.482,A,-0.1
93,0.50114,0.1,1,0.25057,0.31739,0.63478,93,2.06303,-0.28,-0.14199,0.35915,5,1D2U,2.0,True,0.153,7,True,right,-0.08352,0.2984,0.5565,0.2581,1.2816,1.5984,0.3169,A,-0.1
94,0.50114,0.1,1,0.39256,0.40926,0.58466,94,2.83979,0.9,0.45103,0.95217,5,lapse_rate,1.0,True,0.475,0,False,left,0.16705,0.4426,1.2932,0.8506,1.8433,2.4098,0.5665,A,-0.1
95,0.50114,0.1,1,0.30068,0.37585,0.83523,95,2.37205,-0.28,-0.14199,0.35915,5,1D2U,1.0,False,0.112,7,True,left,-0.25057,0.3449,0.604,0.2591,1.6119,1.763,0.151,A,-0.1
96,0.50114,1.2,2,0.27563,0.3675,0.53455,96,2.35536,0.36,0.18375,0.67654,5,2D1U,2.0,True,0.198,9,False,right,0.08352,1.3434,1.9103,0.567,0.285,0.7601,0.4751,A,-0.105
97,0.50114,1.2,1,0.35915,0.44267,0.85194,97,2.83144,0.36,0.18375,0.67654,5,2D1U,2.0,False,0.114,9,False,right,-0.08352,0.4096,0.9762,0.5666,1.9178,2.226,0.3082,A,-0.105
98,0.50114,1.2,1,0.40091,0.21716,0.86864,98,2.68945,0.4,0.20046,0.7016,5,2D1U,1.0,True,0.253,9,False,left,0.16705,0.4512,1.0428,0.5915,1.8762,2.4344,0.5582,A,-0.105
99,0.50114,1.2,2,0.23387,0.38421,0.5262,99,1.98787,-0.32,-0.15869,0.34245,5,1D2U,1.0,True,0.218,7,False,left,-0.25057,1.1225,1.356,0.2334,0.4058,0.5473,0.1415,A,-0.105
100,0.50114,0.1,1,0.20881,0.33409,0.7183,100,2.10479,-0.32,-0.15869,0.34245,5,1D2U,2.0,True,0.161,7,False,right,0.08352,0.2621,0.5037,0.2416,1.2287,1.7117,0.4831,A,-0.1
101,0.50114,0.1,2,0.44267,0.37585,0.79347,101,2.47228,-0.28,-0.14199,0.35915,5,1D2U,1.0,True,0.159,8,True,left,-0.08352,1.6932,1.9515,0.2583,0.535,0.8511,0.316,A,-0.1
102,0.50114,0.1,2,0.30904,0.40926,0.81853,102,2.73957,0.4,0.20046,0.7016,5,2D1U,2.0,True,0.11,9,False,right,0.16705,1.7089,2.3089,0.6,0.2758,0.8415,0.5657,A,-0.1
103,0.50114,0.1,1,0.44267,0.25892,0.59302,103,2.47229,0.36,0.18375,0.67654,5,2D1U,1.0,True,0.176,10,True,left,-0.25057,0.4911,1.0656,0.5745,1.8326,1.9825,0.1499,A,-0.1
104,0.50114,1.2,1,0.39256,0.29233,0.84359,104,2.70616,0.36,0.18375,0.67654,5,2D1U,1.0,True,0.195,10,True,left,0.08352,0.4385,1.0064,0.5679,1.8557,2.3305,0.4748,A,-0.105
105,0.50114,1.2,2,0.32574,0.25892,0.66819,105,2.11314,-0.28,-0.14199,0.35915,5,1D2U,1.0,True,0.232,8,True,left,-0.08352,1.4367,1.6867,0.25,0.4117,0.72,0.3083,A,-0.105
106,0.50114,1.2,1,0.28398,0.30904,0.63478,106,2.38877,0.32,0.15869,0.65983,5,2D1U,1.0,True,0.26,10,False,left,0.16705,0.3298,0.879,0.5492,1.4796,2.0378,0.5582,A,-0.105
107,0.50114,1.2,2,0.40926,0.35915,0.81018,107,2.45558,-0.24,-0.11693,0.37585,5,1D2U,1.0,True,0.113,8,False,left,-0.25057,1.5819,1.8492,0.2672,0.5819,0.7237,0.1418,A,-0.105
108,0.50114,0.1,1,0.44267,0.25892,0.44267,108,2.30523,0.32,0.15869,0.65983,5,2D1U,1.0,True,0.228,10,False,left,0.08352,0.4903,1.0486,0.5582,1.4988,1.982,0.4832,A,-0.1
109,0.50114,0.1,2,0.20046,0.20881,0.63478,109,1.92104,-0.24,-0.11693,0.37585,5,1D2U,1.0,True,0.242,8,False,left,-0.08352,1.2934,1.568,0.2747,0.2926,0.6098,0.3172,A,-0.1
110,0.50114,0.1,1,0.27563,0.26727,0.47608,110,2.16325,0.28,0.14199,0.64313,5,2D1U,1.0,True,0.192,10,False,left,0.16705,0.3233,0.8647,0.5414,1.3067,1.8733,0.5666,A,-0.1
111,0.50114,0.1,2,0.41762,0.37585,0.63478,111,2.3303,-0.2,-0.10023,0.40091,5,1D2U,1.0,True,0.112,8,False,left,-0.25057,1.4226,1.7226,0.3,0.5896,0.7387,0.1492,A,-0.1
112,0.50114,1.2,1,0.40926,0.21716,0.86029,112,2.63098,0.28,0.14199,0.64313,5,2D1U,1.0,True,0.33,10,False,left,0.08352,0.4608,0.9939,0.5331,1.8614,2.3362,0.4748,A,-0.105
113,0.50114,1.2,1,0.30904,0.33409,0.53455,113,2.29689,0.24,0.11693,0.61807,5,2D1U,1.0,True,0.38,10,False,left,-0.08352,0.3569,0.8648,0.508,1.49,1.7986,0.3086,A,-0.105
114,0.50114,1.2,1,0.31739,0.37585,0.50114,114,2.09643,-0.2,-0.10023,0.40091,5,1D2U,2.0,True,0.127,8,False,right,0.16705,0.3638,0.6555,0.2916,1.1217,1.6806,0.5589,A,-0.105
115,0.50114,1.2,2,0.26727,0.21716,0.7016,115,2.10479,-0.16,-0.08352,0.41762,5,1D2U,2.0,False,0.233,8,False,right,-0.25057,1.3346,1.6429,0.3083,0.4425,0.5841,0.1416,A,-0.105
116,0.50114,0.1,1,0.20881,0.37585,0.65983,116,2.14654,-0.2,-0.10023,0.40091,5,1D2U,2.0,True,0.11,9,True,right,0.08352,0.2608,0.5609,0.3001,1.2276,1.711,0.4833,A,-0.1
117,0.50114,0.1,2,0.37585,0.25057,0.87699,117,2.40546,-0.2,-0.10023,0.40091,5,1D2U,1.0,True,0.523,9,True,left,-0.08352,1.7106,2.0099,0.2993,0.469,0.7855,0.3165,A,-0.1
118,0.50114,0.1,1,0.32574,0.33409,0.56796,118,2.347,0.24,0.11693,0.61807,5,2D1U,1.0,True,0.203,10,False,left,0.16705,0.378,0.8942,0.5162,1.4279,1.9952,0.5672,A,-0.1
119,0.50114,0.1,2,0.25057,0.22551,0.57631,119,1.97115,-0.16,-0.08352,0.41762,5,1D2U,1.0,True,0.297,10,True,left,-0.25057,1.1966,1.5133,0.3167,0.4215,0.5715,0.15,A,-0.1
120,0.50114,1.2,1,0.26727,0.38421,0.55125,120,2.12149,-0.16,-0.08352,0.41762,5,1D2U,2.0,True,0.113,10,True,right,0.08352,0.3142,0.6231,0.3089,1.1813,1.6564,0.4751,A,-0.105
121,0.50114,1.2,2,0.33409,0.21716,0.60972,121,2.26348,0.2,0.10023,0.60137,5,2D1U,2.0,True,0.198,10,False,right,-0.08352,1.3887,1.8804,0.4916,0.4213,0.7304,0.3091,A,-0.105
122,0.50114,1.2,1,0.22551,0.30904,0.41762,122,1.89598,-0.12,-0.05847,0.44267,5,1D2U,2.0,True,0.215,10,False,right,0.16705,0.2723,0.6057,0.3334,0.9883,1.5473,0.559,A,-0.105
123,0.50114,1.2,1,0.21716,0.28398,0.59302,123,2.19667,0.2,0.10023,0.60137,5,2D1U,1.0,True,0.141,10,False,left,-0.25057,0.2631,0.7539,0.4908,1.5213,1.6629,0.1416,A,-0.105
124,0.50114,0.1,1,0.37585,0.25057,0.46773,124,2.1716,0.16,0.08352,0.57631,5,2D1U,2.0,False,0.275,10,False,right,0.08352,0.4282,0.9024,0.4742,1.3776,1.8616,0.484,A,-0.1
125,0.50114,0.1,1,0.43432,0.37585,0.43432,125,2.347,0.2,0.10023,0.60137,5,2D1U,1.0,True,0.112,11,True,left,-0.08352,0.4864,0.9867,0.5003,1.5116,1.8284,0.3167,A,-0.1
126,0.50114,0.1,2,0.44267,0.37585,0.60972,126,2.37205,-0.12,-0.05847,0.44267,5,1D2U,2.0,False,0.217,10,False,right,0.16705,1.6315,1.9727,0.3412,0.406,0.9722,0.5662,A,-0.1
127,0.50114,0.1,2,0.42597,0.32574,0.55961,127,2.23008,-0.16,-0.08352,0.41762,5,1D2U,2.0,False,0.201,11,True,right,-0.25057,1.3613,1.6785,0.3172,0.6031,0.7532,0.1501,A,-0.1
128,0.50114,1.2,2,0.35915,0.3675,0.74336,128,2.57252,0.2,0.10023,0.60137,5,2D1U,2.0,True,0.112,11,True,right,0.08352,1.6321,2.1246,0.4925,0.3661,0.8402,0.4742,A,-0.105
129,0.50114,1.2,1,0.37585,0.3508,0.73501,129,2.36371,-0.2,-0.10023,0.40091,5,1D2U,2.0,True,0.177,11,False,right,-0.08352,0.4217,0.7135,0.2918,1.5385,1.8468,0.3083,A,-0.105
130,0.50114,1.2,1,0.24222,0.33409,0.46773,130,2.12149,0.16,0.08352,0.57631,5,2D1U,2.0,False,0.149,12,True,right,0.16705,0.2944,0.7611,0.4667,1.1948,1.7528,0.558,A,-0.105
131,0.50114,1.2,1,0.40091,0.27563,0.64313,131,2.22172,-0.2,-0.10023,0.40091,5,1D2U,1.0,False,0.114,11,False,left,-0.25057,0.4477,0.739,0.2913,1.5557,1.697,0.1412,A,-0.105
132,0.50114,0.1,1,0.28398,0.32574,0.63478,132,2.34701,0.2,0.10023,0.60137,5,2D1U,1.0,True,0.113,13,True,left,0.08352,0.335,0.8339,0.4989,1.4764,1.9599,0.4835,A,-0.1
133,0.50114,0.1,1,0.41762,0.25057,0.60137,133,2.37207,0.2,0.10023,0.60137,5,2D1U,2.0,False,0.129,13,True,right,-0.08352,0.4635,0.9638,0.5004,1.6549,1.9721,0.3172,A,-0.1
134,0.50114,0.1,2,0.28398,0.37585,0.62642,134,2.16324,-0.24,-0.11693,0.37585,5,1D2U,1.0,True,0.196,11,False,left,0.16705,1.4895,1.7649,0.2754,0.2484,0.8152,0.5668,A,-0.1
135,0.50114,0.1,1,0.34245,0.35915,0.75171,135,2.57252,0.24,0.11693,0.61807,5,2D1U,1.0,True,0.113,13,False,left,-0.25057,0.3885,0.9048,0.5163,1.8304,1.9808,0.1503,A,-0.1
136,0.50114,1.2,2,0.32574,0.3675,0.66819,136,2.48064,0.24,0.11693,0.61807,5,2D1U,2.0,True,0.171,13,False,right,0.08352,1.528,2.0362,0.5082,0.3362,0.8114,0.4751,A,-0.105
137,0.50114,1.2,1,0.34245,0.40091,0.79347,137,2.41382,-0.24,-0.11693,0.37585,5,1D2U,2.0,True,0.112,11,False,right,-0.08352,0.3893,0.656,0.2667,1.5395,1.8469,0.3074,A,-0.105
138,0.50114,1.2,2,0.3675,0.42597,0.47608,138,2.37206,0.2,0.10023,0.60137,5,2D1U,1.0,False,0.184,14,True,left,0.16705,1.4138,1.905,0.4912,0.3302,0.8877,0.5575,A,-0.105
139,0.50114,1.2,2,0.20881,0.21716,0.87699,139,2.20501,-0.2,-0.10023,0.40091,5,1D2U,2.0,False,0.242,12,True,right,-0.25057,1.4518,1.7438,0.292,0.3857,0.5272,0.1415,A,-0.105
140,0.50114,0.1,1,0.27563,0.42597,0.49279,140,2.3136,0.24,0.11693,0.61807,5,2D1U,2.0,False,0.114,15,True,right,0.08352,0.3289,0.8447,0.5159,1.3448,1.8285,0.4837,A,-0.1
141,0.50114,0.1,2,0.3508,0.43432,0.80182,141,2.46393,-0.24,-0.11693,0.37585,5,1D2U,1.0,True,0.109,13,True,left,-0.08352,1.6049,1.8801,0.2753,0.4381,0.7542,0.316,A,-0.1
142,0.50114,0.1,2,0.37585,0.39256,0.45938,142,2.10478,-0.24,-0.11693,0.37585,5,1D2U,2.0,False,0.226,13,True,right,0.16705,1.4178,1.6928,0.275,0.3426,0.909,0.5663,A,-0.1
143,0.50114,0.1,1,0.38421,0.3675,0.59302,143,2.20502,-0.28,-0.14199,0.35915,5,1D2U,1.0,False,0.109,13,False,left,-0.25057,0.4354,0.6938,0.2584,1.4603,1.6102,0.1499,A,-0.1
144,0.50114,1.2,1,0.20881,0.30904,0.5262,144,2.18832,0.28,0.14199,0.64313,5,2D1U,1.0,True,0.178,15,False,left,0.08352,0.2598,0.7931,0.5334,1.3266,1.8014,0.4748,A,-0.105
145,0.50114,1.2,1,0.3508,0.42597,0.48444,145,2.40548,0.28,0.14199,0.64313,5,2D1U,1.0,True,0.112,15,False,left,-0.08352,0.3987,0.9315,0.5328,1.5073,1.8154,0.3081,A,-0.105
146,0.50114,1.2,2,0.42597,0.23387,0.65983,146,2.43888,0.24,0.11693,0.61807,5,2D1U,2.0,True,0.27,16,True,right,0.16705,1.6597,2.1676,0.508,0.3932,0.952,0.5588,A,-0.105
147,0.50114,1.2,1,0.30068,0.31739,0.83523,147,2.57251,0.24,0.11693,0.61807,5,2D1U,1.0,True,0.167,16,True,left,-0.25057,0.3476,0.8559,0.5084,1.8639,2.006,0.142,A,-0.105
148,0.50114,0.1,1,0.41762,0.35915,0.8937,148,2.51406,-0.32,-0.15869,0.34245,5,1D2U,2.0,True,0.193,13,False,right,0.08352,0.4645,0.7056,0.2412,1.6062,2.0895,0.4833,A,-0.1
149,0.50114,0.1,1,0.34245,0.39256,0.46773,149,2.04633,-0.32,-0.15869,0.34245,5,1D2U,2.0,True,0.113,13,False,right,-0.08352,0.3946,0.6369,0.2423,1.1948,1.5115,0.3167,A,-0.1
150,0.50114,0.1,2,0.41762,0.29233,0.56796,150,2.1382,-0.28,-0.14199,0.35915,5,1D2U,1.0,True,0.329,14,True,left,0.16705,1.5656,1.8242,0.2586,0.3823,0.9488,0.5665,A,-0.1
151,0.50114,0.1,2,0.40926,0.33409,0.5262,151,2.37206,0.2,0.10023,0.60137,5,2D1U,2.0,True,0.475,16,False,right,-0.25057,1.3056,1.8061,0.5006,0.5805,0.7315,0.1509,A,-0.1
152,0.50114,1.2,1,0.40926,0.41762,0.70995,152,2.39712,-0.28,-0.14199,0.35915,5,1D2U,2.0,True,0.113,14,True,right,0.08352,0.4557,0.7061,0.2504,1.4228,1.8975,0.4747,A,-0.105
153,0.50114,1.2,1,0.31739,0.28398,0.8937,153,2.59758,0.2,0.10023,0.60137,5,2D1U,2.0,False,0.11,16,False,right,-0.08352,0.3705,0.8615,0.491,1.8448,2.1537,0.3089,A,-0.105
154,0.50114,1.2,2,0.23387,0.43432,0.80182,154,2.58922,0.24,0.11693,0.61807,5,2D1U,2.0,True,0.111,17,True,right,0.16705,1.6059,2.114,0.5081,0.1979,0.7558,0.5578,A,-0.105
155,0.50114,1.2,1,0.24222,0.23387,0.61807,155,2.21337,0.24,0.11693,0.61807,5,2D1U,1.0,True,0.228,17,True,left,-0.25057,0.2918,0.8,0.5082,1.5914,1.7332,0.1418,A,-0.105
156,0.50114,0.1,2,0.40091,0.30904,0.55961,156,2.14655,-0.24,-0.11693,0.37585,5,1D2U,1.0,True,0.22,14,False,left,0.08352,1.5031,1.7778,0.2747,0.4103,0.8942,0.4839,A,-0.1
157,0.50114,0.1,1,0.25057,0.23387,0.5262,157,2.11315,0.2,0.10023,0.60137,5,2D1U,1.0,True,0.209,18,True,left,-0.08352,0.2981,0.7978,0.4997,1.4145,1.7307,0.3162,A,-0.1
158,0.50114,0.1,2,0.37585,0.20881,0.50114,158,2.18831,0.2,0.10023,0.60137,5,2D1U,1.0,False,0.295,18,True,left,0.16705,1.4558,1.9563,0.5005,0.3385,0.9057,0.5672,A,-0.1
159,0.50114,0.1,2,0.21716,0.22551,0.41762,159,1.73728,-0.24,-0.11693,0.37585,5,1D2U,1.0,True,0.232,14,False,left,-0.25057,1.0062,1.2807,0.2745,0.3895,0.5398,0.1503,A,-0.1
160,0.50114,1.2,2,0.33409,0.40926,0.51784,160,2.3804,0.24,0.11693,0.61807,5,2D1U,1.0,False,0.124,19,True,left,0.08352,1.3848,1.8926,0.5078,0.3427,0.8174,0.4748,A,-0.105
161,0.50114,1.2,1,0.30068,0.43432,0.58466,161,2.22171,-0.2,-0.10023,0.40091,5,1D2U,1.0,False,0.44,14,False,left,-0.08352,0.3455,0.6373,0.2918,1.3119,1.6203,0.3084,A,-0.105
162,0.50114,1.2,2,0.30904,0.3508,0.80182,162,2.60593,0.28,0.14199,0.64313,5,2D1U,1.0,False,0.194,19,False,left,0.16705,1.6847,2.218,0.5333,0.2758,0.8344,0.5587,A,-0.105
163,0.50114,1.2,2,0.30904,0.20046,0.64313,163,2.02962,-0.24,-0.11693,0.37585,5,1D2U,1.0,True,0.234,15,True,left,-0.25057,1.3185,1.5856,0.2671,0.4853,0.6274,0.1421,A,-0.105
164,0.50114,0.1,1,0.38421,0.40091,0.56796,164,2.51405,0.32,0.15869,0.65983,5,2D1U,1.0,True,0.114,19,False,left,0.08352,0.4321,0.9902,0.5581,1.5654,2.0483,0.4829,A,-0.1
165,0.50114,0.1,2,0.35915,0.27563,0.87699,165,2.38876,-0.24,-0.11693,0.37585,5,1D2U,1.0,True,0.166,15,True,left,-0.08352,1.6928,1.9669,0.2741,0.4507,0.7675,0.3168,A,-0.1
166,0.50114,0.1,1,0.27563,0.41762,0.40926,166,2.26348,0.32,0.15869,0.65983,5,2D1U,1.0,True,0.164,19,False,left,0.16705,0.3226,0.8801,0.5575,1.2554,1.8223,0.5669,A,-0.1
167,0.50114,0.1,1,0.24222,0.30904,0.7183,167,2.41383,0.28,0.14199,0.64313,5,2D1U,1.0,True,0.122,20,True,left,-0.25057,0.2926,0.8341,0.5415,1.7258,1.8755,0.1498,A,-0.1
168,0.50114,1.2,2,0.24222,0.41762,0.5429,168,2.10479,-0.2,-0.10023,0.40091,5,1D2U,1.0,True,0.209,16,True,left,0.08352,1.3122,1.6044,0.2921,0.2459,0.7211,0.4752,A,-0.105
169,0.50114,1.2,1,0.20881,0.42597,0.44267,169,1.9795,-0.2,-0.10023,0.40091,5,1D2U,1.0,False,0.197,16,True,left,-0.08352,0.2601,0.5515,0.2914,1.0848,1.3932,0.3084,A,-0.105
170,0.50114,1.2,2,0.30068,0.26727,0.50949,170,2.22171,0.28,0.14199,0.64313,5,2D1U,2.0,True,0.232,20,True,right,0.16705,1.3817,1.915,0.5333,0.2649,0.8228,0.5579,A,-0.105
171,0.50114,1.2,2,0.29233,0.27563,0.81853,171,2.26348,-0.24,-0.11693,0.37585,5,1D2U,2.0,False,0.644,17,True,right,-0.25057,1.4732,1.7396,0.2664,0.465,0.6065,0.1415,A,-0.105
172,0.50114,0.1,1,0.39256,0.24222,0.50949,172,2.26348,0.24,0.11693,0.61807,5,2D1U,1.0,True,0.357,20,False,left,0.08352,0.442,0.9594,0.5174,1.4753,1.9587,0.4834,A,-0.1
173,0.50114,0.1,1,0.42597,0.23387,0.47608,173,2.25513,0.24,0.11693,0.61807,5,2D1U,2.0,False,0.225,20,False,right,-0.08352,0.4721,0.9886,0.5165,1.556,1.8718,0.3158,A,-0.1
174,0.50114,0.1,2,0.3675,0.37585,0.46773,174,2.07137,-0.28,-0.14199,0.35915,5,1D2U,1.0,True,0.217,17,False,left,0.16705,1.4181,1.6762,0.2581,0.3348,0.9006,0.5658,A,-0.1
175,0.50114,0.1,2,0.3675,0.34245,0.7183,175,2.57252,0.28,0.14199,0.64313,5,2D1U,2.0,True,0.358,21,True,right,-0.25057,1.461,2.0023,0.5413,0.544,0.694,0.15,A,-0.1
176,0.50114,1.2,1,0.38421,0.41762,0.7016,176,2.36372,-0.28,-0.14199,0.35915,5,1D2U,2.0,True,0.151,17,False,right,0.08352,0.4304,0.681,0.2505,1.3888,1.8641,0.4753,A,-0.105
177,0.50114,1.2,2,0.39256,0.25057,0.50949,177,2.29689,0.28,0.14199,0.64313,5,2D1U,2.0,True,0.288,21,True,right,-0.08352,1.3463,1.8798,0.5336,0.4796,0.7872,0.3076,A,-0.105
178,0.50114,1.2,1,0.29233,0.20046,0.47608,178,2.08808,0.24,0.11693,0.61807,5,2D1U,2.0,False,0.289,22,True,right,0.16705,0.34,0.8478,0.5078,1.2894,1.8479,0.5584,A,-0.105
179,0.50114,1.2,1,0.35915,0.3675,0.86864,179,2.47228,-0.24,-0.11693,0.37585,5,1D2U,1.0,False,0.163,18,True,left,-0.25057,0.4098,0.6759,0.2661,1.7177,1.8595,0.1419,A,-0.105
180,0.50114,0.1,2,0.40926,0.40091,0.46773,180,2.42217,0.28,0.14199,0.64313,5,2D1U,2.0,True,0.125,23,True,right,0.08352,1.4206,1.9624,0.5419,0.4206,0.9041,0.4834,A,-0.1
181,0.50114,0.1,2,0.31739,0.30904,0.5429,181,2.3136,0.28,0.14199,0.64313,5,2D1U,2.0,True,0.113,23,True,right,-0.08352,1.3157,1.8571,0.5414,0.4071,0.7239,0.3168,A,-0.1
182,0.50114,0.1,2,0.37585,0.40091,0.81018,182,2.70615,0.24,0.11693,0.61807,5,2D1U,2.0,True,0.132,24,True,right,0.16705,1.7625,2.2791,0.5166,0.337,0.9039,0.567,A,-0.1
183,0.50114,0.1,1,0.41762,0.44267,0.60972,183,2.58922,0.24,0.11693,0.61807,5,2D1U,1.0,True,0.113,24,True,left,-0.25057,0.4625,0.9792,0.5168,1.7624,1.9128,0.1504,A,-0.1
184,0.50114,1.2,2,0.3675,0.26727,0.76841,184,2.26347,-0.28,-0.14199,0.35915,5,1D2U,1.0,True,0.338,19,True,left,0.08352,1.6642,1.9139,0.2497,0.3725,0.8468,0.4743,A,-0.105
185,0.50114,1.2,2,0.34245,0.32574,0.5429,185,2.3136,0.2,0.10023,0.60137,5,2D1U,2.0,True,0.111,24,False,right,-0.08352,1.3354,1.8266,0.4912,0.4355,0.7444,0.3089,A,-0.105
186,0.50114,1.2,2,0.20046,0.24222,0.46773,186,2.01292,0.2,0.10023,0.60137,5,2D1U,2.0,True,0.303,24,False,right,0.16705,1.244,1.7356,0.4916,0.1683,0.7265,0.5582,A,-0.105
187,0.50114,1.2,1,0.22551,0.39256,0.87699,187,2.35535,-0.28,-0.14199,0.35915,5,1D2U,1.0,False,0.239,19,True,left,-0.25057,0.2787,0.5285,0.2497,1.5787,1.72,0.1413,A,-0.105
188,0.50114,0.1,2,0.43432,0.34245,0.5429,188,2.16326,-0.32,-0.15869,0.34245,5,1D2U,1.0,True,0.245,19,False,left,0.08352,1.5192,1.761,0.2418,0.4443,0.9269,0.4826,A,-0.1
189,0.50114,0.1,2,0.3508,0.38421,0.58466,189,2.16326,-0.32,-0.15869,0.34245,5,1D2U,1.0,True,0.182,19,False,left,-0.08352,1.3876,1.6292,0.2416,0.4376,0.7541,0.3166,A,-0.1
190,0.50114,0.1,1,0.33409,0.34245,0.73501,190,2.489,0.16,0.08352,0.57631,5,2D1U,2.0,False,0.22,24,False,right,0.16705,0.3854,0.8603,0.4749,1.5603,2.1268,0.5665,A,-0.1
191,0.50114,0.1,2,0.24222,0.3508,0.76006,191,2.45559,0.2,0.10023,0.60137,5,2D1U,2.0,True,0.112,25,True,right,-0.25057,1.3767,1.8752,0.4985,0.4176,0.5674,0.1497,A,-0.1
192,0.50114,1.2,2,0.25892,0.23387,0.73501,192,2.33031,0.2,0.10023,0.60137,5,2D1U,2.0,True,0.275,25,True,right,0.08352,1.5282,2.02,0.4918,0.2703,0.7452,0.4749,A,-0.105
193,0.50114,1.2,1,0.43432,0.20881,0.85194,193,2.35536,-0.28,-0.14199,0.35915,5,1D2U,2.0,True,0.205,20,True,right,-0.08352,0.4813,0.7315,0.2502,1.6732,1.9814,0.3083,A,-0.105
194,0.50114,1.2,2,0.32574,0.27563,0.58466,194,2.04632,-0.28,-0.14199,0.35915,5,1D2U,1.0,True,0.275,20,True,left,0.16705,1.4849,1.735,0.2501,0.2936,0.8521,0.5585,A,-0.105
195,0.50114,1.2,1,0.21716,0.30068,0.5262,195,2.12149,0.16,0.08352,0.57631,5,2D1U,1.0,True,0.159,26,True,left,-0.25057,0.2683,0.7349,0.4666,1.4348,1.5764,0.1417,A,-0.105
196,0.50114,0.1,2,0.40091,0.23387,0.51784,196,2.23007,0.16,0.08352,0.57631,5,2D1U,1.0,False,0.217,26,True,left,0.08352,1.4561,1.9315,0.4754,0.4063,0.8887,0.4825,A,-0.1
197,0.50114,0.1,2,0.30904,0.3508,0.40091,197,1.93774,-0.24,-0.11693,0.37585,5,1D2U,1.0,True,0.148,20,False,left,-0.08352,1.1704,1.4453,0.275,0.4034,0.7204,0.317,A,-0.1
198,0.50114,0.1,1,0.32574,0.30904,0.59302,198,2.33031,0.2,0.10023,0.60137,5,2D1U,1.0,True,0.179,27,True,left,0.16705,0.3715,0.8706,0.4992,1.4299,1.9964,0.5666,A,-0.1
199,0.50114,0.1,1,0.23387,0.30904,0.86864,199,2.28854,-0.24,-0.11693,0.37585,5,1D2U,1.0,False,0.2,20,False,left,-0.25057,0.2806,0.5554,0.2749,1.5974,1.7467,0.1493,A,-0.1
200,0.50114,1.2,2,0.27563,0.23387,0.58466,200,2.19667,0.2,0.10023,0.60137,5,2D1U,2.0,True,0.314,27,True,right,0.08352,1.3898,1.8813,0.4915,0.2814,0.7564,0.475,A,-0.105
201,0.50114,1.2,1,0.27563,0.33409,0.5262,201,1.99621,-0.28,-0.14199,0.35915,5,1D2U,2.0,True,0.235,21,True,right,-0.08352,0.3221,0.5716,0.2495,1.1884,1.4965,0.3081,A,-0.105
202,0.50114,1.2,2,0.30904,0.40926,0.65983,202,2.23842,-0.28,-0.14199,0.35915,5,1D2U,1.0,True,0.124,21,True,left,0.16705,1.5446,1.7946,0.2499,0.2779,0.8356,0.5577,A,-0.105
203,0.50114,1.2,1,0.43432,0.29233,0.56796,203,2.37206,0.16,0.08352,0.57631,5,2D1U,1.0,True,0.342,28,True,left,-0.25057,0.4794,0.9465,0.467,1.6881,1.8296,0.1415,A,-0.105
204,0.50114,0.1,2,0.25057,0.33409,0.50114,204,2.16325,0.16,0.08352,0.57631,5,2D1U,2.0,True,0.168,28,True,right,0.08352,1.2896,1.7643,0.4747,0.256,0.7393,0.4833,A,-0.1
205,0.50114,0.1,2,0.32574,0.23387,0.7016,205,2.1382,-0.24,-0.11693,0.37585,5,1D2U,1.0,True,0.227,22,True,left,-0.08352,1.4786,1.7537,0.2751,0.412,0.7289,0.317,A,-0.1
206,0.50114,0.1,1,0.40091,0.42597,0.55125,206,2.25512,-0.24,-0.11693,0.37585,5,1D2U,2.0,True,0.115,22,True,right,0.16705,0.4479,0.7234,0.2755,1.2396,1.8068,0.5671,A,-0.1
207,0.50114,0.1,1,0.40926,0.39256,0.66819,207,2.53076,0.12,0.05847,0.55961,5,2D1U,1.0,True,0.114,28,False,left,-0.25057,0.4546,0.9133,0.4588,1.7542,1.9046,0.1504,A,-0.1
208,0.50114,1.2,1,0.27563,0.30068,0.69324,208,2.3303,0.12,0.05847,0.55961,5,2D1U,1.0,True,0.2,28,False,left,0.08352,0.3284,0.7782,0.4499,1.4777,1.9533,0.4756,A,-0.105
209,0.50114,1.2,2,0.42597,0.20046,0.61807,209,2.28854,0.08,0.04176,0.5429,5,2D1U,1.0,False,0.165,28,False,left,-0.08352,1.4942,1.9272,0.433,0.5222,0.8266,0.3045,A,-0.105
210,0.50114,1.2,1,0.28398,0.43432,0.7183,210,2.33865,-0.2,-0.10023,0.40091,5,1D2U,2.0,True,0.112,22,False,right,0.16705,0.3324,0.6236,0.2912,1.3076,1.8658,0.5582,A,-0.105
211,0.50114,1.2,2,0.28398,0.23387,0.41762,211,1.83752,-0.2,-0.10023,0.40091,5,1D2U,1.0,True,0.179,22,False,left,-0.25057,1.0633,1.3555,0.2922,0.4555,0.5971,0.1417,A,-0.105
212,0.50114,0.1,2,0.37585,0.25892,0.80182,212,2.35535,-0.16,-0.08352,0.41762,5,1D2U,1.0,True,0.337,22,False,left,0.08352,1.7198,2.0365,0.3167,0.3866,0.8696,0.483,A,-0.1
213,0.50114,0.1,2,0.43432,0.31739,0.41762,213,2.23008,0.12,0.05847,0.55961,5,2D1U,2.0,True,0.16,29,True,right,-0.08352,1.3094,1.768,0.4586,0.5261,0.8426,0.3165,A,-0.1
214,0.50114,0.1,1,0.30068,0.25892,0.64313,214,2.26348,0.12,0.05847,0.55961,5,2D1U,2.0,False,0.264,29,True,right,0.16705,0.3473,0.8058,0.4585,1.4143,1.9807,0.5664,A,-0.1
215,0.50114,0.1,2,0.25892,0.30904,0.76841,215,2.25513,-0.16,-0.08352,0.41762,5,1D2U,1.0,True,0.112,22,False,left,-0.25057,1.3991,1.7158,0.3167,0.4322,0.5827,0.1505,A,-0.1
216,0.50114,1.2,2,0.31739,0.20881,0.50949,216,2.11314,0.16,0.08352,0.57631,5,2D1U,1.0,False,0.221,29,False,left,0.08352,1.356,1.8228,0.4668,0.3228,0.7975,0.4748,A,-0.105
217,0.50114,1.2,1,0.41762,0.42597,0.87699,217,2.66439,-0.12,-0.05847,0.44267,5,1D2U,2.0,True,0.112,22,False,right,-0.08352,0.4637,0.7968,0.3331,1.764,2.072,0.3081,A,-0.105
218,0.50114,1.2,2,0.30904,0.28398,0.64313,218,2.17996,-0.12,-0.05847,0.44267,5,1D2U,1.0,True,0.247,22,False,left,0.16705,1.5276,1.8608,0.3332,0.2772,0.8352,0.5579,A,-0.105
219,0.50114,1.2,2,0.23387,0.31739,0.56796,219,2.07974,-0.08,-0.04176,0.45938,5,1D2U,2.0,False,0.113,22,False,right,-0.25057,1.1645,1.5148,0.3503,0.4065,0.548,0.1415,A,-0.105
220,0.50114,0.1,2,0.25057,0.3508,0.86864,220,2.57252,0.2,0.10023,0.60137,5,2D1U,2.0,True,0.123,29,False,right,0.08352,1.6609,2.1606,0.4997,0.261,0.7432,0.4822,A,-0.1
221,0.50114,0.1,2,0.24222,0.39256,0.8937,221,2.47229,-0.12,-0.05847,0.44267,5,1D2U,2.0,False,0.112,23,True,right,-0.08352,1.5915,1.9331,0.3416,0.3329,0.6502,0.3172,A,-0.1
222,0.50114,0.1,2,0.34245,0.30068,0.64313,222,2.38877,0.2,0.10023,0.60137,5,2D1U,1.0,False,0.238,29,False,left,0.16705,1.5675,2.0676,0.5001,0.3082,0.8753,0.5671,A,-0.1
223,0.50114,0.1,1,0.3508,0.20046,0.58466,223,2.25513,0.24,0.11693,0.61807,5,2D1U,1.0,True,0.329,29,False,left,-0.25057,0.401,0.9177,0.5166,1.6765,1.826,0.1494,A,-0.1
224,0.50114,1.2,1,0.44267,0.44267,0.50949,224,2.51404,0.24,0.11693,0.61807,5,2D1U,2.0,False,0.111,29,False,right,0.08352,0.4907,0.999,0.5083,1.5157,1.9907,0.4749,A,-0.105
225,0.50114,1.2,2,0.24222,0.25892,0.7016,225,2.1215,-0.16,-0.08352,0.41762,5,1D2U,1.0,True,0.175,23,False,left,-0.08352,1.3882,1.6965,0.3083,0.3299,0.6382,0.3083,A,-0.105
226,0.50114,1.2,2,0.27563,0.37585,0.88535,226,2.45559,-0.16,-0.08352,0.41762,5,1D2U,1.0,True,0.211,23,False,left,0.16705,1.7325,2.041,0.3085,0.2412,0.7995,0.5583,A,-0.105
227,0.50114,1.2,2,0.40091,0.31739,0.45938,227,2.12149,-0.12,-0.05847,0.44267,5,1D2U,2.0,False,0.134,24,True,right,-0.25057,1.2231,1.5563,0.3332,0.5732,0.7189,0.1458,A,-0.105
228,0.50114,0.1,2,0.34245,0.26727,0.82688,228,2.58087,0.28,0.14199,0.64313,5,2D1U,2.0,True,0.209,29,False,right,0.08352,1.7112,2.2528,0.5417,0.3524,0.8355,0.4831,A,-0.1
229,0.50114,0.1,2,0.24222,0.26727,0.48444,229,2.1382,0.28,0.14199,0.64313,5,2D1U,1.0,False,0.123,29,False,left,-0.08352,1.1835,1.7255,0.542,0.3339,0.6506,0.3167,A,-0.1
230,0.50114,0.1,2,0.3675,0.43432,0.84359,230,2.56417,-0.16,-0.08352,0.41762,5,1D2U,1.0,True,0.14,25,True,left,0.16705,1.7911,2.1076,0.3165,0.3324,0.8995,0.5671,A,-0.1
231,0.50114,0.1,1,0.25057,0.37585,0.86029,231,2.40547,-0.16,-0.08352,0.41762,5,1D2U,1.0,False,0.112,25,True,left,-0.25057,0.2988,0.6153,0.3166,1.6488,1.7988,0.15,A,-0.1
232,0.50114,1.2,2,0.25057,0.38421,0.40091,232,2.19666,0.32,0.15869,0.65983,5,2D1U,2.0,True,0.115,29,False,right,0.08352,1.1841,1.7342,0.55,0.2597,0.7344,0.4746,A,-0.105
233,0.50114,1.2,1,0.23387,0.23387,0.59302,233,2.22173,0.32,0.15869,0.65983,5,2D1U,1.0,True,0.216,29,False,left,-0.08352,0.2854,0.8352,0.5498,1.5185,1.8267,0.3082,A,-0.105
234,0.50114,1.2,2,0.38421,0.25892,0.42597,234,1.97115,-0.2,-0.10023,0.40091,5,1D2U,1.0,True,0.321,25,False,left,0.16705,1.3816,1.6734,0.2917,0.3485,0.9066,0.5582,A,-0.105
235,0.50114,1.2,1,0.35915,0.40091,0.44267,235,2.347,0.28,0.14199,0.64313,5,2D1U,1.0,True,0.189,30,True,left,-0.25057,0.4055,0.9387,0.5333,1.5551,1.697,0.1419,A,-0.105
236,0.50114,0.1,2,0.25892,0.40926,0.43432,236,2.24677,0.28,0.14199,0.64313,5,2D1U,2.0,True,0.21,30,True,right,0.08352,1.2311,1.7728,0.5417,0.2643,0.7478,0.4835,A,-0.1
237,0.50114,0.1,2,0.40926,0.25057,0.42597,237,1.98785,-0.2,-0.10023,0.40091,5,1D2U,1.0,True,0.185,25,False,left,-0.08352,1.2876,1.5876,0.3,0.4961,0.8121,0.316,A,-0.1
238,0.50114,0.1,2,0.39256,0.30068,0.53455,238,2.347,0.24,0.11693,0.61807,5,2D1U,2.0,True,0.25,30,False,right,0.16705,1.5059,2.0225,0.5166,0.3552,0.9227,0.5674,A,-0.1
239,0.50114,0.1,2,0.42597,0.32574,0.86864,239,2.53911,-0.16,-0.08352,0.41762,5,1D2U,1.0,True,0.45,26,True,left,-0.25057,1.6652,1.9826,0.3174,0.5992,0.7493,0.1501,A,-0.1
240,0.50114,1.2,2,0.21716,0.41762,0.43432,240,2.18831,0.24,0.11693,0.61807,5,2D1U,2.0,True,0.115,30,False,right,0.08352,1.1798,1.688,0.5083,0.2212,0.6964,0.4752,A,-0.105
241,0.50114,1.2,1,0.26727,0.22551,0.69324,241,2.28853,0.2,0.10023,0.60137,5,2D1U,1.0,True,0.163,30,False,left,-0.08352,0.3151,0.8062,0.4911,1.5898,1.8986,0.3088,A,-0.105
242,0.50114,1.2,2,0.40091,0.41762,0.77677,242,2.51406,-0.16,-0.08352,0.41762,5,1D2U,2.0,False,0.163,26,True,right,0.16705,1.7496,2.0579,0.3083,0.3663,0.924,0.5577,A,-0.105
243,0.50114,1.2,1,0.40091,0.41762,0.45938,243,2.38042,0.2,0.10023,0.60137,5,2D1U,1.0,True,0.191,30,False,left,-0.25057,0.4521,0.9444,0.4923,1.5774,1.7192,0.1418,A,-0.105
244,0.50114,0.1,2,0.32574,0.25892,0.73501,244,2.22172,-0.2,-0.10023,0.40091,5,1D2U,1.0,True,0.273,27,True,left,0.08352,1.5988,1.898,0.2993,0.3324,0.8144,0.4821,A,-0.1
245,0.50114,0.1,2,0.3508,0.20046,0.51784,245,1.97115,-0.2,-0.10023,0.40091,5,1D2U,1.0,True,0.259,27,True,left,-0.08352,1.3279,1.628,0.3001,0.4445,0.7612,0.3167,A,-0.1
246,0.50114,0.1,2,0.41762,0.39256,0.76841,246,2.65604,0.16,0.08352,0.57631,5,2D1U,2.0,True,0.118,30,False,right,0.16705,1.7642,2.2392,0.4749,0.3802,0.9478,0.5676,A,-0.1
247,0.50114,0.1,2,0.30904,0.43432,0.69324,247,2.51405,0.16,0.08352,0.57631,5,2D1U,2.0,True,0.249,30,False,right,-0.25057,1.3781,1.8529,0.4747,0.4865,0.6364,0.1499,A,-0.1
248,0.50114,1.2,2,0.21716,0.21716,0.82688,248,2.32195,0.12,0.05847,0.55961,5,2D1U,1.0,False,0.274,30,False,left,0.08352,1.5772,2.0273,0.4501,0.2272,0.7021,0.4749,A,-0.105
249,0.50114,1.2,2,0.21716,0.38421,0.68489,249,2.20502,-0.16,-0.08352,0.41762,5,1D2U,1.0,True,0.244,28,True,left,-0.08352,1.3482,1.6567,0.3085,0.3067,0.6147,0.308,A,-0.105
250,0.50114,1.2,1,0.21716,0.35915,0.42597,250,1.92104,-0.16,-0.08352,0.41762,5,1D2U,2.0,True,0.2,28,True,right,0.16705,0.2631,0.5722,0.3091,0.9639,1.5226,0.5586,A,-0.105
251,0.50114,1.2,2,0.3508,0.21716,0.59302,251,2.23843,0.16,0.08352,0.57631,5,2D1U,2.0,True,0.141,31,True,right,-0.25057,1.3111,1.778,0.4669,0.5276,0.6695,0.142,A,-0.105
252,0.50114,0.1,1,0.38421,0.20881,0.43432,252,1.97115,-0.12,-0.05847,0.44267,5,1D2U,1.0,False,0.262,28,False,left,0.08352,0.4357,0.7773,0.3416,1.2189,1.7021,0.4832,A,-0.1
253,0.50114,0.1,1,0.3675,0.21716,0.77677,253,2.28019,-0.16,-0.08352,0.41762,5,1D2U,2.0,True,0.208,29,True,right,-0.08352,0.4179,0.7348,0.3169,1.6016,1.918,0.3164,A,-0.1
254,0.50114,0.1,2,0.45103,0.43432,0.73501,254,2.69781,0.16,0.08352,0.57631,5,2D1U,2.0,True,0.117,31,True,right,0.16705,1.7643,2.2397,0.4754,0.4147,0.9813,0.5665,A,-0.1
255,0.50114,0.1,2,0.41762,0.33409,0.68489,255,2.49735,0.12,0.05847,0.55961,5,2D1U,2.0,True,0.11,32,True,right,-0.25057,1.4732,1.9316,0.4584,0.5896,0.7401,0.1505,A,-0.1
256,0.50114,1.2,2,0.40926,0.25892,0.41762,256,2.00456,-0.16,-0.08352,0.41762,5,1D2U,2.0,False,0.358,29,True,right,0.08352,1.357,1.6647,0.3077,0.4151,0.8902,0.4751,A,-0.105
257,0.50114,1.2,2,0.23387,0.3675,0.43432,257,2.09644,0.12,0.05847,0.55961,5,2D1U,2.0,True,0.112,32,True,right,-0.08352,1.118,1.5684,0.4504,0.3257,0.6346,0.309,A,-0.105
258,0.50114,1.2,1,0.3508,0.23387,0.51784,258,2.14655,0.08,0.04176,0.5429,5,2D1U,1.0,True,0.206,32,False,left,0.16705,0.3974,0.8298,0.4325,1.314,1.8724,0.5584,A,-0.105
259,0.50114,1.2,2,0.22551,0.40091,0.40926,259,1.93773,-0.2,-0.10023,0.40091,5,1D2U,2.0,False,0.112,29,False,right,-0.25057,0.9978,1.2894,0.2916,0.3978,0.5395,0.1417,A,-0.105
260,0.50114,0.1,2,0.37585,0.35915,0.7016,260,2.31359,-0.24,-0.11693,0.37585,5,1D2U,1.0,True,0.19,29,False,left,0.08352,1.6135,1.8885,0.2751,0.3805,0.8632,0.4827,A,-0.1
261,0.50114,0.1,1,0.30904,0.25892,0.45938,261,2.07138,0.08,0.04176,0.5429,5,2D1U,1.0,True,0.273,32,False,left,-0.08352,0.3615,0.8024,0.4409,1.3528,1.6692,0.3164,A,-0.1
262,0.50114,0.1,1,0.30068,0.34245,0.45103,262,2.11314,0.04,0.0167,0.51784,5,2D1U,1.0,True,0.175,32,False,left,0.16705,0.3468,0.7634,0.4166,1.18,1.7466,0.5666,A,-0.1
263,0.50114,0.1,1,0.39256,0.40926,0.56796,263,2.38876,0.04,0.0167,0.51784,5,2D1U,1.0,True,0.716,32,False,left,-0.25057,0.4449,0.8607,0.4158,1.6028,1.7529,0.1501,A,-0.1
264,0.50114,1.2,2,0.31739,0.43432,0.60972,264,2.23842,-0.24,-0.11693,0.37585,5,1D2U,1.0,True,0.218,29,False,left,0.08352,1.4545,1.7209,0.2665,0.321,0.796,0.475,A,-0.105
265,0.50114,1.2,1,0.23387,0.3508,0.56796,265,2.15491,-0.0,0.0,0.50114,5,2D1U,2.0,False,0.111,32,False,right,-0.08352,0.2869,0.6785,0.3916,1.3366,1.6451,0.3086,A,-0.105
266,0.50114,1.2,1,0.32574,0.41762,0.68489,266,2.3303,-0.2,-0.10023,0.40091,5,1D2U,2.0,True,0.176,30,True,right,0.16705,0.3746,0.6661,0.2916,1.3162,1.8745,0.5583,A,-0.105
267,0.50114,1.2,1,0.38421,0.37585,0.5429,267,2.32194,0.04,0.0167,0.51784,5,2D1U,1.0,True,0.114,33,True,left,-0.25057,0.4333,0.8407,0.4074,1.5584,1.6996,0.1412,A,-0.105
268,0.50114,0.1,2,0.40926,0.30904,0.74336,268,2.48064,0.04,0.0167,0.51784,5,2D1U,2.0,True,0.192,33,True,right,0.08352,1.6939,2.111,0.417,0.4183,0.9024,0.4841,A,-0.1
269,0.50114,0.1,2,0.29233,0.23387,0.72665,269,2.1549,-0.2,-0.10023,0.40091,5,1D2U,1.0,True,0.233,30,True,left,-0.08352,1.4753,1.7745,0.2993,0.3838,0.7003,0.3165,A,-0.1
270,0.50114,0.1,1,0.33409,0.35915,0.42597,270,2.03797,-0.16,-0.08352,0.41762,5,1D2U,2.0,True,0.11,30,False,right,0.16705,0.3845,0.7011,0.3166,1.0928,1.6598,0.567,A,-0.1
271,0.50114,0.1,2,0.28398,0.31739,0.58466,271,2.18831,-0.0,0.0,0.50114,5,2D1U,2.0,False,0.11,34,True,right,-0.25057,1.2436,1.6437,0.4001,0.4603,0.6107,0.1504,A,-0.1
272,0.50114,1.2,1,0.35915,0.31739,0.7183,272,2.39712,-0.0,0.0,0.50114,5,2D1U,2.0,False,0.187,34,True,right,0.08352,0.4088,0.7998,0.391,1.5254,2.0003,0.4749,A,-0.105
273,0.50114,1.2,1,0.32574,0.40091,0.88535,273,2.53076,-0.16,-0.08352,0.41762,5,1D2U,2.0,True,0.109,30,False,right,-0.08352,0.3777,0.6867,0.3089,1.6619,1.9699,0.308,A,-0.105
274,0.50114,1.2,2,0.40926,0.38421,0.68489,274,2.42217,-0.12,-0.05847,0.44267,5,1D2U,1.0,True,0.164,30,False,left,0.16705,1.6637,1.9977,0.334,0.3728,0.9316,0.5588,A,-0.105
275,0.50114,1.2,1,0.20046,0.39256,0.66819,275,2.28019,0.04,0.0167,0.51784,5,2D1U,1.0,True,0.113,35,True,left,-0.25057,0.2478,0.6559,0.408,1.4975,1.6393,0.1418,A,-0.105
276,0.50114,0.1,1,0.34245,0.31739,0.50114,276,2.10479,-0.12,-0.05847,0.44267,5,1D2U,2.0,True,0.208,30,False,right,0.08352,0.3948,0.7361,0.3413,1.2448,1.7276,0.4828,A,-0.1
277,0.50114,0.1,2,0.28398,0.20046,0.43432,277,1.93774,0.04,0.0167,0.51784,5,2D1U,2.0,True,0.172,35,True,right,-0.08352,1.1729,1.5893,0.4164,0.3732,0.69,0.3168,A,-0.1
278,0.50114,0.1,2,0.40926,0.42597,0.7183,278,2.55581,-0.0,0.0,0.50114,5,2D1U,2.0,False,0.191,36,True,right,0.16705,1.7097,2.1096,0.3999,0.3761,0.9428,0.5667,A,-0.1
279,0.50114,0.1,1,0.26727,0.34245,0.69324,279,2.30524,-0.0,0.0,0.50114,5,2D1U,1.0,False,0.116,36,True,left,-0.25057,0.3187,0.7201,0.4015,1.5863,1.7363,0.15,A,-0.1
280,0.50114,1.2,2,0.35915,0.25057,0.53455,280,2.10479,-0.08,-0.04176,0.45938,5,1D2U,1.0,True,0.246,30,False,left,0.08352,1.4255,1.7752,0.3497,0.3672,0.8414,0.4742,A,-0.105
281,0.50114,1.2,2,0.3508,0.44267,0.86864,281,2.62263,-0.08,-0.04176,0.45938,5,1D2U,2.0,False,0.113,30,False,right,-0.08352,1.6638,2.0139,0.3501,0.4392,0.7471,0.3079,A,-0.105
282,0.50114,1.2,2,0.24222,0.33409,0.72665,282,2.28018,-0.04,-0.0167,0.47608,5,2D1U,2.0,False,0.243,36,False,right,0.16705,1.5419,1.9089,0.367,0.2089,0.7668,0.5578,A,-0.105
283,0.50114,1.2,2,0.41762,0.20881,0.45938,283,2.06303,-0.04,-0.0167,0.47608,5,2D1U,2.0,False,0.14,36,False,right,-0.25057,1.2402,1.6067,0.3665,0.5902,0.7318,0.1416,A,-0.105
284,0.50114,0.1,2,0.39256,0.33409,0.82688,284,2.49734,-0.12,-0.05847,0.44267,5,1D2U,2.0,False,0.22,31,True,right,0.08352,1.7554,2.0969,0.3415,0.3976,0.8799,0.4823,A,-0.1
285,0.50114,0.1,1,0.21716,0.28398,0.51784,285,1.93774,-0.16,-0.08352,0.41762,5,1D2U,2.0,True,0.193,31,False,right,-0.08352,0.2648,0.5819,0.3171,1.1901,1.5069,0.3168,A,-0.1
286,0.50114,0.1,1,0.20881,0.33409,0.55961,286,2.06303,-0.08,-0.04176,0.45938,5,2D1U,2.0,True,0.219,36,False,right,0.16705,0.2559,0.6147,0.3588,1.1395,1.7063,0.5667,A,-0.1
287,0.50114,0.1,1,0.22551,0.41762,0.64313,287,2.26348,-0.04,-0.0167,0.47608,5,2D1U,1.0,False,0.115,37,True,left,-0.25057,0.2762,0.6509,0.3747,1.4679,1.6176,0.1497,A,-0.1
288,0.50114,1.2,1,0.38421,0.38421,0.76841,288,2.45559,-0.16,-0.08352,0.41762,5,1D2U,2.0,True,0.165,31,False,right,0.08352,0.4285,0.7363,0.3078,1.5124,1.9867,0.4744,A,-0.105
289,0.50114,1.2,2,0.40926,0.41762,0.59302,289,2.39712,-0.04,-0.0167,0.47608,5,2D1U,1.0,True,0.112,37,True,left,-0.08352,1.4472,1.8137,0.3665,0.4971,0.805,0.3079,A,-0.105
290,0.50114,1.2,1,0.25057,0.28398,0.48444,290,2.02127,-0.0,0.0,0.50114,5,2D1U,2.0,False,0.281,37,False,right,0.16705,0.2961,0.688,0.3919,1.1378,1.6959,0.5581,A,-0.105
291,0.50114,1.2,1,0.21716,0.27563,0.70995,291,2.22172,0.04,0.0167,0.51784,5,2D1U,1.0,True,0.221,37,False,left,-0.25057,0.2698,0.6787,0.4089,1.5621,1.7036,0.1415,A,-0.105
292,0.50114,0.1,1,0.22551,0.30904,0.60972,292,2.08808,-0.12,-0.05847,0.44267,5,1D2U,2.0,True,0.161,32,True,right,0.08352,0.2722,0.6139,0.3418,1.2305,1.7136,0.4831,A,-0.1
293,0.50114,0.1,2,0.40091,0.41762,0.46773,293,2.30524,0.04,0.0167,0.51784,5,2D1U,2.0,True,0.458,37,False,right,-0.08352,1.322,1.7394,0.4174,0.4895,0.8054,0.3158,A,-0.1
294,0.50114,0.1,2,0.33409,0.26727,0.87699,294,2.42216,-0.12,-0.05847,0.44267,5,1D2U,2.0,False,0.346,32,True,right,0.16705,1.7952,2.1352,0.34,0.3021,0.8682,0.5661,A,-0.1
295,0.50114,0.1,2,0.25892,0.40926,0.49279,295,2.16325,-0.0,0.0,0.50114,5,2D1U,2.0,False,0.434,38,True,right,-0.25057,1.1227,1.5224,0.3997,0.4318,0.5812,0.1494,A,-0.1
296,0.50114,1.2,2,0.33409,0.25892,0.45103,296,1.9628,-0.16,-0.08352,0.41762,5,1D2U,2.0,False,0.258,33,True,right,0.08352,1.3148,1.6225,0.3077,0.3391,0.8134,0.4743,A,-0.105
297,0.50114,1.2,1,0.3508,0.20046,0.5429,297,1.99621,-0.2,-0.10023,0.40091,5,1D2U,2.0,True,0.253,33,False,right,-0.08352,0.398,0.6897,0.2917,1.3232,1.6315,0.3083,A,-0.105
298,0.50114,1.2,2,0.40926,0.28398,0.51784,298,2.21336,-0.0,0.0,0.50114,5,2D1U,1.0,False,0.234,38,True,left,0.16705,1.4959,1.8877,0.3918,0.3711,0.9297,0.5586,A,-0.105
299,0.50114,1.2,1,0.43432,0.38421,0.46773,299,2.18831,-0.2,-0.10023,0.40091,5,1D2U,1.0,False,0.124,33,False,left,-0.25057,0.4864,0.7771,0.2907,1.4188,1.5616,0.1429,A,-0.105
300,0.50114,0.1,1,0.40091,0.32574,0.41762,300,2.02126,-0.24,-0.11693,0.37585,5,1D2U,2.0,True,0.113,33,False,right,0.08352,0.4514,0.7267,0.2753,1.1516,1.6351,0.4835,A,-0.1
301,0.50114,0.1,2,0.40091,0.34245,0.68489,301,2.44723,0.04,0.0167,0.51784,5,2D1U,1.0,False,0.118,39,True,left,-0.08352,1.5429,1.9593,0.4164,0.493,0.8089,0.316,A,-0.1
302,0.50114,0.1,2,0.20881,0.35915,0.72665,302,2.33865,0.08,0.04176,0.5429,5,2D1U,1.0,False,0.116,39,False,left,0.16705,1.5175,1.959,0.4415,0.1756,0.7422,0.5666,A,-0.1
303,0.50114,0.1,1,0.30904,0.3508,0.86864,303,2.40547,-0.24,-0.11693,0.37585,5,1D2U,1.0,False,0.113,33,False,left,-0.25057,0.3545,0.6294,0.2749,1.6711,1.8212,0.1501,A,-0.1
304,0.50114,1.2,1,0.23387,0.30068,0.55961,304,1.95445,-0.28,-0.14199,0.35915,5,1D2U,2.0,True,0.197,33,False,right,0.08352,0.2808,0.5312,0.2504,1.0977,1.5728,0.4751,A,-0.105
305,0.50114,1.2,2,0.25892,0.29233,0.65983,305,2.07137,-0.28,-0.14199,0.35915,5,1D2U,1.0,True,0.158,33,False,left,-0.08352,1.3691,1.6183,0.2492,0.3522,0.6607,0.3085,A,-0.105
306,0.50114,1.2,1,0.28398,0.25057,0.47608,306,2.07138,0.12,0.05847,0.55961,5,2D1U,2.0,False,0.259,39,False,right,0.16705,0.3368,0.7863,0.4495,1.2284,1.7866,0.5581,A,-0.105
307,0.50114,1.2,2,0.31739,0.34245,0.85194,307,2.58923,0.16,0.08352,0.57631,5,2D1U,2.0,True,0.112,39,False,right,-0.25057,1.5321,1.9991,0.467,0.4906,0.632,0.1414,A,-0.105
308,0.50114,0.1,2,0.40926,0.41762,0.65148,308,2.55581,0.16,0.08352,0.57631,5,2D1U,2.0,True,0.146,39,False,right,0.08352,1.601,2.0762,0.4752,0.4175,0.9006,0.4831,A,-0.1
309,0.50114,0.1,2,0.29233,0.38421,0.74336,309,2.29689,-0.24,-0.11693,0.37585,5,1D2U,1.0,True,0.277,34,True,left,-0.08352,1.4919,1.7672,0.2753,0.3831,0.7001,0.317,A,-0.1
310,0.50114,0.1,1,0.22551,0.42597,0.67654,310,2.38877,0.12,0.05847,0.55961,5,2D1U,2.0,False,0.178,40,True,right,0.16705,0.2768,0.7358,0.459,1.3775,1.9441,0.5666,A,-0.1
311,0.50114,0.1,1,0.40091,0.40926,0.8937,311,2.78132,0.16,0.08352,0.57631,5,2D1U,1.0,True,0.113,41,True,left,-0.25057,0.4513,0.926,0.4747,1.9929,2.1428,0.15,A,-0.1
312,0.50114,1.2,2,0.38421,0.29233,0.58466,312,2.13819,-0.24,-0.11693,0.37585,5,1D2U,2.0,False,0.209,34,True,right,0.08352,1.5006,1.767,0.2663,0.3924,0.8671,0.4747,A,-0.105
313,0.50114,1.2,1,0.35915,0.23387,0.63478,313,2.08809,-0.28,-0.14199,0.35915,5,1D2U,2.0,True,0.206,35,True,right,-0.08352,0.4096,0.6595,0.2499,1.3845,1.6927,0.3082,A,-0.105
314,0.50114,1.2,2,0.37585,0.27563,0.84359,314,2.35536,-0.28,-0.14199,0.35915,5,1D2U,1.0,True,0.238,35,True,left,0.16705,1.7929,2.0432,0.2503,0.3431,0.9013,0.5583,A,-0.105
315,0.50114,1.2,2,0.21716,0.43432,0.88535,315,2.61428,0.16,0.08352,0.57631,5,2D1U,2.0,True,0.309,41,True,right,-0.25057,1.4678,1.9348,0.467,0.3928,0.5348,0.142,A,-0.105
316,0.50114,0.1,1,0.25892,0.21716,0.50114,316,2.03797,0.12,0.05847,0.55961,5,2D1U,2.0,False,0.293,42,True,right,0.08352,0.3059,0.7636,0.4577,1.2725,1.7563,0.4838,A,-0.1
317,0.50114,0.1,2,0.28398,0.40091,0.76006,317,2.5224,0.16,0.08352,0.57631,5,2D1U,2.0,True,0.111,43,True,right,-0.08352,1.5036,1.9787,0.4751,0.3787,0.6953,0.3166,A,-0.1
318,0.50114,0.1,2,0.43432,0.28398,0.61807,318,2.21336,-0.24,-0.11693,0.37585,5,1D2U,2.0,False,0.314,36,True,right,0.16705,1.634,1.9083,0.2743,0.4008,0.9674,0.5666,A,-0.1
319,0.50114,0.1,1,0.3508,0.26727,0.78512,319,2.26348,-0.28,-0.14199,0.35915,5,1D2U,1.0,False,0.164,37,True,left,-0.25057,0.3972,0.656,0.2588,1.6139,1.7635,0.1495,A,-0.1
320,0.50114,1.2,2,0.35915,0.25057,0.65983,320,2.347,0.16,0.08352,0.57631,5,2D1U,2.0,True,0.248,43,True,right,0.08352,1.5517,2.0175,0.4657,0.3679,0.8425,0.4747,A,-0.105
321,0.50114,1.2,1,0.3508,0.29233,0.69324,321,2.17996,-0.32,-0.15869,0.34245,5,1D2U,2.0,True,0.216,37,False,right,-0.08352,0.3966,0.6303,0.2337,1.4131,1.7216,0.3085,A,-0.105
322,0.50114,1.2,1,0.33409,0.34245,0.7183,322,2.23843,-0.32,-0.15869,0.34245,5,1D2U,2.0,True,0.19,37,False,right,0.16705,0.3867,0.62,0.2333,1.3036,1.8619,0.5583,A,-0.105
323,0.50114,1.2,2,0.37585,0.22551,0.7016,323,2.36371,0.12,0.05847,0.55961,5,2D1U,2.0,True,0.148,44,True,right,-0.25057,1.4449,1.8945,0.4496,0.5529,0.6945,0.1415,A,-0.105
324,0.50114,0.1,2,0.34245,0.40091,0.55125,324,2.35536,0.12,0.05847,0.55961,5,2D1U,2.0,True,0.183,44,True,right,0.08352,1.4296,1.8891,0.4595,0.3472,0.8298,0.4826,A,-0.1
325,0.50114,0.1,2,0.39256,0.28398,0.76006,325,2.29689,-0.28,-0.14199,0.35915,5,1D2U,1.0,True,0.189,38,True,left,-0.08352,1.6106,1.869,0.2584,0.4851,0.8017,0.3166,A,-0.1
326,0.50114,0.1,2,0.22551,0.26727,0.47608,326,2.0129,0.08,0.04176,0.5429,5,2D1U,2.0,True,0.254,44,False,right,0.16705,1.2812,1.7236,0.4424,0.1898,0.7562,0.5664,A,-0.1
327,0.50114,0.1,2,0.30068,0.23387,0.85194,327,2.43053,0.08,0.04176,0.5429,5,2D1U,2.0,True,0.234,44,False,right,-0.25057,1.5248,1.9663,0.4414,0.4748,0.6251,0.1504,A,-0.1
328,0.50114,1.2,1,0.42597,0.30068,0.67654,328,2.26348,-0.28,-0.14199,0.35915,5,1D2U,2.0,True,0.197,38,True,right,0.08352,0.4757,0.726,0.2502,1.4096,1.8843,0.4747,A,-0.105
329,0.50114,1.2,1,0.37585,0.40091,0.74336,329,2.5391,0.04,0.0167,0.51784,5,2D1U,1.0,True,0.112,44,False,left,-0.08352,0.4227,0.8306,0.4079,1.6644,1.9726,0.3082,A,-0.105
330,0.50114,1.2,2,0.24222,0.32574,0.60972,330,2.05467,-0.24,-0.11693,0.37585,5,1D2U,1.0,True,0.176,38,False,left,0.16705,1.4257,1.6925,0.2668,0.2091,0.7675,0.5583,A,-0.105
331,0.50114,1.2,1,0.3508,0.25057,0.77677,331,2.39712,0.04,0.0167,0.51784,5,2D1U,1.0,True,0.117,44,False,left,-0.25057,0.3962,0.8035,0.4072,1.7542,1.8958,0.1416,A,-0.105
332,0.50114,0.1,2,0.30904,0.35915,0.77677,332,2.44724,-0.0,0.0,0.50114,5,2D1U,2.0,False,0.166,44,False,right,0.08352,1.6209,2.0209,0.4,0.3126,0.7954,0.4828,A,-0.1
333,0.50114,0.1,2,0.25057,0.32574,0.42597,333,1.87927,-0.24,-0.11693,0.37585,5,1D2U,1.0,True,0.137,38,False,left,-0.08352,1.1347,1.4105,0.2758,0.3436,0.6604,0.3168,A,-0.1
334,0.50114,0.1,2,0.42597,0.34245,0.68489,334,2.45559,-0.0,0.0,0.50114,5,2D1U,1.0,False,0.134,44,False,left,0.16705,1.6895,2.0898,0.4003,0.3894,0.9562,0.5667,A,-0.1
335,0.50114,0.1,1,0.32574,0.32574,0.5429,335,2.09643,-0.2,-0.10023,0.40091,5,1D2U,1.0,False,0.113,38,False,left,-0.25057,0.3742,0.6735,0.2993,1.3899,1.5406,0.1507,A,-0.1
336,0.50114,1.2,2,0.34245,0.38421,0.65148,336,2.25513,-0.24,-0.11693,0.37585,5,1D2U,1.0,True,0.183,39,True,left,0.08352,1.5269,1.794,0.2671,0.3521,0.8264,0.4744,A,-0.105
337,0.50114,1.2,1,0.43432,0.40091,0.86029,337,2.7145,0.04,0.0167,0.51784,5,2D1U,1.0,True,0.115,45,True,left,-0.08352,0.483,0.8909,0.4079,1.8415,2.1497,0.3082,A,-0.105
338,0.50114,1.2,1,0.32574,0.27563,0.60972,338,2.23007,0.04,0.0167,0.51784,5,2D1U,2.0,False,0.283,45,True,right,0.16705,0.3723,0.7804,0.4081,1.3553,1.913,0.5578,A,-0.105
339,0.50114,1.2,1,0.30904,0.38421,0.46773,339,2.20502,0.08,0.04176,0.5429,5,2D1U,1.0,True,0.209,45,False,left,-0.25057,0.3535,0.7865,0.4331,1.4295,1.5704,0.141,A,-0.105
340,0.50114,0.1,2,0.24222,0.40926,0.57631,340,2.10478,-0.24,-0.11693,0.37585,5,1D2U,2.0,False,0.546,39,True,right,0.08352,1.3581,1.6328,0.2748,0.2497,0.7334,0.4837,A,-0.1
341,0.50114,0.1,1,0.20881,0.27563,0.85194,341,2.19667,-0.28,-0.14199,0.35915,5,1D2U,2.0,True,0.307,39,False,right,-0.08352,0.2611,0.5197,0.2585,1.4616,1.7782,0.3166,A,-0.1
342,0.50114,0.1,1,0.26727,0.23387,0.67654,342,2.03797,-0.28,-0.14199,0.35915,5,1D2U,2.0,True,0.31,39,False,right,0.16705,0.3198,0.5782,0.2584,1.2199,1.7866,0.5667,A,-0.1
343,0.50114,0.1,1,0.42597,0.21716,0.80182,343,2.48899,0.08,0.04176,0.5429,5,2D1U,1.0,True,0.221,45,False,left,-0.25057,0.4775,0.9191,0.4416,1.8942,2.0441,0.1499,A,-0.1
344,0.50114,1.2,1,0.25057,0.44267,0.7183,344,2.43052,0.04,0.0167,0.51784,5,2D1U,2.0,False,0.114,46,True,right,0.08352,0.3008,0.7091,0.4083,1.4342,1.9093,0.4751,A,-0.105
345,0.50114,1.2,2,0.28398,0.30068,0.80182,345,2.26347,-0.24,-0.11693,0.37585,5,1D2U,2.0,False,0.266,40,True,right,-0.08352,1.5301,1.7961,0.266,0.3718,0.68,0.3081,A,-0.105
346,0.50114,1.2,1,0.25057,0.22551,0.85194,346,2.37206,0.08,0.04176,0.5429,5,2D1U,2.0,False,0.27,47,True,right,0.16705,0.3002,0.7328,0.4326,1.5497,2.1082,0.5585,A,-0.105
347,0.50114,1.2,1,0.28398,0.44267,0.40926,347,2.19666,0.12,0.05847,0.55961,5,2D1U,1.0,True,0.149,47,False,left,-0.25057,0.3347,0.7843,0.4495,1.3684,1.5097,0.1413,A,-0.105
348,0.50114,0.1,2,0.20046,0.26727,0.77677,348,2.10479,-0.28,-0.14199,0.35915,5,1D2U,1.0,True,0.236,41,True,left,0.08352,1.5167,1.7747,0.258,0.2081,0.6912,0.4832,A,-0.1
349,0.50114,0.1,2,0.34245,0.37585,0.72665,349,2.30524,-0.28,-0.14199,0.35915,5,1D2U,1.0,True,0.173,41,True,left,-0.08352,1.5229,1.7817,0.2588,0.4319,0.748,0.3161,A,-0.1
350,0.50114,0.1,2,0.25892,0.31739,0.65983,350,2.11313,-0.24,-0.11693,0.37585,5,1D2U,2.0,False,0.219,42,True,right,0.16705,1.4991,1.7739,0.2748,0.2239,0.79,0.5661,A,-0.1
351,0.50114,0.1,2,0.34245,0.3508,0.59302,351,2.14656,-0.28,-0.14199,0.35915,5,1D2U,1.0,True,0.516,43,True,left,-0.25057,1.3047,1.5622,0.2575,0.5128,0.6631,0.1503,A,-0.1
352,0.50114,1.2,2,0.28398,0.38421,0.64313,352,2.37207,0.12,0.05847,0.55961,5,2D1U,2.0,True,0.141,47,False,right,0.08352,1.4554,1.9052,0.4498,0.2887,0.7629,0.4742,A,-0.105
353,0.50114,1.2,2,0.40091,0.28398,0.72665,353,2.45558,0.08,0.04176,0.5429,5,2D1U,2.0,True,0.232,48,True,right,-0.08352,1.5779,2.0117,0.4338,0.4951,0.8026,0.3075,A,-0.105
354,0.50114,1.2,2,0.26727,0.34245,0.47608,354,1.94609,-0.28,-0.14199,0.35915,5,1D2U,1.0,True,0.337,43,True,left,0.16705,1.3148,1.5641,0.2493,0.2319,0.7892,0.5572,A,-0.105
355,0.50114,1.2,2,0.27563,0.33409,0.55125,355,2.20501,0.08,0.04176,0.5429,5,2D1U,2.0,True,0.499,48,True,right,-0.25057,1.1879,1.6215,0.4336,0.4457,0.5873,0.1415,A,-0.105
356,0.50114,0.1,2,0.20046,0.25057,0.76006,356,2.08808,-0.24,-0.11693,0.37585,5,1D2U,1.0,True,0.316,44,True,left,0.08352,1.5022,1.7773,0.2751,0.2104,0.6941,0.4836,A,-0.1
357,0.50114,0.1,1,0.24222,0.23387,0.46773,357,1.9628,0.04,0.0167,0.51784,5,2D1U,1.0,True,0.217,48,False,left,-0.08352,0.2875,0.7044,0.417,1.2627,1.5792,0.3165,A,-0.1
358,0.50114,0.1,1,0.31739,0.30904,0.7016,358,2.34701,0.04,0.0167,0.51784,5,2D1U,2.0,False,0.28,48,False,right,0.16705,0.3631,0.7792,0.4161,1.4466,2.0134,0.5668,A,-0.1
359,0.50114,0.1,1,0.34245,0.40091,0.57631,359,2.19666,-0.24,-0.11693,0.37585,5,1D2U,1.0,False,0.113,44,True,left,-0.25057,0.3882,0.6635,0.2753,1.413,1.5634,0.1504,A,-0.1
360,0.50114,1.2,2,0.25057,0.41762,0.62642,360,2.33865,0.08,0.04176,0.5429,5,2D1U,2.0,True,0.109,49,True,right,0.08352,1.411,1.8443,0.4333,0.2609,0.7355,0.4746,A,-0.105
361,0.50114,1.2,1,0.23387,0.40091,0.73501,361,2.23008,-0.28,-0.14199,0.35915,5,1D2U,1.0,False,0.112,45,True,left,-0.08352,0.2792,0.5293,0.2501,1.3541,1.6623,0.3082,A,-0.105
362,0.50114,1.2,2,0.24222,0.3508,0.42597,362,1.86258,-0.32,-0.15869,0.34245,5,1D2U,2.0,False,0.334,45,False,right,0.16705,1.2372,1.4705,0.2333,0.2039,0.7618,0.558,A,-0.105
363,0.50114,1.2,2,0.20046,0.20881,0.81853,363,2.27184,0.08,0.04176,0.5429,5,2D1U,2.0,True,0.115,49,True,right,-0.25057,1.3796,1.8128,0.4332,0.3712,0.5127,0.1416,A,-0.105
364,0.50114,0.1,2,0.22551,0.40926,0.76841,364,2.22171,-0.36,-0.18375,0.31739,5,1D2U,1.0,True,0.148,45,False,left,0.08352,1.5321,1.7492,0.2171,0.2326,0.7157,0.4831,A,-0.1
365,0.50114,0.1,2,0.39256,0.35915,0.76006,365,2.53075,0.04,0.0167,0.51784,5,2D1U,2.0,True,0.15,50,True,right,-0.08352,1.6082,2.0247,0.4165,0.4836,0.7994,0.3158,A,-0.1
366,0.50114,0.1,1,0.22551,0.30068,0.80182,366,2.14654,-0.36,-0.18375,0.31739,5,1D2U,2.0,True,0.149,45,False,right,0.16705,0.2755,0.492,0.2165,1.2587,1.8265,0.5678,A,-0.1
367,0.50114,0.1,1,0.38421,0.43432,0.7016,367,2.36372,-0.32,-0.15869,0.34245,5,1D2U,1.0,False,0.112,46,True,left,-0.25057,0.4307,0.673,0.2423,1.5482,1.6976,0.1494,A,-0.1
368,0.50114,1.2,2,0.41762,0.20881,0.63478,368,2.07974,-0.36,-0.18375,0.31739,5,1D2U,2.0,False,0.331,47,True,right,0.08352,1.5842,1.7922,0.208,0.426,0.9012,0.4752,A,-0.105
369,0.50114,1.2,1,0.35915,0.34245,0.65983,369,2.16325,-0.4,-0.20046,0.30068,5,1D2U,1.0,False,0.254,47,False,left,-0.08352,0.408,0.6,0.192,1.3497,1.6581,0.3084,A,-0.105
370,0.50114,1.2,2,0.25057,0.35915,0.60972,370,2.23842,0.04,0.0167,0.51784,5,2D1U,2.0,True,0.202,50,True,right,0.16705,1.4315,1.8398,0.4083,0.2141,0.7731,0.559,A,-0.105
371,0.50114,1.2,2,0.32574,0.25892,0.57631,371,2.16325,-0.0,0.0,0.50114,5,2D1U,2.0,False,0.146,50,False,right,-0.25057,1.2621,1.6544,0.3923,0.4959,0.6377,0.1418,A,-0.105
372,0.50114,0.1,2,0.20881,0.42597,0.78512,372,2.20502,-0.44,-0.21716,0.28398,5,1D2U,1.0,True,0.694,47,False,left,0.08352,1.5338,1.7169,0.1831,0.2169,0.7005,0.4836,A,-0.1
373,0.50114,0.1,2,0.20881,0.44267,0.64313,373,2.07973,-0.44,-0.21716,0.28398,5,1D2U,1.0,True,0.167,47,False,left,-0.08352,1.3064,1.4897,0.1833,0.2979,0.6145,0.3167,A,-0.1
374,0.50114,0.1,1,0.30904,0.3508,0.76841,374,2.43053,-0.0,0.0,0.50114,5,2D1U,2.0,False,0.114,50,False,right,0.16705,0.3618,0.7613,0.3995,1.4947,2.062,0.5673,A,-0.1
375,0.50114,0.1,2,0.20046,0.25057,0.62642,375,2.09643,0.04,0.0167,0.51784,5,2D1U,2.0,True,0.113,51,True,right,-0.25057,1.2009,1.6181,0.4172,0.3765,0.5267,0.1502,A,-0.1
376,0.50114,1.2,2,0.38421,0.39256,0.85194,376,2.43053,-0.4,-0.20046,0.30068,5,1D2U,1.0,True,0.226,48,True,left,0.08352,1.7654,1.9569,0.1915,0.3907,0.8655,0.4748,A,-0.105
377,0.50114,1.2,1,0.25892,0.39256,0.74336,377,2.41382,0.04,0.0167,0.51784,5,2D1U,2.0,False,0.116,51,True,right,-0.08352,0.3049,0.714,0.4091,1.5471,1.8553,0.3082,A,-0.105
378,0.50114,1.2,2,0.43432,0.34245,0.62642,378,2.20501,-0.4,-0.20046,0.30068,5,1D2U,1.0,True,0.28,48,True,left,0.16705,1.6303,1.8217,0.1914,0.3961,0.9553,0.5591,A,-0.105
379,0.50114,1.2,2,0.33409,0.42597,0.46773,379,2.04632,-0.36,-0.18375,0.31739,5,1D2U,1.0,True,0.142,48,False,left,-0.25057,1.1629,1.3707,0.2078,0.5044,0.6462,0.1418,A,-0.105
380,0.50114,0.1,1,0.28398,0.20881,0.7183,380,2.02962,-0.36,-0.18375,0.31739,5,1D2U,2.0,True,0.319,48,False,right,0.08352,0.3304,0.5469,0.2165,1.2709,1.7544,0.4834,A,-0.1
381,0.50114,0.1,2,0.37585,0.25057,0.86864,381,2.5391,0.08,0.04176,0.5429,5,2D1U,2.0,True,0.152,51,False,right,-0.08352,1.6978,2.1396,0.4418,0.465,0.7814,0.3164,A,-0.1
382,0.50114,0.1,1,0.24222,0.20881,0.63478,382,1.9294,-0.32,-0.15869,0.34245,5,1D2U,2.0,True,0.287,48,False,right,0.16705,0.2923,0.5348,0.2425,1.1351,1.7014,0.5663,A,-0.1
383,0.50114,0.1,1,0.30068,0.38421,0.41762,383,1.9461,-0.32,-0.15869,0.34245,5,1D2U,1.0,False,0.114,48,False,left,-0.25057,0.3513,0.5931,0.2417,1.185,1.3348,0.1498,A,-0.1
384,0.50114,1.2,2,0.20881,0.29233,0.50949,384,2.05467,0.08,0.04176,0.5429,5,2D1U,2.0,True,0.213,51,False,right,0.08352,1.2481,1.6815,0.4333,0.215,0.6899,0.4748,A,-0.105
385,0.50114,1.2,2,0.35915,0.32574,0.59302,385,2.09644,-0.36,-0.18375,0.31739,5,1D2U,1.0,True,0.21,49,True,left,-0.08352,1.3986,1.6069,0.2083,0.4481,0.7571,0.309,A,-0.105
386,0.50114,1.2,2,0.40091,0.42597,0.70995,386,2.35536,-0.36,-0.18375,0.31739,5,1D2U,1.0,True,0.158,49,True,left,0.16705,1.6823,1.8907,0.2083,0.366,0.924,0.558,A,-0.105
387,0.50114,1.2,2,0.20046,0.32574,0.81853,387,2.36371,0.04,0.0167,0.51784,5,2D1U,2.0,True,0.113,52,True,right,-0.25057,1.3844,1.7923,0.4079,0.3763,0.5181,0.1419,A,-0.105
388,0.50114,0.1,2,0.40091,0.30904,0.45938,388,2.01292,-0.32,-0.15869,0.34245,5,1D2U,1.0,True,0.267,50,True,left,0.08352,1.3981,1.6397,0.2416,0.4063,0.8897,0.4834,A,-0.1
389,0.50114,0.1,1,0.25892,0.38421,0.84359,389,2.5057,0.04,0.0167,0.51784,5,2D1U,1.0,True,0.111,52,True,left,-0.08352,0.3071,0.724,0.4168,1.6571,1.9738,0.3167,A,-0.1
390,0.50114,0.1,2,0.42597,0.30068,0.40091,390,2.12984,-0.0,0.0,0.50114,5,2D1U,1.0,False,0.112,52,False,left,0.16705,1.405,1.805,0.4,0.3886,0.9552,0.5667,A,-0.1
391,0.50114,0.1,1,0.30068,0.24222,0.56796,391,1.95445,-0.32,-0.15869,0.34245,5,1D2U,1.0,False,0.257,50,True,left,-0.25057,0.3476,0.5895,0.242,1.3315,1.481,0.1494,A,-0.1
392,0.50114,1.2,1,0.3508,0.20881,0.88535,392,2.46394,0.04,0.0167,0.51784,5,2D1U,2.0,False,0.268,53,True,right,0.08352,0.4013,0.8091,0.4078,1.7009,2.1762,0.4753,A,-0.105
393,0.50114,1.2,1,0.20881,0.21716,0.79347,393,2.03797,-0.36,-0.18375,0.31739,5,1D2U,1.0,False,0.247,51,True,left,-0.08352,0.2554,0.4647,0.2093,1.3475,1.6556,0.308,A,-0.105
394,0.50114,1.2,2,0.28398,0.44267,0.78512,394,2.31359,-0.4,-0.20046,0.30068,5,1D2U,1.0,True,0.197,51,False,left,0.16705,1.6402,1.8322,0.192,0.2485,0.8067,0.5582,A,-0.105
395,0.50114,1.2,2,0.42597,0.38421,0.40926,395,2.26348,0.08,0.04176,0.5429,5,2D1U,2.0,True,0.534,53,False,right,-0.25057,1.1953,1.6289,0.4336,0.5958,0.7366,0.1409,A,-0.105
396,0.50114,0.1,2,0.30904,0.37585,0.51784,396,2.24677,0.08,0.04176,0.5429,5,2D1U,1.0,False,0.129,53,False,left,0.08352,1.3697,1.8106,0.4409,0.3193,0.8023,0.483,A,-0.1
397,0.50114,0.1,2,0.20881,0.30068,0.42597,397,1.73728,-0.4,-0.20046,0.30068,5,1D2U,1.0,True,0.307,51,False,left,-0.08352,1.095,1.2956,0.2006,0.3033,0.6199,0.3166,A,-0.1
398,0.50114,0.1,1,0.41762,0.29233,0.68489,398,2.45559,0.12,0.05847,0.55961,5,2D1U,1.0,True,0.199,53,False,left,0.16705,0.4636,0.922,0.4584,1.5729,2.139,0.5661,A,-0.1
399,0.50114,0.1,2,0.22551,0.40091,0.45938,399,2.14655,0.12,0.05847,0.55961,5,2D1U,2.0,True,0.113,53,False,right,-0.25057,1.0603,1.518,0.4578,0.4014,0.5515,0.1501,A,-0.1
400,0.50114,1.2,1,0.37585,0.31739,0.56796,400,2.07973,-0.36,-0.18375,0.31739,5,1D2U,2.0,True,0.228,52,True,right,0.08352,0.422,0.6299,0.208,1.2049,1.6794,0.4745,A,-0.105
401,0.50114,1.2,2,0.22551,0.42597,0.56796,401,2.26348,0.08,0.04176,0.5429,5,2D1U,1.0,False,0.111,54,True,left,-0.08352,1.2426,1.6757,0.4331,0.3176,0.6262,0.3087,A,-0.105
402,0.50114,1.2,2,0.27563,0.43432,0.61807,402,2.14655,-0.36,-0.18375,0.31739,5,1D2U,1.0,True,0.211,52,True,left,0.16705,1.466,1.6743,0.2083,0.2409,0.7989,0.558,A,-0.105
403,0.50114,1.2,1,0.31739,0.26727,0.59302,403,2.23843,0.12,0.05847,0.55961,5,2D1U,1.0,True,0.275,55,True,left,-0.25057,0.3651,0.815,0.4499,1.5815,1.7234,0.1419,A,-0.105
404,0.50114,0.1,1,0.31739,0.29233,0.5262,404,1.97951,-0.32,-0.15869,0.34245,5,1D2U,2.0,True,0.223,52,False,right,0.08352,0.363,0.6047,0.2417,1.1381,1.6212,0.4831,A,-0.1
405,0.50114,0.1,2,0.40926,0.30904,0.60972,405,2.17161,-0.32,-0.15869,0.34245,5,1D2U,1.0,True,0.245,52,False,left,-0.08352,1.4764,1.7179,0.2414,0.5014,0.818,0.3165,A,-0.1
406,0.50114,0.1,2,0.20881,0.27563,0.58466,406,2.12985,0.12,0.05847,0.55961,5,2D1U,1.0,False,0.251,55,True,left,0.16705,1.3719,1.8302,0.4583,0.1718,0.7377,0.5659,A,-0.1
407,0.50114,0.1,1,0.3675,0.31739,0.53455,407,2.07973,-0.28,-0.14199,0.35915,5,1D2U,1.0,False,0.184,52,False,left,-0.25057,0.4142,0.6727,0.2585,1.3804,1.5301,0.1497,A,-0.1
408,0.50114,1.2,2,0.44267,0.20881,0.66819,408,2.16326,-0.32,-0.15869,0.34245,5,1D2U,2.0,False,0.332,53,True,right,0.08352,1.644,1.8777,0.2337,0.4519,0.9273,0.4754,A,-0.105
409,0.50114,1.2,2,0.27563,0.20881,0.77677,409,2.33866,0.16,0.08352,0.57631,5,2D1U,2.0,True,0.223,55,False,right,-0.08352,1.4966,1.9625,0.4659,0.3636,0.6714,0.3077,A,-0.105
410,0.50114,1.2,1,0.20046,0.41762,0.69324,410,2.12985,-0.36,-0.18375,0.31739,5,1D2U,2.0,True,0.115,53,False,right,0.16705,0.2508,0.4591,0.2083,1.1179,1.6765,0.5586,A,-0.105
411,0.50114,1.2,2,0.30068,0.43432,0.86864,411,2.68109,0.16,0.08352,0.57631,5,2D1U,2.0,True,0.434,55,False,right,-0.25057,1.5305,1.9972,0.4667,0.4722,0.6142,0.142,A,-0.105
412,0.50114,0.1,1,0.21716,0.21716,0.82688,412,2.07973,-0.36,-0.18375,0.31739,5,1D2U,2.0,True,0.339,53,False,right,0.08352,0.264,0.4817,0.2176,1.315,1.7982,0.4833,A,-0.1
413,0.50114,0.1,1,0.3675,0.22551,0.85194,413,2.28854,-0.32,-0.15869,0.34245,5,1D2U,2.0,True,0.305,54,True,right,-0.08352,0.4182,0.6592,0.2409,1.6016,1.9182,0.3165,A,-0.1
414,0.50114,0.1,1,0.3508,0.24222,0.57631,414,2.01292,-0.32,-0.15869,0.34245,5,1D2U,2.0,True,0.264,54,True,right,0.16705,0.4,0.6416,0.2416,1.1837,1.7498,0.5661,A,-0.1
415,0.50114,0.1,2,0.21716,0.44267,0.67654,415,2.39712,0.12,0.05847,0.55961,5,2D1U,1.0,False,0.112,56,True,left,-0.25057,1.2671,1.7257,0.4586,0.3925,0.5425,0.1499,A,-0.1
416,0.50114,1.2,1,0.40091,0.25892,0.41762,416,1.93774,-0.28,-0.14199,0.35915,5,1D2U,2.0,True,0.293,54,False,right,0.08352,0.4475,0.6976,0.2501,1.1233,1.5975,0.4742,A,-0.105
417,0.50114,1.2,1,0.23387,0.3508,0.5429,417,2.20502,0.16,0.08352,0.57631,5,2D1U,2.0,False,0.188,57,True,right,-0.08352,0.2844,0.7502,0.4659,1.385,1.6926,0.3076,A,-0.105
418,0.50114,1.2,2,0.29233,0.21716,0.58466,418,2.19666,0.2,0.10023,0.60137,5,2D1U,2.0,True,0.302,57,False,right,0.16705,1.4538,1.9454,0.4916,0.262,0.8209,0.5588,A,-0.105
419,0.50114,1.2,1,0.30904,0.31739,0.44267,419,1.92939,-0.28,-0.14199,0.35915,5,1D2U,1.0,False,0.483,54,False,left,-0.25057,0.3624,0.6118,0.2493,1.2291,1.3711,0.142,A,-0.105
420,0.50114,0.1,2,0.40926,0.20046,0.50114,420,2.21337,0.2,0.10023,0.60137,5,2D1U,2.0,True,0.234,57,False,right,0.08352,1.4498,1.949,0.4992,0.4164,0.8993,0.4829,A,-0.1
421,0.50114,0.1,2,0.24222,0.38421,0.58466,421,2.05468,-0.32,-0.15869,0.34245,5,1D2U,1.0,True,0.124,55,True,left,-0.08352,1.2815,1.5232,0.2418,0.3314,0.6478,0.3163,A,-0.1
422,0.50114,0.1,1,0.20046,0.27563,0.60972,422,1.9294,-0.32,-0.15869,0.34245,5,1D2U,2.0,True,0.275,55,True,right,0.16705,0.2463,0.4882,0.2419,1.0621,1.6297,0.5676,A,-0.1
423,0.50114,0.1,1,0.20046,0.34245,0.69324,423,2.09644,-0.28,-0.14199,0.35915,5,1D2U,1.0,False,0.222,56,True,left,-0.25057,0.2521,0.5107,0.2586,1.3773,1.5275,0.1502,A,-0.1
424,0.50114,1.2,2,0.44267,0.30904,0.67654,424,2.5057,0.16,0.08352,0.57631,5,2D1U,1.0,False,0.231,58,True,left,0.08352,1.6477,2.1144,0.4667,0.4477,0.9227,0.475,A,-0.105
425,0.50114,1.2,2,0.22551,0.29233,0.50949,425,2.12984,0.2,0.10023,0.60137,5,2D1U,2.0,True,0.148,59,True,right,-0.08352,1.186,1.6776,0.4916,0.3191,0.627,0.3079,A,-0.105
426,0.50114,1.2,1,0.3675,0.21716,0.57631,426,2.00456,-0.32,-0.15869,0.34245,5,1D2U,2.0,True,0.299,57,True,right,0.16705,0.4156,0.6489,0.2333,1.1905,1.7489,0.5583,A,-0.105
427,0.50114,1.2,1,0.40091,0.3675,0.86864,427,2.73956,0.2,0.10023,0.60137,5,2D1U,1.0,True,0.243,59,True,left,-0.25057,0.4462,0.9378,0.4916,1.9798,2.1214,0.1416,A,-0.105
428,0.50114,0.1,1,0.32574,0.39256,0.59302,428,2.15491,-0.32,-0.15869,0.34245,5,1D2U,2.0,True,0.152,57,True,right,0.08352,0.3728,0.6147,0.2418,1.2145,1.6978,0.4834,A,-0.1
429,0.50114,0.1,2,0.23387,0.3675,0.70995,429,2.38877,0.16,0.08352,0.57631,5,2D1U,2.0,True,0.109,60,True,right,-0.08352,1.3969,1.8716,0.4747,0.3223,0.6382,0.3158,A,-0.1
430,0.50114,0.1,2,0.33409,0.24222,0.73501,430,2.38877,0.16,0.08352,0.57631,5,2D1U,2.0,True,0.259,60,True,right,0.16705,1.6511,2.1255,0.4743,0.3008,0.8678,0.5671,A,-0.1
431,0.50114,0.1,1,0.30068,0.43432,0.57631,431,2.37206,0.12,0.05847,0.55961,5,2D1U,1.0,True,0.166,60,False,left,-0.25057,0.3462,0.8034,0.4572,1.5537,1.7039,0.1502,A,-0.1
432,0.50114,1.2,1,0.3675,0.40091,0.70995,432,2.33865,-0.28,-0.14199,0.35915,5,1D2U,2.0,True,0.205,58,True,right,0.08352,0.4187,0.6691,0.2504,1.3859,1.8602,0.4743,A,-0.105
433,0.50114,1.2,1,0.27563,0.35915,0.63478,433,2.12985,-0.28,-0.14199,0.35915,5,1D2U,2.0,True,0.158,58,True,right,-0.08352,0.3256,0.5763,0.2507,1.3009,1.6102,0.3092,A,-0.105
434,0.50114,1.2,2,0.41762,0.40926,0.76841,434,2.65604,0.12,0.05847,0.55961,5,2D1U,2.0,True,0.183,60,False,right,0.16705,1.7551,2.2051,0.45,0.3801,0.9384,0.5583,A,-0.105
435,0.50114,1.2,1,0.45103,0.3508,0.40091,435,2.07973,-0.24,-0.11693,0.37585,5,1D2U,1.0,False,0.208,58,False,left,-0.25057,0.5013,0.7673,0.2659,1.3434,1.4846,0.1412,A,-0.105
436,0.50114,0.1,2,0.27563,0.21716,0.50114,436,1.85422,-0.28,-0.14199,0.35915,5,1D2U,1.0,True,0.349,59,True,left,0.08352,1.3138,1.5726,0.2588,0.2809,0.7634,0.4826,A,-0.1
437,0.50114,0.1,2,0.34245,0.26727,0.7016,437,2.35536,0.08,0.04176,0.5429,5,2D1U,2.0,True,0.261,60,False,right,-0.08352,1.4969,1.938,0.4411,0.4304,0.7466,0.3162,A,-0.1
438,0.50114,0.1,2,0.3675,0.40926,0.83523,438,2.47228,-0.28,-0.14199,0.35915,5,1D2U,1.0,True,0.254,59,True,left,0.16705,1.7864,2.0442,0.2579,0.3358,0.9027,0.5669,A,-0.1
439,0.50114,0.1,1,0.26727,0.3675,0.60137,439,2.28018,0.08,0.04176,0.5429,5,2D1U,1.0,True,0.132,60,False,left,-0.25057,0.3144,0.7563,0.4419,1.5313,1.6813,0.15,A,-0.1
440,0.50114,1.2,1,0.33409,0.40926,0.7016,440,2.32194,-0.24,-0.11693,0.37585,5,1D2U,2.0,True,0.122,60,True,right,0.08352,0.3814,0.6487,0.2673,1.3575,1.8321,0.4746,A,-0.105
441,0.50114,1.2,2,0.23387,0.21716,0.75171,441,2.22172,0.04,0.0167,0.51784,5,2D1U,2.0,True,0.267,60,False,right,-0.08352,1.43,1.8381,0.4082,0.3223,0.63,0.3076,A,-0.105
442,0.50114,1.2,1,0.37585,0.27563,0.61807,442,2.14654,-0.24,-0.11693,0.37585,5,1D2U,2.0,True,0.224,60,True,right,0.16705,0.4267,0.6937,0.267,1.277,1.8359,0.5589,A,-0.105
443,0.50114,1.2,1,0.23387,0.21716,0.66819,443,2.02127,-0.2,-0.10023,0.40091,5,1D2U,1.0,False,0.257,60,False,left,-0.25057,0.2851,0.5762,0.2912,1.4183,1.56,0.1417,A,-0.105
444,0.50114,0.1,1,0.44267,0.33409,0.41762,444,2.21336,0.04,0.0167,0.51784,5,2D1U,1.0,True,0.197,60,False,left,0.08352,0.4896,0.9059,0.4163,1.3309,1.8144,0.4835,A,-0.1
445,0.50114,0.1,2,0.39256,0.28398,0.80182,445,2.35535,-0.24,-0.11693,0.37585,5,1D2U,1.0,True,0.25,61,True,left,-0.08352,1.6529,1.9276,0.2748,0.4858,0.8021,0.3163,A,-0.1
446,0.50114,0.1,2,0.41762,0.20046,0.75171,446,2.37207,-0.0,0.0,0.50114,5,2D1U,2.0,False,0.378,60,False,right,0.16705,1.7492,2.1493,0.4001,0.3826,0.9494,0.5668,A,-0.1
447,0.50114,0.1,1,0.40926,0.30068,0.87699,447,2.46392,-0.24,-0.11693,0.37585,5,1D2U,1.0,False,0.158,61,True,left,-0.25057,0.4576,0.732,0.2744,1.7819,1.9326,0.1507,A,-0.1
448,0.50114,1.2,1,0.39256,0.45103,0.46773,448,2.17161,-0.28,-0.14199,0.35915,5,1D2U,2.0,True,0.159,61,False,right,0.08352,0.4378,0.6878,0.25,1.1628,1.6376,0.4748,A,-0.105
449,0.50114,1.2,1,0.28398,0.30068,0.81853,449,2.26348,-0.28,-0.14199,0.35915,5,1D2U,2.0,True,0.232,61,False,right,-0.08352,0.3322,0.582,0.2498,1.491,1.799,0.308,A,-0.105
450,0.50114,1.2,1,0.34245,0.31739,0.58466,450,2.24678,-0.0,0.0,0.50114,5,2D1U,1.0,False,0.195,60,False,left,0.16705,0.3929,0.7849,0.3919,1.3346,1.8931,0.5585,A,-0.105
451,0.50114,1.2,1,0.22551,0.30904,0.70995,451,2.22172,-0.04,-0.0167,0.47608,5,2D1U,1.0,False,0.233,60,False,left,-0.25057,0.2712,0.6376,0.3664,1.5207,1.6623,0.1415,A,-0.105
452,0.50114,0.1,1,0.44267,0.30904,0.49279,452,2.22172,-0.04,-0.0167,0.47608,5,2D1U,1.0,False,0.167,60,False,left,0.08352,0.4887,0.8637,0.375,1.3635,1.8475,0.484,A,-0.1
453,0.50114,0.1,2,0.34245,0.20881,0.76006,453,2.18831,-0.24,-0.11693,0.37585,5,1D2U,1.0,True,0.306,62,True,left,-0.08352,1.5557,1.8307,0.275,0.4309,0.7476,0.3166,A,-0.1
454,0.50114,0.1,1,0.40091,0.33409,0.53455,454,2.14654,-0.24,-0.11693,0.37585,5,1D2U,2.0,True,0.26,62,True,right,0.16705,0.4478,0.7221,0.2744,1.222,1.7881,0.5661,A,-0.1
455,0.50114,0.1,2,0.43432,0.25892,0.7016,455,2.29689,-0.2,-0.10023,0.40091,5,1D2U,2.0,False,0.203,62,False,right,-0.25057,1.5118,1.8115,0.2998,0.6111,0.7607,0.1496,A,-0.1
456,0.50114,1.2,2,0.20881,0.3508,0.7016,456,2.1382,-0.24,-0.11693,0.37585,5,1D2U,1.0,True,0.248,63,True,left,0.08352,1.4384,1.7048,0.2664,0.2133,0.6882,0.4749,A,-0.105
457,0.50114,1.2,1,0.20881,0.35915,0.79347,457,2.32195,-0.08,-0.04176,0.45938,5,2D1U,1.0,False,0.117,60,False,left,-0.08352,0.2551,0.6051,0.35,1.4884,1.7964,0.308,A,-0.105
458,0.50114,1.2,1,0.44267,0.28398,0.47608,458,2.16325,-0.08,-0.04176,0.45938,5,2D1U,2.0,True,0.264,60,False,right,0.16705,0.4874,0.8377,0.3502,1.2795,1.8383,0.5588,A,-0.105
459,0.50114,1.2,1,0.28398,0.29233,0.45103,459,1.90433,-0.24,-0.11693,0.37585,5,1D2U,1.0,False,0.337,63,True,left,-0.25057,0.3332,0.5997,0.2665,1.2253,1.3669,0.1416,A,-0.105
460,0.50114,0.1,1,0.23387,0.22551,0.60137,460,2.03797,-0.04,-0.0167,0.47608,5,2D1U,1.0,False,0.281,61,True,left,0.08352,0.2856,0.661,0.3754,1.2692,1.7525,0.4834,A,-0.1
461,0.50114,0.1,2,0.38421,0.3508,0.51784,461,2.23007,-0.04,-0.0167,0.47608,5,2D1U,1.0,True,0.112,61,True,left,-0.08352,1.3561,1.731,0.3749,0.4725,0.789,0.3166,A,-0.1
462,0.50114,0.1,1,0.30068,0.42597,0.51784,462,2.24677,-0.0,0.0,0.50114,5,2D1U,2.0,False,0.175,61,False,right,0.16705,0.352,0.7519,0.3998,1.2357,1.8025,0.5668,A,-0.1
463,0.50114,0.1,1,0.33409,0.23387,0.41762,463,1.84587,-0.28,-0.14199,0.35915,5,1D2U,1.0,False,0.325,63,False,left,-0.25057,0.3864,0.6449,0.2585,1.2364,1.3862,0.1497,A,-0.1
464,0.50114,1.2,2,0.40091,0.45103,0.66819,464,2.53911,0.04,0.0167,0.51784,5,2D1U,1.0,False,0.11,61,False,left,0.08352,1.6021,2.0107,0.4086,0.4115,0.8853,0.4738,A,-0.105
465,0.50114,1.2,2,0.40926,0.26727,0.58466,465,2.30523,0.08,0.04176,0.5429,5,2D1U,2.0,True,0.183,61,False,right,-0.08352,1.4428,1.8763,0.4334,0.5013,0.8094,0.308,A,-0.105
466,0.50114,1.2,1,0.24222,0.29233,0.8937,466,2.27184,-0.32,-0.15869,0.34245,5,1D2U,2.0,True,0.229,63,False,right,0.16705,0.29,0.5234,0.2334,1.3817,1.94,0.5583,A,-0.105
467,0.50114,1.2,2,0.23387,0.30068,0.84359,467,2.22173,-0.32,-0.15869,0.34245,5,1D2U,2.0,False,0.11,63,False,right,-0.25057,1.4395,1.6728,0.2332,0.4063,0.5478,0.1415,A,-0.105
468,0.50114,0.1,2,0.32574,0.22551,0.67654,468,2.04632,-0.36,-0.18375,0.31739,5,1D2U,1.0,True,0.32,63,False,left,0.08352,1.5378,1.7542,0.2163,0.329,0.8122,0.4833,A,-0.1
469,0.50114,0.1,2,0.44267,0.39256,0.60137,469,2.48064,0.08,0.04176,0.5429,5,2D1U,2.0,True,0.125,61,False,right,-0.08352,1.5026,1.9438,0.4412,0.536,0.8527,0.3167,A,-0.1
470,0.50114,0.1,2,0.32574,0.20881,0.77677,470,2.3303,0.04,0.0167,0.51784,5,2D1U,1.0,False,0.325,62,True,left,0.16705,1.6815,2.0984,0.417,0.2898,0.8565,0.5668,A,-0.1
471,0.50114,0.1,2,0.30904,0.38421,0.85194,471,2.58923,0.08,0.04176,0.5429,5,2D1U,2.0,True,0.115,63,True,right,-0.25057,1.5366,1.9782,0.4416,0.4868,0.6365,0.1497,A,-0.1
472,0.50114,1.2,1,0.44267,0.23387,0.73501,472,2.23008,-0.36,-0.18375,0.31739,5,1D2U,2.0,True,0.226,63,False,right,0.08352,0.4902,0.6976,0.2074,1.4403,1.9146,0.4743,A,-0.105
473,0.50114,1.2,1,0.3675,0.25892,0.80182,473,2.47228,0.08,0.04176,0.5429,5,2D1U,1.0,True,0.167,63,True,left,-0.08352,0.42,0.8529,0.4329,1.7447,2.0529,0.3082,A,-0.105
474,0.50114,1.2,1,0.30904,0.26727,0.50949,474,1.92939,-0.32,-0.15869,0.34245,5,1D2U,2.0,True,0.28,64,True,right,0.16705,0.3565,0.5898,0.2333,1.065,1.6236,0.5585,A,-0.105
475,0.50114,1.2,1,0.26727,0.42597,0.51784,475,2.05467,-0.32,-0.15869,0.34245,5,1D2U,1.0,False,0.146,64,True,left,-0.25057,0.3194,0.5531,0.2337,1.245,1.3863,0.1413,A,-0.105
476,0.50114,0.1,1,0.22551,0.41762,0.47608,476,2.13819,0.04,0.0167,0.51784,5,2D1U,1.0,True,0.115,64,True,left,0.08352,0.2712,0.687,0.4158,1.1711,1.6546,0.4835,A,-0.1
477,0.50114,0.1,1,0.40091,0.21716,0.47608,477,1.91268,-0.36,-0.18375,0.31739,5,1D2U,1.0,False,0.257,65,True,left,-0.08352,0.4502,0.6669,0.2167,1.2332,1.5501,0.3169,A,-0.1
478,0.50114,0.1,1,0.33409,0.27563,0.7183,478,2.12984,-0.4,-0.20046,0.30068,5,1D2U,2.0,True,0.258,65,False,right,0.16705,0.3816,0.5814,0.1998,1.2646,1.8316,0.567,A,-0.1
479,0.50114,0.1,2,0.34245,0.20881,0.86029,479,2.43053,0.04,0.0167,0.51784,5,2D1U,2.0,True,0.307,64,True,right,-0.25057,1.5702,1.987,0.4168,0.5123,0.6617,0.1495,A,-0.1
480,0.50114,1.2,1,0.39256,0.23387,0.57631,480,2.00456,-0.4,-0.20046,0.30068,5,1D2U,2.0,True,0.183,65,False,right,0.08352,0.4386,0.6304,0.1918,1.2139,1.6889,0.4749,A,-0.105
481,0.50114,1.2,2,0.20881,0.28398,0.69324,481,2.18831,-0.0,0.0,0.50114,5,2D1U,1.0,False,0.161,64,False,left,-0.08352,1.3523,1.7447,0.3923,0.3027,0.6112,0.3086,A,-0.105
482,0.50114,1.2,1,0.25892,0.20046,0.67654,482,2.1549,0.04,0.0167,0.51784,5,2D1U,2.0,False,0.153,65,True,right,0.16705,0.3047,0.7129,0.4082,1.3547,1.9131,0.5584,A,-0.105
483,0.50114,1.2,2,0.34245,0.34245,0.53455,483,2.26349,0.08,0.04176,0.5429,5,2D1U,2.0,True,0.487,65,False,right,-0.25057,1.2437,1.6773,0.4336,0.5191,0.6604,0.1414,A,-0.105
484,0.50114,0.1,2,0.41762,0.40926,0.65983,484,2.30524,-0.36,-0.18375,0.31739,5,1D2U,1.0,True,0.222,66,True,left,0.08352,1.6196,1.8362,0.2167,0.4276,0.9109,0.4832,A,-0.1
485,0.50114,0.1,1,0.25892,0.41762,0.60972,485,2.3303,0.08,0.04176,0.5429,5,2D1U,1.0,True,0.114,65,False,left,-0.08352,0.3086,0.7493,0.4407,1.4499,1.7673,0.3173,A,-0.1
486,0.50114,0.1,1,0.27563,0.34245,0.8937,486,2.33031,-0.36,-0.18375,0.31739,5,1D2U,2.0,True,0.163,66,True,right,0.16705,0.3236,0.5401,0.2165,1.3984,1.9651,0.5667,A,-0.1
487,0.50114,0.1,1,0.30068,0.3508,0.41762,487,1.91269,-0.32,-0.15869,0.34245,5,1D2U,1.0,False,0.133,66,False,left,-0.25057,0.353,0.595,0.2419,1.186,1.3366,0.1506,A,-0.1
488,0.50114,1.2,2,0.27563,0.3675,0.81018,488,2.47229,0.04,0.0167,0.51784,5,2D1U,1.0,False,0.2,66,True,left,0.08352,1.6164,2.0245,0.4081,0.2826,0.7575,0.4749,A,-0.105
489,0.50114,1.2,1,0.25892,0.23387,0.5262,489,2.06303,0.08,0.04176,0.5429,5,2D1U,2.0,False,0.225,67,True,right,-0.08352,0.3106,0.7432,0.4326,1.3602,1.6689,0.3086,A,-0.105
490,0.50114,1.2,2,0.3675,0.43432,0.60972,490,2.23007,-0.36,-0.18375,0.31739,5,1D2U,1.0,True,0.201,67,True,left,0.16705,1.5475,1.7564,0.2089,0.3305,0.8897,0.5593,A,-0.105
491,0.50114,1.2,1,0.37585,0.40926,0.40091,491,2.00455,-0.36,-0.18375,0.31739,5,1D2U,1.0,False,0.11,67,True,left,-0.25057,0.4232,0.6317,0.2085,1.2064,1.3482,0.1418,A,-0.105
492,0.50114,0.1,1,0.27563,0.33409,0.88535,492,2.55582,0.12,0.05847,0.55961,5,2D1U,1.0,True,0.177,67,False,left,0.08352,0.3231,0.7811,0.458,1.6735,2.1569,0.4833,A,-0.1
493,0.50114,0.1,2,0.34245,0.3508,0.81018,493,2.56418,0.12,0.05847,0.55961,5,2D1U,1.0,False,0.129,67,False,left,-0.08352,1.6063,2.0646,0.4583,0.4316,0.7475,0.3158,A,-0.1
494,0.50114,0.1,1,0.22551,0.42597,0.86029,494,2.31359,-0.4,-0.20046,0.30068,5,1D2U,2.0,True,0.114,67,False,right,0.16705,0.2777,0.4782,0.2005,1.3026,1.8697,0.5671,A,-0.1
495,0.50114,0.1,1,0.43432,0.35915,0.49279,495,2.36371,0.16,0.08352,0.57631,5,2D1U,1.0,True,0.193,67,False,left,-0.25057,0.4791,0.9541,0.475,1.6208,1.7709,0.1501,A,-0.1
496,0.50114,1.2,1,0.26727,0.25057,0.60137,496,1.92103,-0.4,-0.20046,0.30068,5,1D2U,2.0,True,0.259,67,False,right,0.08352,0.3144,0.5065,0.1921,1.1147,1.589,0.4744,A,-0.105
497,0.50114,1.2,1,0.40091,0.37585,0.5429,497,2.39711,0.16,0.08352,0.57631,5,2D1U,1.0,True,0.197,67,False,left,-0.08352,0.4473,0.9141,0.4668,1.5476,1.8557,0.3081,A,-0.105
498,0.50114,1.2,1,0.40091,0.44267,0.46773,498,2.12984,-0.36,-0.18375,0.31739,5,1D2U,2.0,True,0.113,68,True,right,0.16705,0.4474,0.6556,0.2082,1.0882,1.6474,0.5592,A,-0.105
499,0.50114,1.2,2,0.25057,0.26727,0.84359,499,2.42218,0.12,0.05847,0.55961,5,2D1U,2.0,True,0.143,68,True,right,-0.25057,1.4565,1.9065,0.45,0.423,0.5647,0.1417,A,-0.105
500,0.50114,0.1,1,0.44267,0.26727,0.41762,500,2.18831,0.12,0.05847,0.55961,5,2D1U,1.0,True,0.25,68,True,left,0.08352,0.4941,0.9522,0.4581,1.3772,1.86,0.4828,A,-0.1
501,0.50114,0.1,2,0.32574,0.42597,0.45938,501,2.02962,-0.36,-0.18375,0.31739,5,1D2U,1.0,True,0.227,68,True,left,-0.08352,1.241,1.4577,0.2167,0.4163,0.732,0.3158,A,-0.1
502,0.50114,0.1,1,0.38421,0.39256,0.48444,502,2.30525,0.08,0.04176,0.5429,5,2D1U,2.0,False,0.142,68,False,right,0.16705,0.4289,0.8707,0.4418,1.3205,1.8866,0.5661,A,-0.1
503,0.50114,0.1,1,0.34245,0.38421,0.86864,503,2.43889,-0.32,-0.15869,0.34245,5,1D2U,1.0,False,0.123,68,False,left,-0.25057,0.3889,0.63,0.2412,1.6721,1.8216,0.1495,A,-0.1
504,0.50114,1.2,2,0.33409,0.43432,0.59302,504,2.42218,0.12,0.05847,0.55961,5,2D1U,2.0,True,0.113,69,True,right,0.08352,1.4543,1.9051,0.4508,0.3374,0.8126,0.4752,A,-0.105
505,0.50114,1.2,1,0.30068,0.23387,0.41762,505,1.7707,-0.36,-0.18375,0.31739,5,1D2U,2.0,True,0.284,69,True,right,-0.08352,0.3524,0.5604,0.208,1.0691,1.3774,0.3083,A,-0.105
506,0.50114,1.2,2,0.27563,0.44267,0.61807,506,2.39712,0.12,0.05847,0.55961,5,2D1U,1.0,False,0.181,69,True,left,0.16705,1.4641,1.9131,0.449,0.2388,0.7971,0.5582,A,-0.105
507,0.50114,1.2,2,0.24222,0.32574,0.90205,507,2.54746,0.16,0.08352,0.57631,5,2D1U,2.0,True,0.115,69,False,right,-0.25057,1.5057,1.972,0.4663,0.4137,0.5548,0.1412,A,-0.105
508,0.50114,0.1,2,0.42597,0.24222,0.87699,508,2.36371,-0.36,-0.18375,0.31739,5,1D2U,1.0,True,0.323,69,True,left,0.08352,1.8397,2.0564,0.2167,0.4312,0.9148,0.4836,A,-0.1
509,0.50114,0.1,2,0.40926,0.43432,0.7016,509,2.62263,0.16,0.08352,0.57631,5,2D1U,2.0,True,0.112,69,False,right,-0.08352,1.5638,2.039,0.4752,0.4972,0.814,0.3168,A,-0.1
510,0.50114,0.1,2,0.25057,0.26727,0.47608,510,1.83751,-0.32,-0.15869,0.34245,5,1D2U,1.0,True,0.122,70,True,left,0.16705,1.3074,1.5489,0.2415,0.2154,0.782,0.5666,A,-0.1
511,0.50114,0.1,2,0.41762,0.39256,0.57631,511,2.44724,0.12,0.05847,0.55961,5,2D1U,2.0,True,0.643,70,True,right,-0.25057,1.3659,1.824,0.4581,0.5905,0.7402,0.1497,A,-0.1
512,0.50114,1.2,2,0.38421,0.40926,0.45103,512,2.08809,-0.32,-0.15869,0.34245,5,1D2U,1.0,True,0.302,70,True,left,0.08352,1.3627,1.5967,0.234,0.3878,0.8627,0.4749,A,-0.105
513,0.50114,1.2,1,0.35915,0.41762,0.68489,513,2.52241,0.12,0.05847,0.55961,5,2D1U,2.0,False,0.113,70,True,right,-0.08352,0.4094,0.8597,0.4503,1.6341,1.943,0.3089,A,-0.105
514,0.50114,1.2,2,0.26727,0.20881,0.76841,514,2.32194,0.16,0.08352,0.57631,5,2D1U,1.0,False,0.263,71,True,left,0.16705,1.6095,2.0761,0.4666,0.2348,0.7939,0.559,A,-0.105
515,0.50114,1.2,1,0.43432,0.41762,0.43432,515,2.38877,0.2,0.10023,0.60137,5,2D1U,1.0,True,0.155,71,False,left,-0.25057,0.4791,0.9711,0.4919,1.5796,1.7214,0.1418,A,-0.105
516,0.50114,0.1,2,0.30068,0.29233,0.48444,516,1.93774,-0.28,-0.14199,0.35915,5,1D2U,1.0,True,0.263,70,False,left,0.08352,1.321,1.5788,0.2578,0.3045,0.787,0.4825,A,-0.1
517,0.50114,0.1,2,0.35915,0.23387,0.61807,517,2.3136,0.2,0.10023,0.60137,5,2D1U,1.0,False,0.245,71,False,left,-0.08352,1.4366,1.9366,0.5,0.4525,0.7695,0.317,A,-0.1
518,0.50114,0.1,1,0.27563,0.38421,0.53455,518,2.05468,-0.28,-0.14199,0.35915,5,1D2U,2.0,True,0.135,70,False,right,0.16705,0.3229,0.5804,0.2575,1.0815,1.6469,0.5654,A,-0.1
519,0.50114,0.1,2,0.33409,0.37585,0.60972,519,2.43887,0.24,0.11693,0.61807,5,2D1U,2.0,True,0.115,71,False,right,-0.25057,1.3189,1.8357,0.5167,0.5114,0.6618,0.1504,A,-0.1
520,0.50114,1.2,2,0.38421,0.39256,0.69324,520,2.58922,0.24,0.11693,0.61807,5,2D1U,1.0,False,0.208,71,False,left,0.08352,1.6044,2.1128,0.5084,0.388,0.8634,0.4754,A,-0.105
521,0.50114,1.2,1,0.30904,0.35915,0.47608,521,2.28854,0.28,0.14199,0.64313,5,2D1U,1.0,True,0.131,71,False,left,-0.08352,0.3589,0.8923,0.5334,1.4591,1.7672,0.3081,A,-0.105
522,0.50114,1.2,2,0.41762,0.24222,0.82688,522,2.63099,0.28,0.14199,0.64313,5,2D1U,1.0,False,0.283,71,False,left,0.16705,1.8167,2.3504,0.5337,0.3835,0.9421,0.5586,A,-0.105
523,0.50114,1.2,2,0.40091,0.39256,0.69324,523,2.3637,-0.24,-0.11693,0.37585,5,1D2U,1.0,True,0.115,70,False,left,-0.25057,1.4572,1.7231,0.2659,0.5731,0.7147,0.1417,A,-0.105
524,0.50114,0.1,1,0.41762,0.20881,0.82688,524,2.3303,-0.24,-0.11693,0.37585,5,1D2U,2.0,True,0.293,70,False,right,0.08352,0.4622,0.7364,0.2742,1.57,2.0535,0.4835,A,-0.1
525,0.50114,0.1,2,0.45103,0.45103,0.76006,525,2.56417,-0.2,-0.10023,0.40091,5,1D2U,1.0,True,0.108,70,False,left,-0.08352,1.663,1.9632,0.3002,0.5379,0.8549,0.3171,A,-0.1
526,0.50114,0.1,2,0.31739,0.40926,0.55961,526,2.44723,0.32,0.15869,0.65983,5,2D1U,1.0,False,0.183,71,False,left,0.16705,1.4566,2.0152,0.5586,0.2819,0.8486,0.5667,A,-0.1
527,0.50114,0.1,2,0.25892,0.24222,0.40926,527,2.08808,0.36,0.18375,0.67654,5,2D1U,2.0,True,0.115,71,False,right,-0.25057,1.0425,1.6178,0.5753,0.4345,0.5852,0.1507,A,-0.1
528,0.50114,1.2,2,0.30904,0.42597,0.50949,528,2.14655,-0.2,-0.10023,0.40091,5,1D2U,1.0,True,0.409,70,False,left,0.08352,1.3463,1.6389,0.2926,0.3135,0.7884,0.4749,A,-0.105
529,0.50114,1.2,2,0.20881,0.21716,0.46773,529,1.81246,-0.16,-0.08352,0.41762,5,1D2U,1.0,True,0.381,70,False,left,-0.08352,1.1222,1.4308,0.3086,0.297,0.6056,0.3086,A,-0.105
530,0.50114,1.2,2,0.44267,0.35915,0.42597,530,2.14655,-0.16,-0.08352,0.41762,5,1D2U,2.0,False,0.33,70,False,right,0.16705,1.4387,1.7468,0.3082,0.4055,0.9638,0.5583,A,-0.105
531,0.50114,1.2,1,0.3675,0.29233,0.69324,531,2.25512,-0.2,-0.10023,0.40091,5,1D2U,1.0,False,0.29,71,True,left,-0.25057,0.4151,0.706,0.291,1.5734,1.7149,0.1416,A,-0.105
532,0.50114,0.1,1,0.43432,0.37585,0.46773,532,2.15489,-0.24,-0.11693,0.37585,5,1D2U,2.0,True,0.647,71,False,right,0.08352,0.4842,0.7586,0.2745,1.2345,1.7174,0.4829,A,-0.1
533,0.50114,0.1,1,0.25057,0.25892,0.47608,533,1.86256,-0.24,-0.11693,0.37585,5,1D2U,2.0,True,0.272,71,False,right,-0.08352,0.3005,0.5744,0.274,1.1419,1.4583,0.3164,A,-0.1
534,0.50114,0.1,1,0.3675,0.28398,0.53455,534,2.08808,-0.2,-0.10023,0.40091,5,1D2U,2.0,True,0.238,72,True,right,0.16705,0.4147,0.7136,0.2989,1.2144,1.7808,0.5663,A,-0.1
535,0.50114,0.1,1,0.45103,0.32574,0.80182,535,2.48064,-0.2,-0.10023,0.40091,5,1D2U,1.0,False,0.148,72,True,left,-0.25057,0.5037,0.8035,0.2998,1.7783,1.9284,0.15,A,-0.1
536,0.50114,1.2,1,0.27563,0.3675,0.8937,536,2.41382,-0.24,-0.11693,0.37585,5,1D2U,2.0,True,0.248,73,True,right,0.08352,0.3246,0.5916,0.267,1.4913,1.9663,0.4749,A,-0.105
537,0.50114,1.2,2,0.25892,0.41762,0.69324,537,2.24677,-0.24,-0.11693,0.37585,5,1D2U,1.0,True,0.335,73,True,left,-0.08352,1.3986,1.6653,0.2667,0.3484,0.6564,0.308,A,-0.105
538,0.50114,1.2,2,0.35915,0.25892,0.76006,538,2.28018,-0.2,-0.10023,0.40091,5,1D2U,2.0,False,0.433,74,True,right,0.16705,1.6951,1.9862,0.2911,0.3279,0.8864,0.5585,A,-0.105
539,0.50114,1.2,1,0.42597,0.44267,0.48444,539,2.23007,-0.24,-0.11693,0.37585,5,1D2U,1.0,False,0.125,75,True,left,-0.25057,0.4733,0.7389,0.2655,1.3977,1.5395,0.1418,A,-0.105
540,0.50114,0.1,2,0.24222,0.45103,0.77677,540,2.33031,-0.28,-0.14199,0.35915,5,1D2U,1.0,True,0.125,75,False,left,0.08352,1.5551,1.8133,0.2582,0.2468,0.73,0.4832,A,-0.1
541,0.50114,0.1,2,0.37585,0.26727,0.78512,541,2.28853,-0.28,-0.14199,0.35915,5,1D2U,1.0,True,0.291,75,False,left,-0.08352,1.6135,1.8721,0.2586,0.464,0.7806,0.3166,A,-0.1
542,0.50114,0.1,2,0.44267,0.26727,0.45938,542,2.04631,-0.24,-0.11693,0.37585,5,1D2U,1.0,True,0.383,76,True,left,0.16705,1.4863,1.7613,0.275,0.4119,0.9785,0.5665,A,-0.1
543,0.50114,0.1,1,0.41762,0.20046,0.86029,543,2.35536,-0.24,-0.11693,0.37585,5,1D2U,1.0,False,0.474,76,True,left,-0.25057,0.4707,0.7448,0.2741,1.7787,1.9286,0.15,A,-0.1
0,0.50194,1.2,2,0.21751,0.34299,0.69435,0,2.05796,-0.406,-0.20078,0.30117,5,2D1U,1.0,True,0.364,0,False,left,0.25097,1.5266,1.7183,0.1918,0.1428,0.7847,0.6419,A,-0.105
1,0.50194,1.2,1,0.41829,0.20914,0.66926,1,2.0998,-0.406,-0.20078,0.30117,5,1D2U,2.0,True,0.224,0,False,right,0.0,0.4653,0.6571,0.1918,1.3741,1.766,0.3919,A,-0.105
2,0.50194,0.1,2,0.42665,0.2928,0.81147,2,2.98655,0.9,0.45175,0.95369,5,lapse_rate,2.0,True,0.113,0,False,right,-0.16731,1.6452,2.4944,0.8492,0.5534,0.7869,0.2335,A,-0.1
3,0.50194,1.2,2,0.44338,0.38482,0.78638,3,2.41769,-0.406,-0.20078,0.30117,5,1D2U,1.0,True,0.236,0,False,left,0.25097,1.8408,2.0322,0.1915,0.3659,1.0071,0.6413,A,-0.105
4,0.50194,0.1,1,0.34299,0.40155,0.51867,4,2.14161,-0.246,-0.12549,0.37646,5,2D1U,2.0,True,0.112,0,False,right,0.0,0.3933,0.668,0.2747,1.2343,1.6345,0.4002,A,-0.1
5,0.50194,0.1,2,0.3179,0.25934,0.80311,5,2.3424,-0.086,-0.04183,0.46011,5,2D1U,2.0,False,0.175,0,False,right,-0.16731,1.5287,1.8865,0.3579,0.445,0.6783,0.2333,A,-0.1
6,0.50194,0.1,2,0.40992,0.2928,0.46011,6,1.96594,-0.4059999999999999,-0.20078,0.30117,5,lapse_rate,1.0,True,0.284,0,False,left,0.25097,1.4936,1.6944,0.2007,0.3356,0.9855,0.6498,A,-0.1
7,0.50194,0.1,1,0.38482,0.45175,0.75291,7,2.46788,-0.246,-0.12549,0.37646,5,1D2U,2.0,True,0.116,0,False,right,0.0,0.4318,0.7072,0.2755,1.5071,1.9073,0.4002,A,-0.1
8,0.50194,1.2,2,0.21751,0.44338,0.62743,8,2.25037,-0.086,-0.04183,0.46011,5,2D1U,2.0,False,0.113,0,False,right,-0.16731,1.2477,1.597,0.3493,0.3478,0.5727,0.2249,A,-0.105
9,0.50194,1.2,1,0.35136,0.21751,0.54377,9,1.99104,-0.246,-0.12549,0.37646,5,1D2U,2.0,True,0.272,0,False,right,0.25097,0.3991,0.6663,0.2671,1.1327,1.7741,0.6414,A,-0.105
10,0.50194,0.1,1,0.3179,0.24261,0.8533,10,2.21692,-0.4059999999999999,-0.20078,0.30117,5,lapse_rate,2.0,True,0.299,0,False,right,0.0,0.3664,0.5665,0.2,1.4659,1.8658,0.3999,A,-0.1
11,0.50194,1.2,1,0.36809,0.43502,0.60233,11,2.36749,-0.086,-0.04183,0.46011,5,1D2U,1.0,False,0.468,0,False,left,-0.16731,0.4134,0.7634,0.35,1.4967,1.7215,0.2248,A,-0.105
12,0.50194,0.1,2,0.40992,0.25934,0.70272,12,2.29221,-0.166,-0.08366,0.41829,5,2D1U,1.0,True,0.342,1,True,left,0.25097,1.7309,2.0479,0.317,0.3313,0.9813,0.65,A,-0.1
13,0.50194,1.2,1,0.42665,0.34299,0.69435,13,2.2671,-0.4059999999999999,-0.20078,0.30117,5,lapse_rate,2.0,True,0.23,0,False,right,0.0,0.4735,0.6658,0.1923,1.4068,1.7986,0.3918,A,-0.105
14,0.50194,0.1,2,0.44338,0.38482,0.70272,14,2.46788,-0.126,-0.06693,0.43502,5,2D1U,2.0,False,0.113,2,True,right,-0.16731,1.5594,1.8923,0.3329,0.5759,0.8094,0.2335,A,-0.1
15,0.50194,0.1,2,0.44338,0.20078,0.44338,15,2.00777,-0.166,-0.08366,0.41829,5,1D2U,1.0,True,0.333,1,True,left,0.25097,1.5047,1.8219,0.3172,0.363,1.0131,0.6501,A,-0.1
16,0.50194,0.1,2,0.37646,0.35136,0.50194,16,2.68539,0.9,0.45175,0.95369,5,lapse_rate,2.0,True,0.154,0,False,right,0.0,1.3723,2.223,0.8507,0.4239,0.823,0.3991,A,-0.1
17,0.50194,1.2,1,0.21751,0.30953,0.67762,17,2.12489,-0.166,-0.08366,0.41829,5,1D2U,1.0,False,0.262,1,True,left,-0.16731,0.2681,0.5765,0.3085,1.3852,1.6099,0.2247,A,-0.105
18,0.50194,0.1,2,0.33463,0.3179,0.87003,18,2.32567,-0.4059999999999999,-0.20078,0.30117,5,lapse_rate,1.0,True,0.358,0,False,left,0.25097,1.8208,2.0209,0.2001,0.2543,0.9038,0.6495,A,-0.1
19,0.50194,1.2,2,0.44338,0.25934,0.46011,19,2.09979,-0.126,-0.06693,0.43502,5,2D1U,1.0,True,0.252,2,True,left,0.0,1.3891,1.7134,0.3243,0.4891,0.8806,0.3915,A,-0.105
20,0.50194,1.2,2,0.27607,0.2928,0.57723,20,2.10815,-0.086,-0.04183,0.46011,5,2D1U,1.0,True,0.174,2,False,left,-0.16731,1.2617,1.6117,0.35,0.4117,0.6369,0.2252,A,-0.105
21,0.50194,0.1,2,0.22587,0.30117,0.8784,21,2.20855,-0.4059999999999999,-0.20078,0.30117,5,lapse_rate,1.0,True,0.359,0,False,left,0.25097,1.7237,1.9236,0.2,0.1484,0.7986,0.6502,A,-0.1
22,0.50194,0.1,1,0.2928,0.42665,0.88677,22,2.48462,-0.246,-0.12549,0.37646,5,1D2U,2.0,True,0.145,1,False,right,0.0,0.3406,0.6149,0.2743,1.549,1.9493,0.4004,A,-0.1
23,0.50194,1.2,1,0.2677,0.2677,0.5856,23,1.92411,-0.4059999999999999,-0.20078,0.30117,5,lapse_rate,1.0,False,0.332,0,False,left,-0.16731,0.3189,0.5112,0.1923,1.2274,1.4528,0.2255,A,-0.105
24,0.50194,0.1,1,0.38482,0.35973,0.51867,24,2.24201,-0.046,-0.0251,0.47685,5,2D1U,1.0,False,0.151,2,False,left,0.25097,0.4308,0.8054,0.3745,1.2475,1.8969,0.6494,A,-0.1
25,0.50194,0.1,1,0.38482,0.32626,0.72782,25,2.3173,-0.246,-0.12549,0.37646,5,1D2U,2.0,True,0.116,1,False,right,0.0,0.43,0.7052,0.2752,1.4807,1.8803,0.3996,A,-0.1
26,0.50194,1.2,1,0.32626,0.38482,0.66089,26,2.2671,-0.206,-0.10039,0.39319,5,1D2U,1.0,False,0.175,2,True,left,-0.16731,0.3706,0.6541,0.2835,1.4455,1.6706,0.2251,A,-0.105
27,0.50194,1.2,1,0.21751,0.3179,0.63579,27,2.14999,-0.046,-0.0251,0.47685,5,2D1U,2.0,True,0.281,2,False,right,0.25097,0.262,0.6288,0.3668,1.1871,1.8288,0.6417,A,-0.105
28,0.50194,1.2,1,0.2928,0.45175,0.66926,28,2.86944,0.9,0.45175,0.95369,5,lapse_rate,1.0,True,0.115,0,False,left,0.0,0.344,1.1857,0.8417,1.9026,2.294,0.3914,A,-0.105
29,0.50194,1.2,1,0.22587,0.24261,0.57723,29,1.92411,-0.246,-0.12549,0.37646,5,1D2U,1.0,False,0.237,3,True,left,-0.16731,0.2713,0.5379,0.2666,1.2461,1.4709,0.2248,A,-0.105
30,0.50194,1.2,2,0.32626,0.35136,0.50194,30,2.63519,0.9,0.45175,0.95369,5,lapse_rate,2.0,True,0.268,0,False,right,0.25097,1.4396,2.2816,0.842,0.2477,0.8895,0.6418,A,-0.105
31,0.50194,0.1,1,0.40992,0.41829,0.42665,31,2.25038,-0.006,0.0,0.49358,5,2D1U,1.0,False,0.11,2,False,left,0.0,0.4572,0.8486,0.3914,1.3238,1.724,0.4001,A,-0.1
32,0.50194,0.1,2,0.36809,0.36809,0.70272,32,2.43442,-0.006,0.0,0.49358,5,2D1U,1.0,True,0.213,2,False,left,-0.16731,1.4793,1.8714,0.3921,0.4958,0.7292,0.2334,A,-0.1
33,0.50194,0.1,2,0.2677,0.22587,0.83657,33,2.78577,0.9,0.45175,0.95369,5,lapse_rate,2.0,True,0.259,0,False,right,0.25097,1.7275,2.5774,0.8499,0.194,0.8436,0.6496,A,-0.1
34,0.50194,0.1,2,0.25097,0.30117,0.75291,34,2.16672,-0.286,-0.14222,0.35973,5,1D2U,1.0,True,0.217,3,False,left,0.0,1.5038,1.7615,0.2577,0.3027,0.7032,0.4005,A,-0.1
35,0.50194,1.2,1,0.21751,0.40992,0.5856,35,2.23364,0.034,0.01673,0.51867,5,2D1U,1.0,True,0.113,2,False,left,-0.16731,0.2645,0.6727,0.4082,1.3887,1.6144,0.2257,A,-0.105
36,0.50194,1.2,2,0.35973,0.22587,0.64416,36,2.68539,0.9,0.45175,0.95369,5,lapse_rate,2.0,True,2.638,0,False,right,0.25097,1.6121,2.4547,0.8426,0.2789,0.9207,0.6418,A,-0.105
37,0.50194,1.2,1,0.43502,0.20078,0.86167,37,2.35914,-0.286,-0.14222,0.35973,5,1D2U,2.0,True,0.286,3,False,right,0.0,0.4871,0.737,0.2499,1.6449,2.0368,0.3919,A,-0.105
38,0.50194,1.2,2,0.27607,0.43502,0.55214,38,2.06634,-0.4059999999999999,-0.20078,0.30117,5,lapse_rate,1.0,True,0.205,0,False,left,-0.16731,1.2361,1.4278,0.1917,0.4107,0.6361,0.2254,A,-0.105
39,0.50194,1.2,2,0.24261,0.2928,0.81984,39,2.23365,-0.246,-0.12549,0.37646,5,1D2U,1.0,True,0.291,4,True,left,0.25097,1.6734,1.9394,0.266,0.165,0.8061,0.6411,A,-0.105
40,0.50194,0.1,2,0.3179,0.20078,0.45175,40,1.99104,0.034,0.01673,0.51867,5,2D1U,2.0,True,0.294,2,False,right,0.0,1.2654,1.6809,0.4155,0.3649,0.7654,0.4005,A,-0.1
41,0.50194,0.1,2,0.34299,0.20914,0.72782,41,2.15835,-0.246,-0.12549,0.37646,5,1D2U,1.0,True,0.247,4,True,left,-0.16731,1.4817,1.7572,0.2755,0.4732,0.7064,0.2333,A,-0.1
42,0.50194,0.1,1,0.40992,0.20914,0.47685,42,1.89902,-0.4059999999999999,-0.20078,0.30117,5,lapse_rate,2.0,True,0.36,0,False,right,0.25097,0.4545,0.654,0.1995,1.054,1.7033,0.6493,A,-0.1
43,0.50194,0.1,2,0.21751,0.23424,0.86167,43,2.30894,-0.006,0.0,0.49358,5,2D1U,1.0,True,0.23,3,True,left,0.0,1.5702,1.9619,0.3917,0.2619,0.6619,0.4,A,-0.1
44,0.50194,0.1,1,0.23424,0.30953,0.80311,44,2.80251,0.9,0.45175,0.95369,5,lapse_rate,1.0,True,0.192,0,False,left,-0.16731,0.2794,1.129,0.8496,2.0632,2.2964,0.2331,A,-0.1
