,Unnamed: 0,standardDur,audNoise,order,preDur,postDur,isiDur,trial_num,totalDur,delta_dur_percents,deltaDurS,testDurS,intensities,current_stair,responses,is_correct,response_rts,stair_num_reversal,stair_is_reversal,response_keys,conflictDur,recordedOnsetVisualTest,recordedOffsetVisualTest,recordedDurVisualTest,recordedOnsetVisualStandard,recordedOffsetVisualStandard,recordedDurVisualStandard,modalityPostCue
0,0,0.50196,1.2,2,0.32628,0.28445,0.71948,0,1.88237,-0.9,-0.45177,0.0502,5,2D1U,1.0,True,0.56,0,False,left,0.0,1.5362,1.5861,0.0498,0.3196,0.8196,0.5,V
1,1,0.50196,0.1,1,0.25098,0.27608,0.85334,1,1.93256,-0.9,-0.45177,0.0502,5,3D1U,2.0,True,18.258,0,False,right,0.0,0.2461,0.2963,0.0502,1.146,1.6468,0.5008,V
2,2,0.50196,0.1,1,0.24262,0.25935,0.76968,2,2.72734,0.9,0.45177,0.95373,5,lapse_rate,1.0,True,0.34,0,False,left,0.0,0.243,1.1928,0.9498,1.9606,2.4601,0.4996,A
3,3,0.50196,1.2,1,0.33464,0.26771,0.56052,3,1.79869,-0.74,-0.36811,0.13386,5,3D1U,2.0,True,1.132,0,False,right,0.0,0.3287,0.4628,0.1341,1.0203,1.521,0.5008,V
4,4,0.50196,0.1,2,0.21752,0.4434,0.75294,4,1.96602,-0.9,-0.45177,0.0502,5,1D2U,1.0,True,0.743,0,False,left,0.0,1.4618,1.5117,0.0499,0.2126,0.7127,0.5001,V
5,5,0.50196,1.2,1,0.32628,0.28445,0.42667,5,1.58956,-0.9,-0.45177,0.0502,5,1D3U,2.0,True,0.985,0,False,right,0.0,0.3244,0.3737,0.0492,0.7985,1.2991,0.5006,V
6,6,0.50196,0.1,1,0.32628,0.34301,0.66092,6,1.96603,-0.74,-0.36811,0.13386,5,2D1U,2.0,True,0.403,0,False,right,0.0,0.3292,0.4616,0.1324,1.1194,1.6197,0.5003,A
7,7,0.50196,0.1,2,0.35137,0.4434,0.73621,7,2.98667,0.9,0.45177,0.95373,5,lapse_rate,2.0,True,0.108,0,False,right,0.0,1.5789,2.5284,0.9495,0.3458,0.8452,0.4993,A
8,8,0.50196,1.2,1,0.34301,0.40157,0.66928,8,1.96602,-0.9,-0.45177,0.0502,5,1D3U,2.0,True,0.454,0,False,right,0.0,0.3445,0.3953,0.0508,1.0613,1.5614,0.5001,V
9,9,0.50196,0.1,2,0.29281,0.36811,0.79477,9,2.1668,-0.58,-0.29281,0.20915,5,3D1U,1.0,True,0.364,0,False,left,0.0,1.5858,1.7942,0.2084,0.2939,0.7944,0.5005,V
10,10,0.50196,1.2,2,0.45177,0.21752,0.66092,10,2.04132,-0.58,-0.29281,0.20915,5,2D1U,2.0,False,0.44,0,False,right,0.0,1.6053,1.8138,0.2085,0.4474,0.9478,0.5004,V
11,11,0.50196,0.1,2,0.20078,0.38484,0.69438,11,1.83216,-0.9,-0.45177,0.0502,5,1D2U,1.0,True,0.542,0,False,left,0.0,1.39,1.4396,0.0496,0.1976,0.6989,0.5013,V
12,12,0.50196,1.2,1,0.43503,0.37647,0.54379,12,2.15006,-0.42,-0.20915,0.29281,5,3D1U,2.0,True,0.382,0,False,right,0.0,0.4358,0.7277,0.2918,1.2699,1.7695,0.4996,A
13,13,0.50196,0.1,2,0.35137,0.43503,0.84497,13,2.34248,-0.58,-0.29281,0.20915,5,2D1U,1.0,True,0.354,0,False,left,0.0,1.6883,1.8967,0.2083,0.3463,0.8467,0.5004,A
14,14,0.50196,1.2,1,0.20915,0.20915,0.73621,14,2.6102,0.9,0.45177,0.95373,5,lapse_rate,2.0,False,0.382,0,False,right,0.0,0.2109,1.1614,0.9504,1.8948,2.3953,0.5005,A
15,15,0.50196,1.2,1,0.31791,0.3932,0.8366,15,2.18353,-0.74,-0.36811,0.13386,5,1D2U,1.0,False,0.613,0,False,left,0.0,0.3148,0.4474,0.1326,1.2815,1.7817,0.5002,V
16,16,0.50196,0.1,2,0.35137,0.31791,0.60235,16,1.82379,-0.9,-0.45177,0.0502,5,1D3U,1.0,True,0.486,0,False,left,0.0,1.4456,1.4946,0.049,0.3456,0.8457,0.5001,A
17,17,0.50196,1.2,1,0.25098,0.32628,0.70275,17,2.07478,-0.42,-0.20915,0.29281,5,2D1U,2.0,True,0.391,0,False,right,0.0,0.2464,0.5373,0.291,1.2375,1.7383,0.5008,V
18,18,0.50196,0.1,1,0.3932,0.24262,0.51033,18,1.74014,-0.82,-0.40994,0.09203,5,1D2U,1.0,False,1.693,1,True,left,0.0,0.3903,0.4813,0.091,0.9904,1.4899,0.4996,A
19,19,0.50196,1.2,2,0.31791,0.32628,0.51869,19,1.7987,-0.74,-0.36811,0.13386,5,1D3U,1.0,True,0.646,0,False,left,0.0,1.3289,1.4618,0.1329,0.3121,0.8119,0.4998,V
20,20,0.50196,0.1,2,0.43503,0.23425,0.51869,20,2.05804,-0.26,-0.13386,0.36811,5,3D1U,1.0,True,0.705,0,False,left,0.0,1.4472,1.814,0.3667,0.4301,0.9303,0.5001,A
21,21,0.50196,0.1,2,0.20915,0.23425,0.87843,21,2.77752,0.9,0.45177,0.95373,5,lapse_rate,2.0,True,0.392,0,False,right,0.0,1.5792,2.5285,0.9492,0.2042,0.7043,0.5,V
22,22,0.50196,1.2,1,0.25935,0.26771,0.50196,22,1.98275,-0.1,-0.0502,0.45177,5,3D1U,2.0,True,0.464,0,False,right,0.0,0.2604,0.7103,0.4499,1.2106,1.7101,0.4995,V
23,23,0.50196,0.1,1,0.20915,0.35974,0.77804,23,1.89909,-0.9,-0.45177,0.0502,5,1D2U,2.0,True,0.28,1,False,right,0.0,0.2052,0.2555,0.0503,1.0306,1.5303,0.4997,V
24,24,0.50196,1.2,1,0.20078,0.36811,0.61909,24,1.8238,-0.74,-0.36811,0.13386,5,1D3U,2.0,True,0.367,0,False,right,0.0,0.2027,0.3362,0.1335,0.9535,1.4528,0.4992,A
25,25,0.50196,1.2,1,0.25935,0.29281,0.62745,25,1.73177,-0.9,-0.45177,0.0502,5,lapse_rate,2.0,True,0.366,0,False,right,0.0,0.2605,0.3109,0.0505,0.9366,1.4358,0.4993,V
26,26,0.50196,0.1,1,0.22588,0.20078,0.73621,26,2.03294,-0.26,-0.13386,0.36811,5,2D1U,2.0,True,0.396,0,False,right,0.0,0.2211,0.5874,0.3663,1.3214,1.8212,0.4998,A
27,27,0.50196,1.2,1,0.34301,0.4434,0.4936,27,2.7357,0.9,0.45177,0.95373,5,lapse_rate,2.0,False,0.39,0,False,right,0.0,0.3412,1.2916,0.9504,1.7835,2.2829,0.4994,V
28,28,0.50196,1.2,1,0.38484,0.43503,0.4936,28,1.94929,-0.74,-0.36811,0.13386,5,1D3U,2.0,True,0.678,0,False,right,0.0,0.3816,0.5152,0.1336,1.0058,1.5066,0.5007,V
29,29,0.50196,0.1,2,0.4183,0.35974,0.60235,29,2.33412,-0.1,-0.0502,0.45177,5,2D1U,1.0,True,0.292,0,False,left,0.0,1.5166,1.9671,0.4505,0.4166,0.9169,0.5003,V
30,30,0.50196,1.2,2,0.21752,0.35974,0.40994,30,1.53936,-0.9,-0.45177,0.0502,5,1D2U,2.0,False,0.928,1,False,right,0.0,1.1252,1.1747,0.0495,0.2161,0.7164,0.5003,V
31,31,0.50196,0.1,1,0.25935,0.25935,0.84497,31,2.39269,0.06,0.03346,0.52706,5,3D1U,1.0,True,0.509,0,False,left,0.0,0.2575,0.7821,0.5246,1.6247,2.1241,0.4994,V
32,32,0.50196,1.2,2,0.25098,0.25935,0.70275,32,2.2421,0.06,0.03346,0.52706,5,2D1U,1.0,False,0.529,0,False,left,0.0,1.4523,1.977,0.5248,0.2515,0.7517,0.5002,V
33,33,0.50196,0.1,2,0.26771,0.42667,0.76131,33,2.1668,-0.58,-0.29281,0.20915,5,1D3U,1.0,True,0.392,0,False,left,0.0,1.5222,1.7305,0.2084,0.264,0.7633,0.4994,A
34,34,0.50196,0.1,1,0.29281,0.30118,0.71948,34,1.86563,-0.9,-0.45177,0.0502,5,lapse_rate,2.0,True,0.343,0,False,right,0.0,0.2951,0.345,0.05,1.0611,1.5613,0.5002,A
35,35,0.50196,1.2,2,0.25098,0.21752,0.81987,35,1.84053,-0.9,-0.45177,0.0502,5,1D2U,1.0,True,3.1,1,False,left,0.0,1.5631,1.6131,0.0499,0.2462,0.7458,0.4996,V
36,36,0.50196,0.1,2,0.30954,0.32628,0.4183,36,2.08314,0.06,0.03346,0.52706,5,3D1U,2.0,True,0.261,0,False,right,0.0,1.2234,1.7474,0.524,0.3063,0.8059,0.4996,V
37,37,0.50196,1.2,1,0.42667,0.35974,0.52706,37,1.86563,-0.9,-0.45177,0.0502,5,1D2U,2.0,True,0.239,1,False,right,0.0,0.426,0.4762,0.0502,1.0007,1.502,0.5013,V
38,38,0.50196,0.1,2,0.33464,0.30954,0.73621,38,2.40941,0.06,0.03346,0.52706,5,3D1U,1.0,False,0.31,0,False,left,0.0,1.5665,2.0917,0.5253,0.333,0.8328,0.4998,A
39,39,0.50196,1.2,2,0.35137,0.20915,0.4434,39,2.1166,0.22,0.10876,0.61072,5,2D1U,2.0,True,0.4,0,False,right,0.0,1.289,1.897,0.608,0.3468,0.8471,0.5002,A
40,40,0.50196,0.1,2,0.43503,0.25935,0.76131,40,2.1668,-0.58,-0.29281,0.20915,5,1D3U,1.0,True,0.486,0,False,left,0.0,1.6893,1.8971,0.2078,0.4308,0.9306,0.4998,V
41,41,0.50196,1.2,2,0.30954,0.33464,0.58562,41,2.68549,0.9,0.45177,0.95373,5,lapse_rate,2.0,True,0.281,0,False,right,0.0,1.3944,2.3435,0.9491,0.3107,0.8108,0.5001,A
42,42,0.50196,1.2,1,0.4434,0.28445,0.70275,42,1.98276,-0.9,-0.45177,0.0502,5,lapse_rate,2.0,True,0.42,0,False,right,0.0,0.444,0.4946,0.0507,1.1945,1.6947,0.5002,V
43,43,0.50196,1.2,2,0.33464,0.43503,0.61072,43,1.94928,-0.86,-0.42667,0.06693,5,1D2U,1.0,True,0.423,2,True,left,0.0,1.4419,1.5087,0.0668,0.3335,0.8333,0.4998,V
44,44,0.50196,0.1,2,0.22588,0.28445,0.64419,44,2.2672,0.22,0.10876,0.61072,5,3D1U,1.0,False,0.41,0,False,left,0.0,1.3694,1.9782,0.6089,0.2273,0.7278,0.5004,A
45,45,0.50196,1.2,2,0.4434,0.37647,0.75294,45,2.68549,0.22,0.10876,0.61072,5,2D1U,2.0,True,0.257,0,False,right,0.0,1.6938,2.3075,0.6137,0.4444,0.9448,0.5004,V
46,46,0.50196,0.1,2,0.4183,0.21752,0.73621,46,2.08314,-0.58,-0.29281,0.20915,5,1D3U,1.0,True,0.488,0,False,left,0.0,1.6454,1.8542,0.2088,0.4121,0.9122,0.5001,V
47,47,0.50196,1.2,2,0.45177,0.23425,0.43503,47,2.30903,0.38,0.19242,0.68602,5,3D1U,2.0,True,0.355,0,False,right,0.0,1.3851,2.0679,0.6828,0.4508,0.9515,0.5007,V
48,48,0.50196,0.1,1,0.31791,0.22588,0.48523,48,2.48471,0.9,0.45177,0.95373,5,lapse_rate,1.0,True,0.413,0,False,left,0.0,0.3181,1.2676,0.9495,1.7506,2.2512,0.5006,A
49,49,0.50196,0.1,1,0.26771,0.21752,0.74458,49,1.7987,-0.86,-0.42667,0.06693,5,1D2U,2.0,True,0.319,2,True,right,0.0,0.2629,0.3289,0.066,1.0705,1.5707,0.5002,A
50,50,0.50196,1.2,1,0.28445,0.34301,0.77804,50,2.20027,-0.42,-0.20915,0.29281,5,1D3U,2.0,True,0.259,0,False,right,0.0,0.2845,0.5768,0.2922,1.3515,1.8514,0.4999,V
51,51,0.50196,0.1,1,0.30954,0.38484,0.70275,51,2.46798,0.14,0.06693,0.56889,5,2D1U,1.0,True,0.232,1,True,left,0.0,0.3054,0.8723,0.5669,1.5727,2.0725,0.4998,A
52,52,0.50196,1.2,1,0.22588,0.30118,0.52706,52,1.84889,-0.42,-0.20915,0.29281,5,1D3U,2.0,True,0.579,0,False,right,0.0,0.2198,0.5113,0.2915,1.0368,1.5378,0.501,V
53,53,0.50196,0.1,1,0.4183,0.21752,0.87843,53,2.10824,-0.82,-0.40994,0.09203,5,1D2U,1.0,False,1.265,2,False,left,0.0,0.412,0.5042,0.0922,1.379,1.8795,0.5005,A
54,54,0.50196,1.2,1,0.29281,0.30118,0.62745,54,2.29229,0.14,0.06693,0.56889,5,2D1U,2.0,False,0.545,1,True,right,0.0,0.2909,0.8578,0.5669,1.4824,1.9832,0.5008,A
55,55,0.50196,0.1,2,0.20915,0.20078,0.85334,55,1.81543,-0.9,-0.45177,0.0502,5,lapse_rate,1.0,True,0.524,0,False,left,0.0,1.5583,1.6077,0.0494,0.2081,0.7084,0.5003,V
56,56,0.50196,0.1,1,0.36811,0.36811,0.58562,56,2.50982,0.38,0.19242,0.68602,5,3D1U,1.0,True,0.376,0,False,left,0.0,0.3678,1.0509,0.6831,1.6344,2.1345,0.5001,V
57,57,0.50196,1.2,2,0.42667,0.22588,0.8617,57,2.70223,0.38,0.19242,0.68602,5,3D1U,1.0,False,0.242,0,False,left,0.0,1.7839,2.4681,0.6842,0.4263,0.9261,0.4998,V
58,58,0.50196,0.1,1,0.24262,0.38484,0.87007,58,2.04969,-0.9,-0.45177,0.0502,5,lapse_rate,2.0,True,0.276,0,False,right,0.0,0.2371,0.2872,0.0501,1.1538,1.6538,0.5,V
59,59,0.50196,0.1,1,0.36811,0.30954,0.76131,59,2.53491,0.18,0.09203,0.59399,5,2D1U,1.0,True,0.377,2,True,left,0.0,0.3665,0.9591,0.5926,1.7171,2.2172,0.5001,A
60,60,0.50196,1.2,2,0.36811,0.35137,0.71948,60,2.23373,-0.42,-0.20915,0.29281,5,1D3U,1.0,True,0.459,0,False,left,0.0,1.5804,1.8722,0.2918,0.3638,0.8641,0.5003,A
61,61,0.50196,0.1,1,0.4183,0.37647,0.84497,61,2.20863,-0.86,-0.42667,0.06693,5,1D2U,2.0,True,0.275,3,True,right,0.0,0.4192,0.4857,0.0665,1.3275,1.8277,0.5002,V
62,62,0.50196,1.2,1,0.35137,0.43503,0.79477,62,2.45124,-0.26,-0.13386,0.36811,5,1D3U,2.0,True,0.308,0,False,right,0.0,0.3528,0.7198,0.3671,1.5113,2.0113,0.4999,A
63,63,0.50196,0.1,2,0.26771,0.37647,0.62745,63,2.54327,0.54,0.26771,0.76968,5,3D1U,2.0,True,0.108,0,False,right,0.0,1.3927,2.1597,0.767,0.2682,0.7677,0.4996,A
64,64,0.50196,1.2,2,0.4434,0.36811,0.56889,64,1.94929,-0.86,-0.42667,0.06693,5,1D2U,1.0,True,0.626,3,True,left,0.0,1.5064,1.573,0.0667,0.4395,0.9399,0.5005,A
65,65,0.50196,0.1,2,0.23425,0.3932,0.71948,65,2.44288,0.18,0.09203,0.59399,5,2D1U,2.0,True,0.342,2,True,right,0.0,1.447,2.0388,0.5918,0.2304,0.73,0.4996,V
66,66,0.50196,1.2,1,0.31791,0.3932,0.47686,66,1.74013,-0.9,-0.45177,0.0502,5,lapse_rate,1.0,False,0.742,0,False,left,0.0,0.3125,0.363,0.0505,0.8374,1.3382,0.5007,A
67,67,0.50196,1.2,2,0.23425,0.20915,0.4685,67,2.18354,0.54,0.26771,0.76968,5,3D1U,2.0,True,0.427,0,False,right,0.0,1.1981,1.9648,0.7667,0.2316,0.7315,0.4999,V
68,68,0.50196,0.1,1,0.29281,0.29281,0.81151,68,1.94929,-0.9,-0.45177,0.0502,5,lapse_rate,2.0,True,0.44,0,False,right,0.0,0.2928,0.343,0.0501,1.1512,1.651,0.4998,V
69,69,0.50196,0.1,2,0.24262,0.40994,0.71111,69,2.43452,0.14,0.06693,0.56889,5,2D1U,2.0,True,0.444,3,True,right,0.0,1.4475,2.0143,0.5668,0.2395,0.7396,0.5002,A
70,70,0.50196,1.2,1,0.21752,0.20915,0.80314,70,1.8238,-0.82,-0.40994,0.09203,5,1D2U,2.0,True,0.413,4,True,right,0.0,0.2181,0.3093,0.0912,1.1101,1.6099,0.4998,A
71,71,0.50196,0.1,1,0.4434,0.34301,0.57726,71,2.23374,-0.26,-0.13386,0.36811,5,1D3U,2.0,True,0.386,0,False,right,0.0,0.4444,0.8105,0.3661,1.3859,1.8859,0.5,A
72,72,0.50196,1.2,1,0.31791,0.43503,0.81987,72,2.64366,0.14,0.06693,0.56889,5,2D1U,1.0,True,0.518,3,True,left,0.0,0.3187,0.8845,0.5658,1.702,2.202,0.5,V
73,73,0.50196,0.1,2,0.24262,0.32628,0.56889,73,2.00786,-0.26,-0.13386,0.36811,5,1D3U,1.0,True,0.432,0,False,left,0.0,1.3055,1.6726,0.3672,0.2398,0.7394,0.4996,A
74,74,0.50196,1.2,2,0.30954,0.24262,0.52706,74,1.67321,-0.82,-0.40994,0.09203,5,1D2U,1.0,True,0.624,4,True,left,0.0,1.3334,1.4252,0.0918,0.3089,0.8087,0.4998,V
75,75,0.50196,0.1,1,0.36811,0.30118,0.68602,75,1.90747,-0.9,-0.45177,0.0502,5,lapse_rate,2.0,True,0.286,0,False,right,0.0,0.364,0.4136,0.0496,1.0967,1.5969,0.5002,V
76,76,0.50196,0.1,2,0.26771,0.3932,0.55216,76,2.48471,0.54,0.26771,0.76968,5,3D1U,2.0,True,0.306,0,False,right,0.0,1.3167,2.0847,0.7681,0.2674,0.7669,0.4994,A
77,77,0.50196,1.2,1,0.20915,0.45177,0.61909,77,1.89073,-0.78,-0.3932,0.10876,5,1D2U,2.0,True,0.45,4,False,right,0.0,0.21,0.3185,0.1085,0.9351,1.4356,0.5005,V
78,78,0.50196,0.1,2,0.28445,0.23425,0.77804,78,2.75243,0.9,0.45177,0.95373,5,lapse_rate,2.0,True,0.434,0,False,right,0.0,1.556,2.5051,0.9491,0.2812,0.7807,0.4995,A
79,79,0.50196,0.1,1,0.28445,0.27608,0.47686,79,2.2672,0.46,0.22588,0.72785,5,3D1U,1.0,True,0.385,1,True,left,0.0,0.2837,1.0091,0.7254,1.4841,1.9836,0.4995,A
80,80,0.50196,1.2,2,0.31791,0.40157,0.70275,80,2.47635,0.1,0.0502,0.55216,5,2D1U,2.0,True,0.403,3,False,right,0.0,1.5114,2.0621,0.5507,0.3124,0.8122,0.4998,V
81,81,0.50196,0.1,1,0.35137,0.25098,0.42667,81,1.98275,-0.1,-0.0502,0.45177,5,1D3U,1.0,False,0.363,0,False,left,0.0,0.3498,0.8,0.4502,1.2247,1.7242,0.4996,A
82,82,0.50196,1.2,1,0.25935,0.26771,0.81987,82,2.25883,-0.18,-0.09203,0.40994,5,1D3U,1.0,False,0.509,1,True,left,0.0,0.2579,0.6664,0.4085,1.4833,1.9829,0.4997,A
83,83,0.50196,0.1,1,0.40994,0.4434,0.90353,83,2.81099,0.1,0.0502,0.55216,5,2D1U,1.0,True,0.3,3,False,left,0.0,0.4098,0.9601,0.5503,1.8601,2.3602,0.5001,A
84,84,0.50196,1.2,1,0.27608,0.30118,0.40994,84,1.53936,-0.9,-0.45177,0.0502,5,lapse_rate,1.0,False,1.089,0,False,left,0.0,0.2701,0.3202,0.0502,0.7289,1.2283,0.4994,V
85,85,0.50196,1.2,1,0.31791,0.35974,0.63582,85,2.54328,0.46,0.22588,0.72785,5,3D1U,1.0,True,0.328,1,True,left,0.0,0.3198,1.044,0.7242,1.6777,2.1779,0.5002,A
86,86,0.50196,0.1,1,0.24262,0.30954,0.70275,86,1.86563,-0.78,-0.3932,0.10876,5,1D2U,1.0,False,1.206,4,False,left,0.0,0.2368,0.3453,0.1085,1.0456,1.5454,0.4997,V
87,87,0.50196,1.2,2,0.38484,0.42667,0.56889,87,2.40942,0.06,0.03346,0.52706,5,2D1U,2.0,True,0.403,3,False,right,0.0,1.4477,1.9727,0.525,0.3807,0.8811,0.5004,V
88,88,0.50196,0.1,2,0.33464,0.29281,0.59399,88,2.45125,0.46,0.22588,0.72785,5,3D1U,2.0,True,0.447,1,True,right,0.0,1.4203,2.1459,0.7257,0.3295,0.8295,0.5,V
89,89,0.50196,1.2,2,0.21752,0.30118,0.82824,89,1.94093,-0.82,-0.40994,0.09203,5,1D2U,1.0,True,0.586,5,True,left,0.0,1.543,1.6351,0.0921,0.218,0.7181,0.5,V
90,90,0.50196,1.2,1,0.29281,0.30954,0.67765,90,2.73569,0.9,0.45177,0.95373,5,lapse_rate,1.0,True,0.346,0,False,left,0.0,0.2935,1.2443,0.9507,1.9199,2.4198,0.4999,V
91,91,0.50196,0.1,1,0.42667,0.28445,0.47686,91,2.05805,-0.26,-0.13386,0.36811,5,1D3U,1.0,False,0.498,1,False,left,0.0,0.4279,0.7943,0.3663,1.2701,1.7702,0.5001,V
92,92,0.50196,1.2,2,0.31791,0.40994,0.8868,92,2.64367,0.06,0.03346,0.52706,5,2D1U,2.0,True,0.373,3,False,right,0.0,1.6977,2.2229,0.5251,0.3147,0.8144,0.4997,A
93,93,0.50196,1.2,1,0.28445,0.20078,0.64419,93,1.68158,-0.9,-0.45177,0.0502,5,lapse_rate,2.0,True,0.484,0,False,right,0.0,0.2834,0.3335,0.0501,0.9753,1.4754,0.5001,A
94,94,0.50196,0.1,2,0.25098,0.30954,0.87007,94,2.02458,-0.82,-0.40994,0.09203,5,1D2U,1.0,True,0.416,5,True,left,0.0,1.615,1.7064,0.0914,0.2477,0.7476,0.4999,A
95,95,0.50196,1.2,2,0.36811,0.23425,0.45177,95,2.24211,0.38,0.19242,0.68602,5,3D1U,2.0,True,0.364,1,False,right,0.0,1.3202,2.0027,0.6825,0.3696,0.8695,0.4999,A
96,96,0.50196,0.1,1,0.3932,0.29281,0.68602,96,2.20027,-0.34,-0.16732,0.32628,5,1D3U,2.0,True,0.382,1,False,right,0.0,0.3943,0.7195,0.3252,1.4027,1.9028,0.5001,V
97,97,0.50196,1.2,1,0.26771,0.36811,0.76968,97,2.41779,0.02,0.00837,0.51033,5,2D1U,2.0,False,0.296,3,False,right,0.0,0.262,0.7709,0.509,1.5377,2.037,0.4994,V
98,98,0.50196,1.2,2,0.33464,0.25935,0.51033,98,2.56001,0.9,0.45177,0.95373,5,lapse_rate,2.0,True,0.275,0,False,right,0.0,1.3373,2.2862,0.9489,0.3287,0.8291,0.5004,V
99,99,0.50196,0.1,2,0.43503,0.42667,0.72785,99,2.41779,-0.34,-0.16732,0.32628,5,1D3U,1.0,True,0.277,1,False,left,0.0,1.659,1.9848,0.3258,0.4339,0.9347,0.5008,A
100,100,0.50196,1.2,2,0.24262,0.37647,0.74458,100,2.55165,0.38,0.19242,0.68602,5,3D1U,2.0,True,0.347,1,False,right,0.0,1.4853,2.1686,0.6833,0.2436,0.7432,0.4997,V
101,101,0.50196,0.1,2,0.28445,0.38484,0.60235,101,1.88236,-0.78,-0.3932,0.10876,5,1D2U,1.0,True,0.384,6,True,left,0.0,1.3788,1.4875,0.1087,0.2798,0.7795,0.4998,V
102,102,0.50196,1.2,2,0.34301,0.38484,0.71111,102,2.2672,-0.34,-0.16732,0.32628,5,1D3U,1.0,True,0.292,1,False,left,0.0,1.552,1.8782,0.3262,0.3442,0.8439,0.4997,V
103,103,0.50196,0.1,1,0.25098,0.22588,0.75294,103,2.41778,0.38,0.19242,0.68602,5,3D1U,1.0,True,0.326,1,False,left,0.0,0.2466,0.9298,0.6832,1.6805,2.1802,0.4997,A
104,104,0.50196,1.2,2,0.25098,0.26771,0.48523,104,1.61464,-0.78,-0.3932,0.10876,5,1D2U,1.0,True,0.902,6,True,left,0.0,1.23,1.3383,0.1083,0.2465,0.747,0.5005,A
105,105,0.50196,0.1,2,0.34301,0.35137,0.48523,105,2.20863,0.06,0.03346,0.52706,5,2D1U,1.0,False,0.247,4,True,left,0.0,1.3251,1.8498,0.5247,0.3414,0.8412,0.4998,V
106,106,0.50196,0.1,1,0.4183,0.23425,0.67765,106,1.88236,-0.9,-0.45177,0.0502,5,lapse_rate,2.0,True,0.301,0,False,right,0.0,0.4154,0.465,0.0497,1.1401,1.6399,0.4998,A
107,107,0.50196,1.2,1,0.27608,0.33464,0.76968,107,2.43452,0.1,0.0502,0.55216,5,2D1U,1.0,True,0.279,4,False,left,0.0,0.2748,0.8247,0.55,1.5907,2.091,0.5004,V
108,108,0.50196,0.1,2,0.38484,0.3932,0.51033,108,2.1417,-0.3,-0.15059,0.35137,5,1D3U,1.0,True,0.307,2,True,left,0.0,1.3882,1.7386,0.3503,0.3802,0.8809,0.5007,V
109,109,0.50196,1.2,2,0.29281,0.25935,0.79477,109,1.98275,-0.74,-0.36811,0.13386,5,1D2U,1.0,True,0.586,6,False,left,0.0,1.5859,1.7188,0.133,0.2943,0.7945,0.5001,V
110,110,0.50196,0.1,1,0.38484,0.25098,0.56889,110,2.35922,0.3,0.15059,0.65255,5,3D1U,1.0,True,0.385,1,False,left,0.0,0.3837,1.0337,0.6501,1.5998,2.1003,0.5005,V
111,111,0.50196,1.2,2,0.4434,0.42667,0.40994,111,2.7357,0.9,0.45177,0.95373,5,lapse_rate,2.0,True,0.35,0,False,right,0.0,1.3507,2.3007,0.95,0.4423,0.9418,0.4996,V
112,112,0.50196,1.2,2,0.40994,0.42667,0.81987,112,2.81099,0.3,0.15059,0.65255,5,3D1U,2.0,True,0.539,1,False,right,0.0,1.7217,2.3718,0.6501,0.4046,0.9051,0.5005,A
113,113,0.50196,0.1,2,0.25935,0.43503,0.73621,113,2.06641,-0.74,-0.36811,0.13386,5,1D2U,1.0,True,0.367,6,False,left,0.0,1.4899,1.6228,0.1329,0.2571,0.757,0.4999,A
114,114,0.50196,1.2,1,0.28445,0.36811,0.4434,114,2.15008,0.1,0.0502,0.55216,5,2D1U,1.0,True,0.339,4,False,left,0.0,0.2819,0.8316,0.5497,1.2737,1.7743,0.5006,A
115,115,0.50196,0.1,1,0.21752,0.32628,0.71111,115,1.80707,-0.9,-0.45177,0.0502,5,lapse_rate,2.0,True,0.26,0,False,right,0.0,0.2151,0.2649,0.0498,0.973,1.4733,0.5003,V
116,116,0.50196,0.1,2,0.23425,0.36811,0.71948,116,2.17517,-0.3,-0.15059,0.35137,5,1D3U,1.0,True,0.317,2,True,left,0.0,1.4477,1.7973,0.3496,0.231,0.7311,0.5002,A
117,117,0.50196,1.2,2,0.43503,0.34301,0.61909,117,2.04968,-0.7,-0.35137,0.15059,5,1D2U,1.0,True,0.453,6,False,left,0.0,1.5516,1.7023,0.1507,0.4354,0.9355,0.5002,A
118,118,0.50196,0.1,2,0.4434,0.36811,0.59399,118,2.25883,-0.3,-0.15059,0.35137,5,1D3U,1.0,True,0.287,2,True,left,0.0,1.5296,1.8796,0.35,0.4381,0.9376,0.4996,V
119,119,0.50196,1.2,2,0.25935,0.30118,0.85334,119,2.44289,0.06,0.03346,0.52706,5,2D1U,2.0,True,0.332,5,True,right,0.0,1.6074,2.1321,0.5247,0.2571,0.7572,0.5001,V
120,120,0.50196,1.2,2,0.36811,0.45177,0.51033,120,1.88237,-0.9,-0.45177,0.0502,5,lapse_rate,1.0,True,0.385,0,False,left,0.0,1.3786,1.4281,0.0495,0.3695,0.8689,0.4994,A
121,121,0.50196,0.1,2,0.26771,0.35137,0.43503,121,2.20862,0.3,0.15059,0.65255,5,3D1U,1.0,False,0.223,1,False,left,0.0,1.1952,1.8451,0.65,0.2627,0.7622,0.4995,V
122,122,0.50196,1.2,2,0.35137,0.20078,0.77804,122,1.98274,-0.7,-0.35137,0.15059,5,1D2U,1.0,True,0.421,6,False,left,0.0,1.6218,1.7726,0.1508,0.3473,0.8475,0.5002,V
123,123,0.50196,0.1,2,0.20078,0.28445,0.54379,123,2.05804,0.06,0.03346,0.52706,5,2D1U,1.0,False,0.261,5,True,left,0.0,1.2411,1.7652,0.5241,0.1993,0.6993,0.5001,V
124,124,0.50196,1.2,1,0.25935,0.20915,0.62745,124,2.26719,0.34,0.16732,0.66928,5,3D1U,1.0,True,0.294,2,True,left,0.0,0.2604,0.9273,0.667,1.5527,2.0527,0.4999,V
125,125,0.50196,0.1,1,0.45177,0.4183,0.74458,125,2.48472,-0.26,-0.13386,0.36811,5,1D3U,2.0,True,0.268,2,False,right,0.0,0.4508,0.8177,0.3669,1.5597,2.0593,0.4997,A
126,126,0.50196,1.2,2,0.31791,0.3932,0.80314,126,2.96994,0.9,0.45177,0.95373,5,lapse_rate,2.0,True,0.308,0,False,right,0.0,1.6187,2.5691,0.9503,0.3188,0.8192,0.5004,A
127,127,0.50196,1.2,2,0.29281,0.38484,0.60235,127,2.45124,0.34,0.16732,0.66928,5,3D1U,2.0,True,0.463,2,True,right,0.0,1.3877,2.056,0.6683,0.2876,0.7883,0.5007,A
128,128,0.50196,0.1,2,0.35974,0.33464,0.89517,128,2.25883,-0.66,-0.32628,0.16732,5,1D2U,1.0,True,0.395,6,False,left,0.0,1.75,1.9177,0.1677,0.3589,0.8586,0.4998,A
129,129,0.50196,1.2,1,0.38484,0.43503,0.60235,129,2.47634,0.1,0.0502,0.55216,5,2D1U,1.0,True,0.37,6,True,left,0.0,0.3788,0.9297,0.551,1.5295,2.0287,0.4992,V
130,130,0.50196,0.1,2,0.42667,0.37647,0.71948,130,2.39269,-0.26,-0.13386,0.36811,5,1D3U,1.0,True,0.213,2,False,left,0.0,1.6399,2.0053,0.3655,0.422,0.9217,0.4997,A
131,131,0.50196,0.1,1,0.31791,0.3932,0.51869,131,2.68549,0.9,0.45177,0.95373,5,lapse_rate,1.0,True,0.243,0,False,left,0.0,0.3116,1.2612,0.9495,1.7785,2.2777,0.4992,A
132,132,0.50196,1.2,2,0.30954,0.27608,0.52706,132,2.28392,0.34,0.16732,0.66928,5,3D1U,2.0,True,0.276,2,True,right,0.0,1.3319,1.9983,0.6664,0.3064,0.8066,0.5002,A
133,133,0.50196,0.1,2,0.42667,0.23425,0.89517,133,2.61021,0.1,0.0502,0.55216,5,2D1U,2.0,True,0.422,6,True,right,0.0,1.8118,2.3623,0.5506,0.4203,0.9208,0.5004,V
134,134,0.50196,1.2,1,0.22588,0.20078,0.46013,134,1.55607,-0.66,-0.32628,0.16732,5,1D2U,2.0,True,0.613,6,False,right,0.0,0.2254,0.3925,0.167,0.85,1.3503,0.5004,A
135,135,0.50196,0.1,1,0.27608,0.43503,0.45177,135,2.61857,0.9,0.45177,0.95373,5,lapse_rate,1.0,True,0.11,0,False,left,0.0,0.2764,1.2265,0.9502,1.6761,2.1766,0.5005,A
136,136,0.50196,0.1,1,0.28445,0.28445,0.54379,136,1.98276,-0.26,-0.13386,0.36811,5,1D3U,1.0,False,0.294,2,False,left,0.0,0.2846,0.6503,0.3657,1.1924,1.6927,0.5003,V
137,137,0.50196,1.2,2,0.37647,0.27608,0.72785,137,2.53491,0.3,0.15059,0.65255,5,3D1U,1.0,False,0.288,3,True,left,0.0,1.5954,2.2457,0.6503,0.3702,0.8705,0.5003,A
138,138,0.50196,1.2,2,0.31791,0.20915,0.54379,138,1.62301,-0.9,-0.45177,0.0502,5,lapse_rate,1.0,True,1.105,0,False,left,0.0,1.3577,1.4073,0.0496,0.3166,0.8161,0.4995,A
139,139,0.50196,0.1,1,0.30118,0.40994,0.47686,139,1.88236,-0.62,-0.30954,0.19242,5,1D2U,2.0,True,0.347,6,False,right,0.0,0.3013,0.4938,0.1925,0.9685,1.4685,0.5,A
140,140,0.50196,1.2,2,0.35974,0.29281,0.71948,140,2.40105,0.06,0.03346,0.52706,5,2D1U,1.0,False,0.366,7,True,left,0.0,1.5714,2.0958,0.5244,0.3542,0.8543,0.5001,V
141,141,0.50196,0.1,2,0.21752,0.28445,0.61909,141,1.97439,-0.3,-0.15059,0.35137,5,1D3U,2.0,False,0.431,3,True,right,0.0,1.3347,1.6851,0.3504,0.2185,0.7186,0.5001,V
142,142,0.50196,1.2,2,0.23425,0.40157,0.76968,142,2.09988,-0.62,-0.30954,0.19242,5,1D2U,1.0,True,0.296,6,False,left,0.0,1.4967,1.6887,0.1921,0.2298,0.7301,0.5003,A
143,143,0.50196,0.1,2,0.30954,0.20915,0.57726,143,2.26719,0.34,0.16732,0.66928,5,3D1U,2.0,True,0.339,4,True,right,0.0,1.3857,2.0528,0.6671,0.3107,0.8112,0.5006,A
144,144,0.50196,1.2,2,0.23425,0.30954,0.77804,144,2.15007,-0.34,-0.16732,0.32628,5,1D3U,2.0,False,0.412,3,False,right,0.0,1.5102,1.8339,0.3237,0.2346,0.7341,0.4995,A
145,145,0.50196,0.1,1,0.38484,0.21752,0.55216,145,1.96602,-0.38,-0.19242,0.30954,5,1D3U,2.0,True,0.454,3,False,right,0.0,0.3813,0.689,0.3077,1.24,1.7397,0.4996,V
146,146,0.50196,1.2,2,0.43503,0.4434,0.61072,146,2.54327,0.1,0.0502,0.55216,5,2D1U,2.0,True,0.315,8,True,right,0.0,1.5422,2.0915,0.5494,0.4339,0.934,0.5001,A
147,147,0.50196,0.1,2,0.40994,0.4434,0.67765,147,2.34249,-0.38,-0.19242,0.30954,5,1D3U,1.0,True,0.289,3,False,left,0.0,1.5832,1.8915,0.3084,0.4083,0.9085,0.5002,V
148,148,0.50196,1.2,2,0.38484,0.20915,0.54379,148,2.30902,0.34,0.16732,0.66928,5,3D1U,2.0,True,0.45,4,True,right,0.0,1.4247,2.0917,0.667,0.3833,0.8834,0.5001,V
149,149,0.50196,0.1,1,0.40157,0.29281,0.52706,149,2.27556,0.1,0.0502,0.55216,5,2D1U,2.0,False,0.415,8,True,right,0.0,0.3965,0.9465,0.55,1.4713,1.9708,0.4995,V
150,150,0.50196,1.2,2,0.29281,0.30118,0.54379,150,1.84889,-0.58,-0.29281,0.20915,5,1D2U,1.0,True,0.342,6,False,left,0.0,1.3333,1.5417,0.2085,0.2915,0.7917,0.5003,A
151,151,0.50196,0.1,1,0.32628,0.35974,0.71111,151,2.20863,-0.38,-0.19242,0.30954,5,1D3U,2.0,True,0.234,3,False,right,0.0,0.327,0.6352,0.3082,1.3439,1.8433,0.4995,A
152,152,0.50196,1.2,2,0.26771,0.25935,0.58562,152,1.82379,-0.58,-0.29281,0.20915,5,1D2U,1.0,True,0.47,6,False,left,0.0,1.3535,1.5615,0.2081,0.2696,0.7699,0.5002,A
153,153,0.50196,0.1,1,0.35137,0.40994,0.57726,153,2.06641,-0.54,-0.26771,0.22588,5,1D2U,2.0,True,0.109,6,False,right,0.0,0.3478,0.5722,0.2245,1.1481,1.6472,0.4991,V
154,154,0.50196,1.2,2,0.32628,0.31791,0.72785,154,2.20028,-0.34,-0.16732,0.32628,5,1D3U,1.0,True,0.222,4,True,left,0.0,1.5517,1.8769,0.3252,0.3263,0.8266,0.5003,A
155,155,0.50196,0.1,1,0.30118,0.27608,0.75294,155,2.40105,0.14,0.06693,0.56889,5,2D1U,2.0,False,0.301,8,False,right,0.0,0.3029,0.87,0.5671,1.6196,2.1199,0.5003,A
156,156,0.50196,1.2,1,0.22588,0.25098,0.61072,156,2.25882,0.34,0.16732,0.66928,5,3D1U,1.0,True,0.19,4,True,left,0.0,0.2262,0.8934,0.6672,1.5017,2.0013,0.4996,V
157,157,0.50196,0.1,1,0.22588,0.29281,0.82824,157,2.50144,0.3,0.15059,0.65255,5,3D1U,1.0,True,0.33,5,True,left,0.0,0.2258,0.8762,0.6504,1.7016,2.2015,0.4999,V
158,158,0.50196,1.2,2,0.35137,0.26771,0.4183,158,2.13333,0.18,0.09203,0.59399,5,2D1U,2.0,True,0.332,8,False,right,0.0,1.264,1.856,0.592,0.3472,0.8467,0.4996,V
159,159,0.50196,0.1,2,0.34301,0.20915,0.82824,159,2.10824,-0.54,-0.26771,0.22588,5,1D2U,1.0,True,0.421,6,False,left,0.0,1.6679,1.8925,0.2245,0.3427,0.8421,0.4995,V
160,160,0.50196,1.2,2,0.35974,0.31791,0.75294,160,2.18353,-0.5,-0.25098,0.25098,5,1D2U,1.0,True,0.406,6,False,left,0.0,1.6054,1.8547,0.2493,0.3552,0.8543,0.4991,V
161,161,0.50196,0.1,1,0.31791,0.37647,0.64419,161,2.16681,-0.34,-0.16732,0.32628,5,1D3U,2.0,True,0.297,4,True,right,0.0,0.3137,0.6384,0.3248,1.2794,1.7803,0.5009,A
162,162,0.50196,1.2,2,0.30954,0.25098,0.61072,162,2.32575,0.3,0.15059,0.65255,5,3D1U,2.0,True,0.36,5,True,right,0.0,1.4161,2.0663,0.6502,0.3077,0.8075,0.4998,A
163,163,0.50196,0.1,1,0.20915,0.27608,0.50196,163,2.08314,0.18,0.09203,0.59399,5,2D1U,1.0,True,0.296,8,False,left,0.0,0.2069,0.7994,0.5925,1.298,1.7988,0.5008,V
164,164,0.50196,1.2,1,0.4183,0.45177,0.54379,164,2.48471,0.14,0.06693,0.56889,5,2D1U,2.0,False,0.278,9,True,right,0.0,0.4128,0.9784,0.5656,1.521,2.0211,0.5001,V
165,165,0.50196,0.1,1,0.37647,0.23425,0.64419,165,2.08315,-0.34,-0.16732,0.32628,5,1D3U,2.0,True,0.367,4,True,right,0.0,0.3775,0.7025,0.325,1.3441,1.8443,0.5002,V
166,166,0.50196,1.2,1,0.26771,0.4183,0.57726,166,2.01621,-0.5,-0.25098,0.25098,5,1D2U,2.0,True,0.333,6,False,right,0.0,0.2648,0.5143,0.2495,1.0888,1.5892,0.5004,A
167,167,0.50196,0.1,2,0.30954,0.25098,0.53543,167,1.86562,-0.46,-0.22588,0.26771,5,1D2U,2.0,False,0.647,6,False,right,0.0,1.3421,1.6085,0.2664,0.3088,0.809,0.5002,V
168,168,0.50196,1.2,2,0.35974,0.3932,0.40157,168,2.00784,-0.3,-0.15059,0.35137,5,1D3U,2.0,False,0.395,4,False,right,0.0,1.2546,1.6042,0.3497,0.3542,0.8543,0.5001,A
169,169,0.50196,0.1,1,0.23425,0.3932,0.52706,169,2.30902,0.3,0.15059,0.65255,5,3D1U,2.0,False,0.109,5,True,right,0.0,0.2336,0.8836,0.6499,1.4081,1.9086,0.5005,V
170,170,0.50196,1.2,1,0.40994,0.35137,0.69438,170,2.62693,0.34,0.16732,0.66928,5,3D1U,2.0,False,0.226,6,True,right,0.0,0.4061,1.073,0.6669,1.7653,2.2647,0.4995,A
171,171,0.50196,0.1,2,0.30954,0.22588,0.76131,171,2.39268,0.18,0.09203,0.59399,5,2D1U,2.0,True,0.409,10,True,right,0.0,1.5669,2.1592,0.5923,0.3086,0.8086,0.4999,V
172,172,0.50196,1.2,2,0.22588,0.30118,0.67765,172,2.39269,0.38,0.19242,0.68602,5,3D1U,2.0,True,0.283,6,False,right,0.0,1.4013,2.0846,0.6832,0.2263,0.7266,0.5003,A
173,173,0.50196,0.1,1,0.27608,0.32628,0.61072,173,2.04132,-0.34,-0.16732,0.32628,5,1D3U,2.0,True,0.651,5,True,right,0.0,0.2719,0.5982,0.3262,1.2052,1.7054,0.5002,V
174,174,0.50196,1.2,1,0.4434,0.28445,0.81987,174,2.37596,-0.34,-0.16732,0.32628,5,1D3U,2.0,True,0.45,5,True,right,0.0,0.4442,0.7698,0.3256,1.5865,2.0861,0.4996,V
175,175,0.50196,0.1,2,0.35137,0.25098,0.66092,175,2.35922,0.18,0.09203,0.59399,5,2D1U,1.0,False,0.401,10,True,left,0.0,1.5045,2.0961,0.5916,0.346,0.846,0.5,V
176,176,0.50196,1.2,1,0.31791,0.37647,0.55216,176,1.99948,-0.5,-0.25098,0.25098,5,1D2U,2.0,True,0.348,7,True,right,0.0,0.3152,0.5648,0.2495,1.1155,1.6153,0.4998,A
177,177,0.50196,0.1,2,0.35137,0.26771,0.55216,177,1.99948,-0.34,-0.16732,0.32628,5,1D3U,1.0,True,0.305,5,True,left,0.0,1.4027,1.7275,0.3248,0.3531,0.8521,0.499,V
178,178,0.50196,1.2,2,0.23425,0.27608,0.57726,178,2.27557,0.38,0.19242,0.68602,5,3D1U,2.0,True,0.325,6,False,right,0.0,1.3037,1.9877,0.684,0.2289,0.7288,0.5,V
179,179,0.50196,0.1,1,0.30118,0.30118,0.8868,179,2.67714,0.38,0.19242,0.68602,5,3D1U,1.0,True,0.288,6,False,left,0.0,0.3034,0.9867,0.6834,1.8698,2.3705,0.5007,V
180,180,0.50196,1.2,2,0.40994,0.25098,0.4434,180,1.85726,-0.5,-0.25098,0.25098,5,1D2U,1.0,True,0.25,7,True,left,0.0,1.3494,1.5993,0.2499,0.4081,0.9082,0.5,V
181,181,0.50196,0.1,1,0.21752,0.24262,0.4936,181,2.06642,0.22,0.10876,0.61072,5,2D1U,1.0,True,0.288,10,False,left,0.0,0.2164,0.8245,0.6081,1.3163,1.8156,0.4993,V
182,182,0.50196,1.2,1,0.25098,0.40994,0.78641,182,2.217,-0.46,-0.22588,0.26771,5,1D2U,2.0,True,0.325,8,True,right,0.0,0.2496,0.5167,0.2671,1.3005,1.8006,0.5002,V
183,183,0.50196,0.1,1,0.40994,0.36811,0.51033,183,2.14171,-0.3,-0.15059,0.35137,5,1D3U,2.0,True,0.273,6,True,right,0.0,0.4052,0.7543,0.3492,1.2641,1.7633,0.4992,V
184,184,0.50196,1.2,1,0.40157,0.25098,0.55216,184,2.05804,-0.3,-0.15059,0.35137,5,1D3U,2.0,True,0.452,6,True,right,0.0,0.4,0.75,0.35,1.2999,1.7995,0.4996,V
185,185,0.50196,0.1,1,0.45177,0.31791,0.59399,185,2.53491,0.34,0.16732,0.66928,5,3D1U,1.0,True,0.237,7,True,left,0.0,0.445,1.1122,0.6672,1.7039,2.2041,0.5002,V
186,186,0.50196,1.2,1,0.22588,0.25098,0.71111,186,2.30065,0.22,0.10876,0.61072,5,2D1U,2.0,False,0.488,10,False,right,0.0,0.2265,0.8354,0.6089,1.5434,2.044,0.5005,V
187,187,0.50196,0.1,2,0.38484,0.40157,0.47686,187,2.03294,-0.46,-0.22588,0.26771,5,1D2U,1.0,True,0.315,8,True,left,0.0,1.3561,1.6233,0.2673,0.3811,0.8814,0.5003,V
188,188,0.50196,1.2,1,0.4183,0.30118,0.58562,188,2.15843,-0.3,-0.15059,0.35137,5,1D3U,2.0,True,0.419,6,True,right,0.0,0.4142,0.7641,0.3499,1.3472,1.8475,0.5003,V
189,189,0.50196,0.1,2,0.43503,0.25935,0.65255,189,2.47634,0.26,0.13386,0.62745,5,2D1U,2.0,True,0.451,10,False,right,0.0,1.5828,2.2086,0.6258,0.432,0.9328,0.5008,V
190,190,0.50196,1.2,2,0.24262,0.42667,0.40994,190,2.25047,0.34,0.16732,0.66928,5,3D1U,2.0,True,1.6,7,True,right,0.0,1.1532,1.8203,0.6671,0.2446,0.7453,0.5007,V
191,191,0.50196,0.1,2,0.43503,0.26771,0.8868,191,2.76078,0.34,0.16732,0.66928,5,3D1U,2.0,True,0.438,7,True,right,0.0,1.8135,2.48,0.6665,0.4297,0.9298,0.5001,V
192,192,0.50196,1.2,2,0.32628,0.20915,0.66928,192,2.33412,0.26,0.13386,0.62745,5,2D1U,2.0,True,0.388,10,False,right,0.0,1.4933,2.1185,0.6252,0.3261,0.8262,0.5001,V
193,193,0.50196,0.1,1,0.42667,0.35137,0.65255,193,2.30066,-0.26,-0.13386,0.36811,5,1D3U,2.0,True,0.38,6,False,right,0.0,0.423,0.7894,0.3664,1.4396,1.9404,0.5008,A
194,194,0.50196,1.2,2,0.3932,0.43503,0.55216,194,2.5349,0.3,0.15059,0.65255,5,3D1U,2.0,True,0.271,7,False,right,0.0,1.4386,2.0891,0.6505,0.3886,0.8891,0.5005,A
195,195,0.50196,0.1,2,0.26771,0.34301,0.51869,195,2.28392,0.3,0.15059,0.65255,5,3D1U,2.0,True,0.291,7,False,right,0.0,1.2852,1.9362,0.651,0.2696,0.7683,0.4987,V
196,196,0.50196,1.2,1,0.20078,0.30954,0.8366,196,2.14169,-0.42,-0.20915,0.29281,5,1D2U,2.0,True,0.467,8,False,right,0.0,0.202,0.4931,0.2911,1.3265,1.826,0.4995,A
197,197,0.50196,0.1,1,0.4434,0.30118,0.59399,197,2.49308,0.3,0.15059,0.65255,5,3D1U,2.0,False,0.313,7,False,right,0.0,0.4403,1.0897,0.6494,1.6823,2.1814,0.4991,A
198,198,0.50196,1.2,2,0.25098,0.33464,0.63582,198,2.09151,-0.26,-0.13386,0.36811,5,1D3U,2.0,False,0.485,6,False,right,0.0,1.3826,1.7495,0.3669,0.2489,0.7495,0.5007,A
199,199,0.50196,0.1,1,0.30118,0.43503,0.63582,199,2.48471,0.22,0.10876,0.61072,5,2D1U,2.0,False,0.323,11,True,right,0.0,0.2968,0.9045,0.6077,1.5383,2.0382,0.5,V
200,200,0.50196,1.2,2,0.26771,0.42667,0.51033,200,1.99948,-0.42,-0.20915,0.29281,5,1D2U,1.0,True,0.278,8,False,left,0.0,1.2773,1.5682,0.2908,0.2683,0.7683,0.5001,V
201,201,0.50196,0.1,1,0.40994,0.40994,0.53543,201,2.16681,-0.38,-0.19242,0.30954,5,1D2U,2.0,True,0.343,8,False,right,0.0,0.4103,0.7182,0.3079,1.2514,1.7517,0.5002,A
202,202,0.50196,1.2,1,0.42667,0.36811,0.51033,202,2.47635,0.34,0.16732,0.66928,5,3D1U,2.0,False,0.32,8,True,right,0.0,0.4203,1.0868,0.6665,1.5957,2.0953,0.4997,A
203,203,0.50196,0.1,1,0.25098,0.22588,0.59399,203,1.88235,-0.38,-0.19242,0.30954,5,1D2U,2.0,True,0.433,8,False,right,0.0,0.2469,0.5551,0.3082,1.1466,1.6467,0.5001,A
204,204,0.50196,1.2,2,0.20915,0.24262,0.43503,204,2.01621,0.26,0.13386,0.62745,5,2D1U,1.0,False,0.295,12,True,left,0.0,1.1399,1.7649,0.6249,0.2064,0.7063,0.4999,A
205,205,0.50196,0.1,2,0.37647,0.24262,0.66928,205,2.1417,-0.3,-0.15059,0.35137,5,1D3U,1.0,True,0.362,7,True,left,0.0,1.5417,1.8924,0.3506,0.3749,0.8752,0.5003,A
206,206,0.50196,1.2,2,0.29281,0.33464,0.47686,206,1.95764,-0.3,-0.15059,0.35137,5,1D3U,1.0,True,0.374,7,True,left,0.0,1.2679,1.6173,0.3494,0.2921,0.7931,0.5009,V
207,207,0.50196,0.1,2,0.25935,0.4434,0.79477,207,2.32576,-0.34,-0.16732,0.32628,5,1D2U,1.0,True,0.281,8,False,left,0.0,1.5497,1.8739,0.3242,0.2572,0.7575,0.5003,V
208,208,0.50196,1.2,2,0.25098,0.36811,0.87007,208,2.64367,0.3,0.15059,0.65255,5,2D1U,2.0,True,0.323,12,False,right,0.0,1.6148,2.264,0.6492,0.2471,0.7473,0.5002,A
209,209,0.50196,0.1,1,0.28445,0.28445,0.8366,209,2.25883,-0.3,-0.15059,0.35137,5,1D3U,2.0,True,0.639,7,True,right,0.0,0.286,0.636,0.3501,1.4693,1.9702,0.501,V
210,210,0.50196,1.2,1,0.29281,0.32628,0.47686,210,2.28393,0.38,0.19242,0.68602,5,3D1U,1.0,True,0.137,8,False,left,0.0,0.2947,0.9774,0.6827,1.4523,1.9525,0.5002,V
211,211,0.50196,0.1,1,0.30118,0.30954,0.58562,211,2.38432,0.38,0.19242,0.68602,5,3D1U,2.0,False,0.286,8,False,right,0.0,0.2954,0.9792,0.6838,1.5631,2.0625,0.4995,V
212,212,0.50196,1.2,2,0.21752,0.38484,0.4685,212,1.94093,-0.26,-0.13386,0.36811,5,1D3U,1.0,True,0.337,8,True,left,0.0,1.179,1.5453,0.3664,0.2125,0.7123,0.4998,V
213,213,0.50196,0.1,1,0.36811,0.37647,0.54379,213,2.50144,0.42,0.20915,0.71111,5,3D1U,2.0,False,0.309,8,False,right,0.0,0.3623,1.0712,0.7089,1.6122,2.113,0.5008,V
214,214,0.50196,1.2,1,0.30954,0.36811,0.61072,214,2.44288,0.3,0.15059,0.65255,5,2D1U,2.0,False,0.336,12,False,right,0.0,0.3053,0.9554,0.6501,1.5642,2.0635,0.4993,A
215,215,0.50196,0.1,1,0.24262,0.33464,0.51869,215,2.26719,0.34,0.16732,0.66928,5,2D1U,1.0,True,0.268,12,False,left,0.0,0.2412,0.9088,0.6676,1.4244,1.925,0.5005,A
216,216,0.50196,1.2,1,0.20078,0.35974,0.59399,216,1.98275,-0.34,-0.16732,0.32628,5,1D2U,1.0,False,0.374,8,False,left,0.0,0.2009,0.5267,0.3257,1.1177,1.6183,0.5007,A
217,217,0.50196,0.1,2,0.25098,0.35137,0.52706,217,1.99948,-0.26,-0.13386,0.36811,5,1D3U,1.0,True,0.301,8,True,left,0.0,1.2728,1.6393,0.3665,0.2475,0.7475,0.5,V
218,218,0.50196,1.2,2,0.20915,0.25098,0.54379,218,2.17516,0.34,0.16732,0.66928,5,2D1U,2.0,True,0.279,12,False,right,0.0,1.2489,1.9157,0.6667,0.2066,0.7071,0.5005,A
219,219,0.50196,0.1,2,0.30118,0.24262,0.4936,219,1.8489,-0.38,-0.19242,0.30954,5,1D2U,1.0,True,0.298,9,True,left,0.0,1.288,1.5956,0.3076,0.2965,0.7965,0.5,A
220,220,0.50196,1.2,1,0.30118,0.3932,0.46013,220,2.38432,0.46,0.22588,0.72785,5,3D1U,2.0,False,0.358,8,False,right,0.0,0.3033,1.0277,0.7245,1.4859,1.9869,0.5009,A
221,221,0.50196,0.1,2,0.30954,0.21752,0.57726,221,1.97439,-0.26,-0.13386,0.36811,5,1D3U,1.0,True,0.381,8,True,left,0.0,1.379,1.7462,0.3672,0.3036,0.8042,0.5006,A
222,222,0.50196,1.2,1,0.32628,0.20915,0.68602,222,2.47635,0.5,0.25098,0.75294,5,3D1U,1.0,True,0.405,8,False,left,0.0,0.3256,1.0756,0.75,1.7586,2.2593,0.5007,A
223,223,0.50196,0.1,2,0.34301,0.20915,0.61072,223,2.31739,0.3,0.15059,0.65255,5,2D1U,2.0,True,0.304,13,True,right,0.0,1.4448,2.0955,0.6508,0.3364,0.8365,0.5,V
224,224,0.50196,1.2,1,0.36811,0.25935,0.79477,224,2.57674,0.3,0.15059,0.65255,5,2D1U,2.0,False,0.51,13,True,right,0.0,0.3654,1.016,0.6506,1.8076,2.3073,0.4997,A
225,225,0.50196,0.1,1,0.42667,0.40994,0.62745,225,2.27556,-0.38,-0.19242,0.30954,5,1D2U,2.0,True,0.257,9,True,right,0.0,0.4247,0.7334,0.3087,1.3578,1.8587,0.5009,V
226,226,0.50196,1.2,2,0.34301,0.4434,0.79477,226,2.47634,-0.22,-0.10876,0.3932,5,1D3U,2.0,False,0.355,8,False,right,0.0,1.6285,2.0207,0.3922,0.3374,0.8366,0.4992,A
227,227,0.50196,0.1,1,0.22588,0.35137,0.61072,227,2.44287,0.5,0.25098,0.75294,5,3D1U,1.0,True,0.276,8,False,left,0.0,0.2239,0.9742,0.7504,1.5824,2.0823,0.4999,A
228,228,0.50196,1.2,2,0.33464,0.4434,0.87007,228,2.81935,0.34,0.16732,0.66928,5,2D1U,2.0,True,0.414,14,True,right,0.0,1.6993,2.3652,0.6659,0.332,0.8321,0.5001,V
229,229,0.50196,0.1,1,0.32628,0.27608,0.60235,229,2.07478,-0.26,-0.13386,0.36811,5,1D3U,2.0,True,6.614,9,True,right,0.0,0.3282,0.695,0.3668,1.2947,1.796,0.5013,A
230,230,0.50196,1.2,1,0.31791,0.23425,0.81987,230,2.20027,-0.34,-0.16732,0.32628,5,1D2U,1.0,False,0.251,10,True,left,0.0,0.3148,0.6407,0.3259,1.4561,1.9565,0.5005,A
231,231,0.50196,0.1,2,0.31791,0.37647,0.70275,231,2.20863,-0.38,-0.19242,0.30954,5,1D2U,1.0,True,0.351,11,True,left,0.0,1.5155,1.824,0.3085,0.3156,0.8152,0.4996,A
232,232,0.50196,1.2,1,0.28445,0.31791,0.77804,232,2.55164,0.34,0.16732,0.66928,5,2D1U,2.0,False,0.459,14,True,right,0.0,0.281,0.9473,0.6663,1.7226,2.2221,0.4995,A
233,233,0.50196,0.1,2,0.25098,0.43503,0.45177,233,2.32576,0.38,0.19242,0.68602,5,2D1U,2.0,True,0.108,14,False,right,0.0,1.202,1.8852,0.6832,0.2517,0.752,0.5003,A
234,234,0.50196,1.2,2,0.25098,0.28445,0.73621,234,2.14171,-0.26,-0.13386,0.36811,5,1D3U,2.0,False,0.449,9,True,right,0.0,1.4811,1.8482,0.3671,0.2484,0.7488,0.5003,V
235,235,0.50196,0.1,1,0.42667,0.35137,0.54379,235,2.13333,-0.38,-0.19242,0.30954,5,1D2U,2.0,True,0.395,11,True,right,0.0,0.4212,0.7309,0.3096,1.2719,1.7713,0.4993,V
236,236,0.50196,1.2,2,0.43503,0.30118,0.59399,236,2.5851,0.5,0.25098,0.75294,5,3D1U,2.0,True,0.339,8,False,right,0.0,1.5262,2.2761,0.7498,0.4348,0.9345,0.4997,A
237,237,0.50196,0.1,1,0.27608,0.4183,0.67765,237,2.22536,-0.3,-0.15059,0.35137,5,1D3U,1.0,False,0.22,9,False,left,0.0,0.2706,0.62,0.3495,1.2953,1.7952,0.5,A
238,238,0.50196,1.2,1,0.20915,0.3932,0.79477,238,2.62693,0.46,0.22588,0.72785,5,3D1U,2.0,False,0.345,9,True,right,0.0,0.2092,0.9346,0.7254,1.7267,2.2263,0.4996,V
239,239,0.50196,0.1,1,0.34301,0.38484,0.81151,239,2.72734,0.38,0.19242,0.68602,5,2D1U,1.0,True,0.258,14,False,left,0.0,0.3401,1.0245,0.6844,1.8325,2.3316,0.4991,A
240,240,0.50196,1.2,2,0.20915,0.31791,0.84497,240,2.20027,-0.34,-0.16732,0.32628,5,1D2U,1.0,True,0.325,12,True,left,0.0,1.5494,1.8741,0.3247,0.2071,0.7074,0.5003,A
241,241,0.50196,0.1,2,0.29281,0.40157,0.84497,241,2.36759,-0.34,-0.16732,0.32628,5,1D2U,1.0,True,0.255,12,True,left,0.0,1.6354,1.9603,0.3249,0.2936,0.794,0.5003,V
242,242,0.50196,1.2,1,0.45177,0.34301,0.78641,242,2.75243,0.34,0.16732,0.66928,5,2D1U,2.0,False,0.299,15,True,right,0.0,0.4449,1.1118,0.6669,1.8961,2.3955,0.4994,V
243,243,0.50196,0.1,1,0.32628,0.35974,0.47686,243,1.99112,-0.34,-0.16732,0.32628,5,1D3U,2.0,True,0.325,9,False,right,0.0,0.3266,0.652,0.3254,1.1267,1.6268,0.5001,A
244,244,0.50196,1.2,2,0.25098,0.25098,0.56889,244,2.32575,0.5,0.25098,0.75294,5,3D1U,2.0,True,0.267,10,True,right,0.0,1.3117,2.0618,0.7501,0.2452,0.7458,0.5006,A
245,245,0.50196,0.1,1,0.30954,0.3932,0.60235,245,2.15842,-0.3,-0.15059,0.35137,5,1D2U,2.0,True,0.239,12,False,right,0.0,0.3053,0.6556,0.3503,1.2553,1.7551,0.4998,V
246,246,0.50196,1.2,1,0.35137,0.27608,0.84497,246,2.6604,0.38,0.19242,0.68602,5,2D1U,2.0,False,0.329,16,True,right,0.0,0.3471,1.0307,0.6837,1.8718,2.3719,0.5001,V
247,247,0.50196,0.1,2,0.27608,0.4434,0.40994,247,2.38432,0.5,0.25098,0.75294,5,3D1U,2.0,True,0.118,10,True,right,0.0,1.1857,1.9359,0.7503,0.2777,0.7776,0.4999,V
248,248,0.50196,1.2,1,0.40994,0.21752,0.70275,248,2.15845,-0.34,-0.16732,0.32628,5,1D3U,2.0,True,0.546,9,False,right,0.0,0.4057,0.731,0.3253,1.4309,1.9308,0.4999,V
249,249,0.50196,0.1,1,0.28445,0.20915,0.75294,249,2.09987,-0.3,-0.15059,0.35137,5,1D2U,2.0,True,0.743,12,False,right,0.0,0.2813,0.632,0.3508,1.3816,1.8815,0.4999,V
250,250,0.50196,1.2,2,0.38484,0.35974,0.65255,250,2.6102,0.42,0.20915,0.71111,5,2D1U,2.0,True,0.368,16,False,right,0.0,1.5309,2.2399,0.709,0.3812,0.8812,0.4999,A
251,251,0.50196,0.1,2,0.33464,0.20915,0.46013,251,2.25882,0.5,0.25098,0.75294,5,3D1U,2.0,True,0.407,10,True,right,0.0,1.2892,2.0393,0.7501,0.331,0.8311,0.5,V
252,252,0.50196,1.2,2,0.32628,0.31791,0.67765,252,2.19191,-0.26,-0.13386,0.36811,5,1D2U,2.0,False,0.556,12,False,right,0.0,1.5004,1.8669,0.3664,0.3253,0.8256,0.5003,A
253,253,0.50196,0.1,1,0.43503,0.25098,0.54379,253,2.05804,-0.34,-0.16732,0.32628,5,1D3U,2.0,True,0.484,9,False,right,0.0,0.4317,0.7571,0.3254,1.2988,1.7996,0.5008,V
254,254,0.50196,1.2,2,0.4434,0.26771,0.4685,254,2.40942,0.46,0.22588,0.72785,5,3D1U,2.0,True,0.274,11,True,right,0.0,1.4046,2.1301,0.7255,0.4384,0.9385,0.5001,V
255,255,0.50196,0.1,1,0.30118,0.30954,0.55216,255,2.39269,0.46,0.22588,0.72785,5,3D1U,1.0,True,0.351,11,True,left,0.0,0.2966,1.0218,0.7252,1.5717,2.0715,0.4998,A
256,256,0.50196,1.2,1,0.20915,0.38484,0.57726,256,2.38432,0.42,0.20915,0.71111,5,2D1U,2.0,False,0.286,16,False,right,0.0,0.2035,0.9123,0.7088,1.4872,1.9872,0.5,V
257,257,0.50196,0.1,1,0.26771,0.20915,0.4936,257,2.20027,0.46,0.22588,0.72785,5,2D1U,1.0,True,0.284,16,False,left,0.0,0.2639,0.9887,0.7248,1.4809,1.9809,0.5001,V
258,258,0.50196,1.2,1,0.22588,0.28445,0.46013,258,1.82379,-0.3,-0.15059,0.35137,5,1D3U,2.0,True,0.463,10,True,right,0.0,0.2261,0.5766,0.3504,1.0348,1.5348,0.5,A
259,259,0.50196,0.1,1,0.26771,0.33464,0.46013,259,2.29229,0.46,0.22588,0.72785,5,3D1U,1.0,True,0.105,11,True,left,0.0,0.2663,0.9916,0.7253,1.4489,1.9497,0.5008,A
260,260,0.50196,1.2,1,0.43503,0.36811,0.64419,260,2.6604,0.42,0.20915,0.71111,5,3D1U,1.0,True,0.343,11,False,left,0.0,0.4336,1.1423,0.7087,1.7832,2.2841,0.5008,A
261,261,0.50196,0.1,1,0.34301,0.42667,0.60235,261,2.22536,-0.3,-0.15059,0.35137,5,1D2U,1.0,False,0.202,13,True,left,0.0,0.3429,0.6936,0.3507,1.2939,1.7935,0.4997,V
262,262,0.50196,1.2,1,0.3932,0.30118,0.52706,262,2.07477,-0.3,-0.15059,0.35137,5,1D3U,1.0,False,0.59,10,True,left,0.0,0.3933,0.7441,0.3507,1.2685,1.7681,0.4997,V
263,263,0.50196,0.1,2,0.33464,0.4434,0.4936,263,2.09988,-0.34,-0.16732,0.32628,5,1D3U,1.0,True,0.118,11,True,left,0.0,1.3247,1.6489,0.3243,0.3316,0.8317,0.5001,A
264,264,0.50196,1.2,2,0.35974,0.23425,0.71111,264,2.13334,-0.34,-0.16732,0.32628,5,1D2U,1.0,True,0.408,13,False,left,0.0,1.5632,1.8873,0.324,0.3546,0.8541,0.4995,V
265,265,0.50196,0.1,2,0.36811,0.25935,0.57726,265,2.43453,0.46,0.22588,0.72785,5,2D1U,2.0,True,0.125,16,False,right,0.0,1.4446,2.1701,0.7255,0.3695,0.8696,0.5001,V
266,266,0.50196,1.2,2,0.3932,0.22588,0.4434,266,2.27555,0.42,0.20915,0.71111,5,3D1U,2.0,True,0.374,11,False,right,0.0,1.3332,2.0417,0.7085,0.3912,0.8917,0.5005,V
267,267,0.50196,0.1,2,0.35137,0.33464,0.56052,267,2.4596,0.42,0.20915,0.71111,5,2D1U,2.0,True,0.105,17,True,right,0.0,1.405,2.1135,0.7085,0.3468,0.8466,0.4998,A
268,268,0.50196,1.2,1,0.23425,0.31791,0.76131,268,2.52654,0.42,0.20915,0.71111,5,3D1U,2.0,False,0.436,11,False,right,0.0,0.2349,0.9426,0.7077,1.701,2.2012,0.5002,A
269,269,0.50196,0.1,1,0.37647,0.20078,0.74458,269,2.15007,-0.34,-0.16732,0.32628,5,1D2U,1.0,False,0.424,13,False,left,0.0,0.3732,0.6984,0.3253,1.4401,1.9402,0.5,A
270,270,0.50196,1.2,1,0.33464,0.24262,0.47686,270,1.88236,-0.34,-0.16732,0.32628,5,1D3U,2.0,True,0.258,11,True,right,0.0,0.3309,0.6561,0.3252,1.1307,1.6306,0.4999,A
271,271,0.50196,0.1,1,0.31791,0.20078,0.61072,271,2.34248,0.42,0.20915,0.71111,5,2D1U,1.0,True,0.349,17,True,left,0.0,0.3195,1.028,0.7085,1.6367,2.1365,0.4999,A
272,272,0.50196,1.2,1,0.28445,0.40157,0.73621,272,2.25047,-0.34,-0.16732,0.32628,5,1D3U,1.0,False,0.35,11,True,left,0.0,0.2813,0.6071,0.3258,1.34,1.8406,0.5006,A
273,273,0.50196,0.1,1,0.4183,0.26771,0.76131,273,2.25882,-0.38,-0.19242,0.30954,5,1D2U,2.0,True,0.282,13,False,right,0.0,0.414,0.7219,0.3079,1.4806,1.9798,0.4991,V
274,274,0.50196,1.2,2,0.20915,0.30118,0.73621,274,2.43452,0.38,0.19242,0.68602,5,2D1U,2.0,True,0.159,17,False,right,0.0,1.4404,2.1238,0.6834,0.2072,0.7064,0.4992,V
275,275,0.50196,0.1,1,0.22588,0.4434,0.4936,275,2.39269,0.46,0.22588,0.72785,5,3D1U,1.0,True,0.249,12,True,left,0.0,0.2267,0.9524,0.7257,1.4436,1.944,0.5004,A
276,276,0.50196,1.2,1,0.37647,0.37647,0.71111,276,2.69386,0.46,0.22588,0.72785,5,3D1U,1.0,True,0.248,12,True,left,0.0,0.37,1.0948,0.7248,1.8035,2.3034,0.4999,A
277,277,0.50196,0.1,1,0.37647,0.22588,0.8366,277,2.25045,-0.38,-0.19242,0.30954,5,1D3U,2.0,True,0.341,11,False,right,0.0,0.3721,0.6811,0.3091,1.5137,2.0133,0.4996,V
278,278,0.50196,1.2,1,0.35974,0.32628,0.56889,278,2.06641,-0.38,-0.19242,0.30954,5,1D3U,2.0,True,0.382,11,False,right,0.0,0.355,0.6632,0.3082,1.2301,1.7304,0.5003,A
279,279,0.50196,0.1,2,0.33464,0.34301,0.51869,279,2.00784,-0.38,-0.19242,0.30954,5,1D2U,1.0,True,0.406,13,False,left,0.0,1.3524,1.661,0.3087,0.3353,0.835,0.4997,V
280,280,0.50196,1.2,1,0.35974,0.25098,0.78641,280,2.58511,0.38,0.19242,0.68602,5,2D1U,2.0,False,0.383,17,False,right,0.0,0.3589,1.043,0.6841,1.8266,2.3261,0.4996,A
281,281,0.50196,0.1,2,0.4434,0.35974,0.81151,281,2.84446,0.46,0.22588,0.72785,5,3D1U,2.0,True,0.112,12,True,right,0.0,1.7497,2.474,0.7243,0.4406,0.9412,0.5006,V
282,282,0.50196,1.2,2,0.42667,0.20078,0.40994,282,1.84889,-0.38,-0.19242,0.30954,5,1D3U,1.0,True,0.443,11,False,left,0.0,1.3296,1.6376,0.308,0.4211,0.9214,0.5003,A
283,283,0.50196,0.1,2,0.26771,0.26771,0.72785,283,2.47634,0.42,0.20915,0.71111,5,3D1U,1.0,False,0.13,13,True,left,0.0,1.4896,2.1977,0.7081,0.2644,0.7646,0.5002,A
284,284,0.50196,1.2,1,0.32628,0.43503,0.68602,284,2.67714,0.46,0.22588,0.72785,5,3D1U,2.0,False,0.243,14,True,right,0.0,0.3245,1.0495,0.725,1.7321,2.2328,0.5007,V
285,285,0.50196,0.1,2,0.20915,0.30954,0.53543,285,1.88236,-0.34,-0.16732,0.32628,5,1D2U,1.0,True,0.325,14,True,left,0.0,1.2415,1.566,0.3245,0.2073,0.7077,0.5005,V
286,286,0.50196,1.2,2,0.29281,0.25098,0.71111,286,2.46797,0.42,0.20915,0.71111,5,2D1U,2.0,True,0.244,18,True,right,0.0,1.4974,2.206,0.7085,0.289,0.789,0.5001,V
287,287,0.50196,0.1,2,0.4434,0.4183,0.71111,287,2.78588,0.42,0.20915,0.71111,5,2D1U,2.0,True,0.196,18,True,right,0.0,1.6472,2.3558,0.7086,0.4392,0.939,0.4997,V
288,288,0.50196,1.2,1,0.3932,0.25098,0.45177,288,2.35085,0.5,0.25098,0.75294,5,3D1U,1.0,True,0.273,14,False,left,0.0,0.3893,1.138,0.7488,1.5882,2.0889,0.5007,A
289,289,0.50196,0.1,2,0.22588,0.40157,0.4936,289,1.94929,-0.34,-0.16732,0.32628,5,1D3U,1.0,True,0.228,12,True,left,0.0,1.2193,1.544,0.3247,0.2272,0.7266,0.4993,V
290,290,0.50196,1.2,1,0.25098,0.20915,0.40994,290,1.69831,-0.34,-0.16732,0.32628,5,1D2U,1.0,False,0.404,14,True,left,0.0,0.2455,0.5705,0.325,0.9787,1.4797,0.5009,V
291,291,0.50196,0.1,1,0.40157,0.30118,0.64419,291,2.53492,0.38,0.19242,0.68602,5,2D1U,1.0,True,0.256,19,True,left,0.0,0.3976,1.0808,0.6832,1.7218,2.2222,0.5004,A
292,292,0.50196,1.2,1,0.23425,0.23425,0.4183,292,1.6983,-0.38,-0.19242,0.30954,5,1D2U,1.0,False,0.367,15,True,left,0.0,0.2339,0.5426,0.3087,0.9588,1.4592,0.5003,V
293,293,0.50196,0.1,2,0.4183,0.26771,0.59399,293,2.46798,0.38,0.19242,0.68602,5,2D1U,2.0,True,0.243,19,True,right,0.0,1.5036,2.1869,0.6833,0.4119,0.9124,0.5005,V
294,294,0.50196,1.2,2,0.38484,0.23425,0.52706,294,1.97439,-0.34,-0.16732,0.32628,5,1D3U,1.0,True,0.291,12,True,left,0.0,1.4074,1.7316,0.3243,0.3817,0.8818,0.5001,A
295,295,0.50196,0.1,2,0.38484,0.34301,0.76131,295,2.3174,-0.34,-0.16732,0.32628,5,1D3U,1.0,True,0.269,12,True,left,0.0,1.6412,1.9662,0.3251,0.3828,0.8833,0.5004,A
296,296,0.50196,1.2,1,0.42667,0.43503,0.47686,296,2.59346,0.5,0.25098,0.75294,5,3D1U,2.0,False,0.242,14,False,right,0.0,0.426,1.1766,0.7506,1.6508,2.1512,0.5004,V
297,297,0.50196,0.1,2,0.33464,0.30118,0.70275,297,2.1919,-0.3,-0.15059,0.35137,5,1D3U,2.0,False,0.492,12,False,right,0.0,1.5357,1.8866,0.351,0.3354,0.8366,0.5011,A
298,298,0.50196,1.2,2,0.3932,0.35137,0.59399,298,2.5098,0.34,0.16732,0.66928,5,2D1U,2.0,True,0.106,19,False,right,0.0,1.4853,2.1517,0.6664,0.3935,0.8935,0.5,V
299,299,0.50196,0.1,1,0.24262,0.25935,0.65255,299,1.94929,-0.42,-0.20915,0.29281,5,1D2U,2.0,True,0.265,15,False,right,0.0,0.243,0.534,0.291,1.1844,1.6839,0.4995,V
300,300,0.50196,1.2,2,0.26771,0.34301,0.56889,300,1.97438,-0.42,-0.20915,0.29281,5,1D2U,1.0,True,0.313,15,False,left,0.0,1.3362,1.6278,0.2916,0.2687,0.7695,0.5008,A
301,301,0.50196,0.1,2,0.45177,0.25935,0.8617,301,2.40106,-0.34,-0.16732,0.32628,5,1D3U,1.0,True,0.325,13,True,left,0.0,1.8114,2.137,0.3256,0.4528,0.9533,0.5004,A
302,302,0.50196,1.2,2,0.4434,0.40994,0.67765,302,2.34249,-0.38,-0.19242,0.30954,5,1D2U,1.0,True,0.247,16,True,left,0.0,1.6192,1.9274,0.3082,0.4448,0.9438,0.4989,V
303,303,0.50196,0.1,2,0.27608,0.33464,0.61072,303,2.03294,-0.38,-0.19242,0.30954,5,1D2U,1.0,True,0.337,16,True,left,0.0,1.3829,1.6912,0.3082,0.2734,0.7737,0.5003,A
304,304,0.50196,1.2,1,0.20078,0.28445,0.51869,304,1.83216,-0.34,-0.16732,0.32628,5,1D2U,1.0,False,0.232,16,False,left,0.0,0.1954,0.5202,0.3248,1.0365,1.5367,0.5002,A
305,305,0.50196,0.1,2,0.37647,0.3932,0.85334,305,2.43451,-0.38,-0.19242,0.30954,5,1D2U,1.0,True,0.308,17,True,left,0.0,1.7211,2.0296,0.3085,0.3706,0.8712,0.5005,V
306,306,0.50196,1.2,1,0.31791,0.40157,0.60235,306,2.49307,0.34,0.16732,0.66928,5,2D1U,2.0,False,0.43,19,False,right,0.0,0.3112,0.9786,0.6674,1.5779,2.0783,0.5005,V
307,307,0.50196,0.1,2,0.30118,0.29281,0.59399,307,2.37596,0.38,0.19242,0.68602,5,2D1U,2.0,True,0.24,20,True,right,0.0,1.3948,2.0783,0.6835,0.3036,0.8028,0.4993,V
