,standardDur,audNoise,order,preDur,postDur,isiDur,trial_num,total_audio_dur,delta_dur_percents,deltaDurS,testDurS,intensities,current_stair,responses,is_correct,response_rts,stair_num_reversal,stair_is_reversal,response_keys
0,0.5,0.1,1,0.3167,0.2167,0.5667,0,2.4001,0.6,0.3,0.8,5,2D1U,2.0,False,0.01,0,False,right
1,0.5,0.1,2,0.2667,0.3667,0.4667,1,2.4001,0.6,0.3,0.8,5,3D1U,1.0,False,0.004,0,False,left
2,0.5,0.1,2,0.2667,0.35,0.7667,2,2.7501,0.75,0.3667,0.8667,5,3D1U,2.0,True,0.014,0,False,right
3,0.5,0.1,1,0.2167,0.3667,0.6833,3,2.6667,0.8,0.4,0.9,5,lapse_rate,2.0,False,0.004,0,False,right
4,0.5,0.1,1,0.3167,0.2167,0.9,4,2.8001,0.75,0.3667,0.8667,5,2D1U,1.0,True,0.014,0,False,left
5,0.5,0.1,1,0.2667,0.25,0.8667,5,2.0834,-0.6,-0.3,0.2,5,3U1D,1.0,False,0.004,0,False,left
6,0.5,0.1,2,0.2333,0.3667,0.7833,6,2.0833,-0.6,-0.3,0.2,5,2U1D,2.0,False,0.014,0,False,right
7,0.5,0.1,1,0.4,0.4167,0.45,7,2.6334,0.75,0.3667,0.8667,5,3D1U,1.0,True,0.004,0,False,left
8,0.5,0.1,1,0.2667,0.3,0.8333,8,2.0333,-0.75,-0.3667,0.1333,5,3U1D,1.0,False,0.014,0,False,left
9,0.5,0.1,1,0.3167,0.3833,0.6667,9,1.9667,-0.8,-0.4,0.1,5,lapse_rate,2.0,True,0.004,0,False,right
10,0.5,0.1,2,0.4333,0.2,0.5,10,1.7666,-0.75,-0.3667,0.1333,5,2U1D,1.0,True,0.011,0,False,left
11,0.5,0.1,1,0.2333,0.2,0.8833,11,2.6833,0.75,0.3667,0.8667,5,2D1U,1.0,True,0.004,0,False,left
12,0.5,0.1,1,0.4,0.2333,0.7167,12,2.7167,0.75,0.3667,0.8667,5,3D1U,2.0,False,0.013,0,False,right
13,0.5,0.1,2,0.3167,0.4,0.5167,13,2.5667,0.66,0.3333,0.8333,5,2D1U,2.0,True,0.005,1,True,right
14,0.5,0.1,2,0.35,0.45,0.4833,14,1.8833,-0.8,-0.4,0.1,5,lapse_rate,1.0,True,0.004,0,False,left
15,0.5,0.1,2,0.35,0.45,0.5833,15,1.9333,-0.9,-0.45,0.05,5,3U1D,2.0,False,0.005,0,False,right
16,0.5,0.1,2,0.4,0.4,0.6167,16,2.05,-0.75,-0.3667,0.1333,5,2U1D,1.0,True,0.005,0,False,left
17,0.5,0.1,2,0.2833,0.2167,0.6833,17,2.6333,0.9,0.45,0.95,5,3D1U,1.0,False,0.005,0,False,left
18,0.5,0.1,2,0.2667,0.35,0.7833,18,2.8,0.8,0.4,0.9,5,lapse_rate,2.0,True,0.005,0,False,right
19,0.5,0.1,1,0.2,0.4,0.7833,19,2.05,-0.66,-0.3333,0.1667,5,2U1D,2.0,True,0.004,1,True,right
20,0.5,0.1,2,0.25,0.3833,0.85,20,2.8166,0.66,0.3333,0.8333,5,2D1U,2.0,True,0.005,1,True,right
21,0.5,0.1,1,0.35,0.25,0.4667,21,1.6167,-0.9,-0.45,0.05,5,3U1D,2.0,True,0.006,0,False,right
22,0.5,0.1,2,0.2833,0.25,0.4667,22,1.6,-0.8,-0.4,0.1,5,lapse_rate,2.0,False,0.005,0,False,right
23,0.5,0.1,2,0.3167,0.3667,0.6333,23,2.6,0.57,0.2833,0.7833,5,2D1U,2.0,True,0.005,1,False,right
24,0.5,0.1,2,0.3167,0.2667,0.5333,24,1.6667,-0.9,-0.45,0.05,5,3U1D,2.0,False,0.005,0,False,right
25,0.5,0.1,2,0.2167,0.2833,0.75,25,1.9167,-0.66,-0.3333,0.1667,5,2U1D,2.0,False,0.006,1,True,right
26,0.5,0.1,2,0.2167,0.35,0.8,26,2.8834,1.05,0.5333,1.0167,5,3D1U,2.0,True,0.006,0,False,right
27,0.5,0.1,1,0.3,0.2,0.65,27,1.8,-0.714,-0.35,0.15,5,2U1D,1.0,False,0.006,2,True,left
28,0.5,0.1,2,0.25,0.3167,0.8833,28,2.9667,1.05,0.5333,1.0167,5,3D1U,2.0,True,0.006,0,False,right
29,0.5,0.1,2,0.3333,0.2333,0.5,29,2.4666,0.8,0.4,0.9,5,lapse_rate,2.0,True,0.006,0,False,right
30,0.5,0.1,2,0.2333,0.2667,0.8167,30,1.8667,-0.9,-0.45,0.05,5,3U1D,2.0,False,0.012,0,False,right
31,0.5,0.1,2,0.3833,0.35,0.6,31,2.6166,0.57,0.2833,0.7833,5,2D1U,2.0,True,0.006,1,False,right
32,0.5,0.1,2,0.3833,0.4,0.7,32,3.0,1.05,0.5333,1.0167,5,3D1U,2.0,True,0.006,0,False,right
33,0.5,0.1,1,0.2667,0.2833,0.5,33,1.6667,-0.768,-0.3833,0.1167,5,2U1D,2.0,True,0.005,2,False,right
34,0.5,0.1,1,0.2167,0.4167,0.4167,34,1.6001,-0.9,-0.45,0.05,5,3U1D,1.0,False,0.006,0,False,left
35,0.5,0.1,1,0.2667,0.3667,0.4,35,2.2667,0.48,0.2333,0.7333,5,2D1U,2.0,False,0.006,1,False,right
36,0.5,0.1,1,0.4167,0.35,0.5667,36,2.7334,0.8,0.4,0.9,5,lapse_rate,2.0,False,0.006,0,False,right
37,0.5,0.1,1,0.2333,0.4333,0.6333,37,2.5666,0.534,0.2667,0.7667,5,2D1U,1.0,True,0.006,2,True,left
38,0.5,0.1,1,0.2667,0.25,0.55,38,1.6667,-0.8,-0.4,0.1,5,lapse_rate,2.0,True,0.006,0,False,right
39,0.5,0.1,1,0.3333,0.2667,0.7333,39,1.95,-0.768,-0.3833,0.1167,5,2U1D,2.0,True,0.006,2,False,right
40,0.5,0.1,1,0.3833,0.4,0.7833,40,3.0499,0.96,0.4833,0.9833,5,3D1U,2.0,False,0.006,1,True,right
41,0.5,0.1,1,0.4333,0.4167,0.5833,41,1.9833,-0.9,-0.45,0.05,5,3U1D,2.0,True,0.006,0,False,right
42,0.5,0.1,1,0.3333,0.2667,0.5667,42,2.6667,1.014,0.5,1.0,5,3D1U,2.0,False,0.006,2,True,right
43,0.5,0.1,2,0.3,0.4333,0.5667,43,2.5667,0.534,0.2667,0.7667,5,2D1U,2.0,True,0.007,2,True,right
44,0.5,0.1,1,0.3667,0.3333,0.4833,44,2.5833,0.8,0.4,0.9,5,lapse_rate,2.0,False,0.013,0,False,right
45,0.5,0.1,2,0.4,0.4167,0.6833,45,2.15,-0.714,-0.35,0.15,5,2U1D,1.0,True,0.006,3,True,left
46,0.5,0.1,2,0.35,0.2833,0.6167,46,1.8,-0.9,-0.45,0.05,5,3U1D,1.0,True,0.013,0,False,left
47,0.5,0.1,1,0.4,0.35,0.4833,47,2.7666,1.068,0.5333,1.0333,5,3D1U,1.0,True,0.007,2,False,left
48,0.5,0.1,2,0.35,0.45,0.7167,48,2.9167,0.8,0.4,0.9,5,lapse_rate,1.0,False,0.013,0,False,left
49,0.5,0.1,1,0.4333,0.2667,0.7333,49,2.6666,0.48,0.2333,0.7333,5,2D1U,2.0,False,0.006,3,True,right
50,0.5,0.1,2,0.2333,0.35,0.5333,50,1.6666,-0.9,-0.45,0.05,5,3U1D,1.0,True,0.012,0,False,left
51,0.5,0.1,1,0.4167,0.2167,0.6167,51,1.9001,-0.714,-0.35,0.15,5,2U1D,1.0,False,0.007,3,True,left
52,0.5,0.1,2,0.3167,0.2,0.4833,52,1.6,-0.81,-0.4,0.1,5,3U1D,2.0,False,0.012,1,True,right
53,0.5,0.1,2,0.2167,0.3,0.8167,53,2.6001,0.534,0.2667,0.7667,5,2D1U,2.0,True,0.007,4,True,right
54,0.5,0.1,1,0.3333,0.2,0.6667,54,1.8167,-0.768,-0.3833,0.1167,5,2U1D,1.0,False,0.007,4,True,left
55,0.5,0.1,1,0.3667,0.2667,0.5,55,1.7334,-0.8,-0.4,0.1,5,lapse_rate,2.0,True,0.007,0,False,right
56,0.5,0.1,2,0.25,0.3667,0.4,56,2.55,1.068,0.5333,1.0333,5,3D1U,2.0,True,0.007,2,False,right
57,0.5,0.1,1,0.4167,0.2833,0.7333,57,2.0333,-0.8,-0.4,0.1,5,lapse_rate,2.0,True,0.007,0,False,right
58,0.5,0.1,1,0.35,0.35,0.6833,58,1.9666,-0.822,-0.4167,0.0833,5,2U1D,2.0,True,0.007,4,False,right
59,0.5,0.1,1,0.3333,0.25,0.6833,59,2.7999,1.068,0.5333,1.0333,5,3D1U,1.0,True,0.007,2,False,left
60,0.5,0.1,2,0.3667,0.35,0.8167,60,2.1001,-0.864,-0.4333,0.0667,5,3U1D,1.0,True,0.012,2,True,left
61,0.5,0.1,2,0.3833,0.4167,0.7833,61,2.85,0.534,0.2667,0.7667,5,2D1U,2.0,True,0.013,4,True,right
62,0.5,0.1,2,0.25,0.2667,0.4833,62,2.2333,0.48,0.2333,0.7333,5,2D1U,2.0,True,0.013,5,True,right
63,0.5,0.1,1,0.3333,0.4333,0.5833,63,1.9332,-0.822,-0.4167,0.0833,5,2U1D,1.0,False,0.013,4,False,left
64,0.5,0.1,1,0.3333,0.2833,0.6,64,1.8166,-0.8,-0.4,0.1,5,lapse_rate,1.0,False,0.007,0,False,left
65,0.5,0.1,2,0.2833,0.3167,0.6,65,2.7,1.014,0.5,1.0,5,3D1U,1.0,False,0.007,3,True,left
66,0.5,0.1,2,0.2333,0.2167,0.55,66,1.5667,-0.864,-0.4333,0.0667,5,3U1D,1.0,True,0.008,2,True,left
67,0.5,0.1,2,0.2833,0.45,0.65,67,2.7833,0.8,0.4,0.9,5,lapse_rate,2.0,True,0.008,0,False,right
68,0.5,0.1,1,0.25,0.4333,0.6,68,1.85,-0.864,-0.4333,0.0667,5,3U1D,1.0,False,0.007,2,True,left
69,0.5,0.1,2,0.3833,0.4333,0.4833,69,1.8666,-0.876,-0.4333,0.0667,5,2U1D,2.0,False,0.007,4,False,right
70,0.5,0.1,2,0.2667,0.25,0.5667,70,2.6167,1.068,0.5333,1.0333,5,3D1U,2.0,True,0.008,4,True,right
71,0.5,0.1,2,0.3833,0.25,0.85,71,2.7166,0.48,0.2333,0.7333,5,2D1U,2.0,True,0.008,5,True,right
72,0.5,0.1,1,0.3167,0.2,0.7667,72,1.8334,-0.9,-0.45,0.05,5,3U1D,2.0,True,0.008,2,False,right
73,0.5,0.1,1,0.2833,0.3667,0.5,73,2.6833,1.068,0.5333,1.0333,5,3D1U,2.0,False,0.008,4,True,right
74,0.5,0.1,1,0.4333,0.3667,0.4,74,1.75,-0.9,-0.45,0.05,5,2U1D,1.0,False,0.008,4,False,left
75,0.5,0.1,1,0.3667,0.3167,0.6167,75,2.5168,0.426,0.2167,0.7167,5,2D1U,1.0,True,0.008,5,False,left
76,0.5,0.1,2,0.25,0.2,0.5833,76,2.25,0.426,0.2167,0.7167,5,2D1U,2.0,True,0.008,5,False,right
77,0.5,0.1,1,0.2833,0.2667,0.4333,77,2.1666,0.372,0.1833,0.6833,5,2D1U,2.0,False,0.013,5,False,right
78,0.5,0.1,2,0.3333,0.3833,0.4167,78,1.6833,-0.9,-0.45,0.05,5,2U1D,1.0,True,0.008,4,False,left
79,0.5,0.1,1,0.3667,0.3833,0.4667,79,2.7834,1.122,0.5667,1.0667,5,3D1U,1.0,True,0.009,4,False,left
80,0.5,0.1,1,0.3333,0.2167,0.85,80,2.9667,1.122,0.5667,1.0667,5,3D1U,1.0,True,0.013,4,False,left
81,0.5,0.1,2,0.2833,0.3667,0.55,81,1.75,-0.9,-0.45,0.05,5,3U1D,1.0,True,0.009,2,False,left
82,0.5,0.1,1,0.25,0.3167,0.5167,82,1.6334,-0.9,-0.45,0.05,5,3U1D,2.0,True,0.013,2,False,right
83,0.5,0.1,2,0.3667,0.4,0.85,83,2.2,-0.846,-0.4167,0.0833,5,3U1D,1.0,True,0.008,3,True,left
84,0.5,0.1,1,0.3833,0.35,0.65,84,2.95,1.122,0.5667,1.0667,5,3D1U,1.0,True,0.013,4,False,left
85,0.5,0.1,2,0.2667,0.3333,0.5333,85,1.6833,-0.9,-0.45,0.05,5,2U1D,1.0,True,0.009,4,False,left
86,0.5,0.1,2,0.3167,0.2333,0.4667,86,2.2334,0.426,0.2167,0.7167,5,2D1U,1.0,False,0.011,6,True,left
87,0.5,0.1,1,0.4333,0.3833,0.4667,87,2.8166,1.068,0.5333,1.0333,5,3D1U,1.0,True,0.009,5,True,left
88,0.5,0.1,1,0.3667,0.2833,0.75,88,2.6333,0.48,0.2333,0.7333,5,2D1U,1.0,True,0.009,6,False,left
89,0.5,0.1,2,0.2833,0.2,0.7333,89,1.7999,-0.846,-0.4167,0.0833,5,3U1D,2.0,False,0.009,3,True,right
90,0.5,0.1,2,0.2833,0.45,0.75,90,2.0666,-0.846,-0.4167,0.0833,5,2U1D,1.0,True,0.01,5,True,left
91,0.5,0.1,2,0.3167,0.4,0.75,91,2.05,-0.846,-0.4167,0.0833,5,2U1D,2.0,False,0.009,5,True,right
92,0.5,0.1,1,0.2333,0.3333,0.4833,92,2.5832,1.068,0.5333,1.0333,5,3D1U,2.0,False,0.009,5,True,right
93,0.5,0.1,2,0.3333,0.2167,0.5167,93,1.6167,-0.9,-0.45,0.05,5,3U1D,2.0,False,0.009,4,True,right
94,0.5,0.1,1,0.3333,0.2,0.4167,94,1.5,-0.9,-0.45,0.05,5,3U1D,2.0,True,0.009,4,False,right
95,0.5,0.1,1,0.25,0.2667,0.9,95,2.65,0.48,0.2333,0.7333,5,2D1U,2.0,False,0.009,6,False,right
96,0.5,0.1,1,0.2667,0.45,0.4333,96,1.7,-0.9,-0.45,0.05,5,2U1D,1.0,False,0.009,6,True,left
97,0.5,0.1,2,0.2667,0.3333,0.6833,97,1.8333,-0.9,-0.45,0.05,5,2U1D,2.0,False,0.01,6,False,right
98,0.5,0.1,2,0.3,0.2667,0.7667,98,1.8834,-0.9,-0.45,0.05,5,3U1D,2.0,False,0.009,4,False,right
99,0.5,0.1,2,0.3167,0.35,0.8333,99,3.0667,1.122,0.5667,1.0667,5,3D1U,1.0,False,0.009,6,True,left
100,0.5,0.1,1,0.4,0.3667,0.5667,100,2.9167,1.176,0.5833,1.0833,5,3D1U,1.0,True,0.009,6,False,left
101,0.5,0.1,2,0.2667,0.3333,0.7,101,2.5667,0.534,0.2667,0.7667,5,2D1U,1.0,False,0.009,6,False,left
102,0.5,0.1,2,0.3,0.3167,0.6833,102,1.85,-0.9,-0.45,0.05,5,2U1D,1.0,True,0.009,6,False,left
103,0.5,0.1,1,0.3167,0.3667,0.8,103,2.0334,-0.9,-0.45,0.05,5,3U1D,2.0,True,0.01,4,False,right
104,0.5,0.1,2,0.2833,0.3333,0.4167,104,2.3333,0.588,0.3,0.8,5,2D1U,1.0,False,0.01,6,False,left
105,0.5,0.1,1,0.35,0.3333,0.6167,105,2.8833,1.176,0.5833,1.0833,5,3D1U,2.0,False,0.009,6,False,right
106,0.5,0.1,1,0.3167,0.45,0.8833,106,2.2,-0.9,-0.45,0.05,5,2U1D,2.0,True,0.01,6,False,right
107,0.5,0.1,1,0.3667,0.25,0.5,107,1.6667,-0.9,-0.45,0.05,5,3U1D,1.0,False,0.009,4,False,left
108,0.5,0.1,2,0.3,0.2167,0.8167,108,1.8834,-0.9,-0.45,0.05,5,3U1D,2.0,False,0.01,4,False,right
109,0.5,0.1,1,0.2833,0.25,0.6167,109,2.7667,1.23,0.6167,1.1167,5,3D1U,2.0,False,0.01,6,False,right
110,0.5,0.1,1,0.4167,0.3833,0.7833,110,2.1666,-0.846,-0.4167,0.0833,5,2U1D,1.0,False,0.01,7,True,left
111,0.5,0.1,1,0.4167,0.3167,0.4667,111,2.5168,0.642,0.3167,0.8167,5,2D1U,2.0,False,0.01,6,False,right
112,0.5,0.1,1,0.25,0.4333,0.4333,112,2.7666,1.284,0.65,1.15,5,3D1U,2.0,False,0.013,6,False,right
113,0.5,0.1,2,0.2,0.3333,0.6833,113,2.8833,1.338,0.6667,1.1667,5,3D1U,2.0,True,0.025,6,False,right
114,0.5,0.1,2,0.3667,0.35,0.7167,114,2.7834,0.696,0.35,0.85,5,2D1U,1.0,False,0.011,6,False,left
115,0.5,0.1,1,0.45,0.2333,0.7167,115,1.95,-0.9,-0.45,0.05,5,2U1D,1.0,False,0.011,8,True,left
116,0.5,0.1,1,0.4,0.3,0.5667,116,1.8167,-0.9,-0.45,0.05,5,3U1D,1.0,False,0.013,4,False,left
117,0.5,0.1,2,0.2833,0.2667,0.7333,117,1.8333,-0.9,-0.45,0.05,5,3U1D,2.0,False,0.01,4,False,right
118,0.5,0.1,1,0.35,0.2333,0.8,118,2.75,0.75,0.3667,0.8667,5,2D1U,1.0,True,0.011,6,False,left
